"rt","stimulus","key_press","trial_type","trial_index","time_elapsed","internal_node_id","Prolific_ID","random_ID","initials","age","gender","pc_info","start_time","Phase","Rule","Stimulus","Response","CorrResp","Accuracy","ResponseTime","screen_resolution","window_resolution","focus","relevant","Points","responses","question_order","rev_check","butterfly_check","passed_practice"
"null","<p style=""font-size: 80px;"">+ 10 points</p>","null","html-keyboard-response","1","64395","0.0-7.0-2.0","5981b3289bf4fe0001070aea","aajv8r","DC","35","F","{""name"":""Chrome"",""chrome"":true,""version"":""106.0"",""blink"":true,""windows"":true,""osname"":""Windows"",""osversion"":""10"",""a"":true}","9:14:4","0","1","Practice_1","70","f","1","1489.4000000001397","1920 x 1080","1920 x 1080","true","1","10","","","","",""
"null","<p style=""font-size: 80px;"">+ 10 points</p>","null","html-keyboard-response","2","68583","0.0-7.0-2.1","5981b3289bf4fe0001070aea","aajv8r","DC","35","F","{""name"":""Chrome"",""chrome"":true,""version"":""106.0"",""blink"":true,""windows"":true,""osname"":""Windows"",""osversion"":""10"",""a"":true}","9:14:4","0","1","Practice_3","70","f","1","2169.6999999999534","1920 x 1080","1920 x 1080","true","1","10","","","","",""
"null","<p style=""font-size: 80px;"">+ 10 points</p>","null","html-keyboard-response","3","71835","0.0-7.0-2.2","5981b3289bf4fe0001070aea","aajv8r","DC","35","F","{""name"":""Chrome"",""chrome"":true,""version"":""106.0"",""blink"":true,""windows"":true,""osname"":""Windows"",""osversion"":""10"",""a"":true}","9:14:4","0","1","Practice_4","74","j","1","1232.1999999999534","1920 x 1080","1920 x 1080","true","1","10","","","","",""
"null","<p style=""font-size: 80px;"">+ 10 points</p>","null","html-keyboard-response","4","75243","0.0-7.0-2.3","5981b3289bf4fe0001070aea","aajv8r","DC","35","F","{""name"":""Chrome"",""chrome"":true,""version"":""106.0"",""blink"":true,""windows"":true,""osname"":""Windows"",""osversion"":""10"",""a"":true}","9:14:4","0","1","Practice_3","70","f","1","1392.7000000001863","1920 x 1080","1920 x 1080","true","1","10","","","","",""
"null","<p style=""font-size: 80px;"">+ 10 points</p>","null","html-keyboard-response","5","78564","0.0-7.0-2.4","5981b3289bf4fe0001070aea","aajv8r","DC","35","F","{""name"":""Chrome"",""chrome"":true,""version"":""106.0"",""blink"":true,""windows"":true,""osname"":""Windows"",""osversion"":""10"",""a"":true}","9:14:4","0","1","Practice_2","74","j","1","1301.8999999999069","1920 x 1080","1920 x 1080","true","1","10","","","","",""
"null","<p style=""font-size: 80px;"">+ 10 points</p>","null","html-keyboard-response","6","81484","0.0-7.0-2.5","5981b3289bf4fe0001070aea","aajv8r","DC","35","F","{""name"":""Chrome"",""chrome"":true,""version"":""106.0"",""blink"":true,""windows"":true,""osname"":""Windows"",""osversion"":""10"",""a"":true}","9:14:4","0","1","Practice_4","74","j","1","882.4000000001397","1920 x 1080","1920 x 1080","true","1","10","","","","",""
"null","<p style=""font-size: 80px;"">+ 10 points</p>","null","html-keyboard-response","7","84569","0.0-7.0-2.6","5981b3289bf4fe0001070aea","aajv8r","DC","35","F","{""name"":""Chrome"",""chrome"":true,""version"":""106.0"",""blink"":true,""windows"":true,""osname"":""Windows"",""osversion"":""10"",""a"":true}","9:14:4","0","1","Practice_3","70","f","1","1070.5","1920 x 1080","1920 x 1080","true","1","10","","","","",""
"null","<p style=""font-size: 80px;"">+ 10 points</p>","null","html-keyboard-response","8","87678","0.0-7.0-2.7","5981b3289bf4fe0001070aea","aajv8r","DC","35","F","{""name"":""Chrome"",""chrome"":true,""version"":""106.0"",""blink"":true,""windows"":true,""osname"":""Windows"",""osversion"":""10"",""a"":true}","9:14:4","0","1","Practice_2","74","j","1","1094.7999999998137","1920 x 1080","1920 x 1080","true","1","10","","","","",""
"null","<p style=""font-size: 80px;"">+ 10 points</p>","null","html-keyboard-response","9","90465","0.0-7.0-2.8","5981b3289bf4fe0001070aea","aajv8r","DC","35","F","{""name"":""Chrome"",""chrome"":true,""version"":""106.0"",""blink"":true,""windows"":true,""osname"":""Windows"",""osversion"":""10"",""a"":true}","9:14:4","0","1","Practice_4","74","j","1","769","1920 x 1080","1920 x 1080","true","1","10","","","","",""
"null","<p style=""font-size: 80px;"">+ 10 points</p>","null","html-keyboard-response","10","94147","0.0-7.0-2.9","5981b3289bf4fe0001070aea","aajv8r","DC","35","F","{""name"":""Chrome"",""chrome"":true,""version"":""106.0"",""blink"":true,""windows"":true,""osname"":""Windows"",""osversion"":""10"",""a"":true}","9:14:4","0","1","Practice_2","74","j","1","1668.8000000000466","1920 x 1080","1920 x 1080","true","1","10","","","","",""
"null","<p style=""font-size: 80px;"">+ 10 points</p>","null","html-keyboard-response","11","97514","0.0-7.0-2.10","5981b3289bf4fe0001070aea","aajv8r","DC","35","F","{""name"":""Chrome"",""chrome"":true,""version"":""106.0"",""blink"":true,""windows"":true,""osname"":""Windows"",""osversion"":""10"",""a"":true}","9:14:4","0","1","Practice_3","70","f","1","1324.1999999999534","1920 x 1080","1920 x 1080","true","1","10","","","","",""
"null","<p style=""font-size: 80px;"">+ 10 points</p>","null","html-keyboard-response","12","100636","0.0-7.0-2.11","5981b3289bf4fe0001070aea","aajv8r","DC","35","F","{""name"":""Chrome"",""chrome"":true,""version"":""106.0"",""blink"":true,""windows"":true,""osname"":""Windows"",""osversion"":""10"",""a"":true}","9:14:4","0","1","Practice_4","74","j","1","1096.5999999998603","1920 x 1080","1920 x 1080","true","1","10","","","","",""
"null","<p style=""font-size: 80px;"">+ 10 points</p>","null","html-keyboard-response","13","103585","0.0-7.0-2.12","5981b3289bf4fe0001070aea","aajv8r","DC","35","F","{""name"":""Chrome"",""chrome"":true,""version"":""106.0"",""blink"":true,""windows"":true,""osname"":""Windows"",""osversion"":""10"",""a"":true}","9:14:4","0","1","Practice_1","70","f","1","937.1999999999534","1920 x 1080","1920 x 1080","true","1","10","","","","",""
"null","<p style=""font-size: 80px;"">+ 10 points</p>","null","html-keyboard-response","14","106514","0.0-7.0-2.13","5981b3289bf4fe0001070aea","aajv8r","DC","35","F","{""name"":""Chrome"",""chrome"":true,""version"":""106.0"",""blink"":true,""windows"":true,""osname"":""Windows"",""osversion"":""10"",""a"":true}","9:14:4","0","1","Practice_3","70","f","1","914.1000000000931","1920 x 1080","1920 x 1080","true","1","10","","","","",""
"null","<p style=""font-size: 80px;"">+ 10 points</p>","null","html-keyboard-response","15","109726","0.0-7.0-2.14","5981b3289bf4fe0001070aea","aajv8r","DC","35","F","{""name"":""Chrome"",""chrome"":true,""version"":""106.0"",""blink"":true,""windows"":true,""osname"":""Windows"",""osversion"":""10"",""a"":true}","9:14:4","0","1","Practice_4","74","j","1","1196","1920 x 1080","1920 x 1080","true","1","10","","","","",""
"null","<p style=""font-size: 80px;"">+ 10 points</p>","null","html-keyboard-response","16","112791","0.0-7.0-2.15","5981b3289bf4fe0001070aea","aajv8r","DC","35","F","{""name"":""Chrome"",""chrome"":true,""version"":""106.0"",""blink"":true,""windows"":true,""osname"":""Windows"",""osversion"":""10"",""a"":true}","9:14:4","0","1","Practice_1","70","f","1","1051.6999999999534","1920 x 1080","1920 x 1080","true","1","10","","","","",""
"null","<p style=""font-size: 80px;"">+ 10 points</p>","null","html-keyboard-response","17","115485","0.0-7.0-2.16","5981b3289bf4fe0001070aea","aajv8r","DC","35","F","{""name"":""Chrome"",""chrome"":true,""version"":""106.0"",""blink"":true,""windows"":true,""osname"":""Windows"",""osversion"":""10"",""a"":true}","9:14:4","0","1","Practice_2","74","j","1","683.6999999999534","1920 x 1080","1920 x 1080","true","1","10","","","","",""
"null","<p style=""font-size: 80px;"">+ 10 points</p>","null","html-keyboard-response","18","118184","0.0-7.0-2.17","5981b3289bf4fe0001070aea","aajv8r","DC","35","F","{""name"":""Chrome"",""chrome"":true,""version"":""106.0"",""blink"":true,""windows"":true,""osname"":""Windows"",""osversion"":""10"",""a"":true}","9:14:4","0","1","Practice_2","74","j","1","672.3000000000466","1920 x 1080","1920 x 1080","true","1","10","","","","",""
"null","<p style=""font-size: 80px;"">+ 10 points</p>","null","html-keyboard-response","19","121001","0.0-7.0-2.18","5981b3289bf4fe0001070aea","aajv8r","DC","35","F","{""name"":""Chrome"",""chrome"":true,""version"":""106.0"",""blink"":true,""windows"":true,""osname"":""Windows"",""osversion"":""10"",""a"":true}","9:14:4","0","1","Practice_1","70","f","1","793.6000000000931","1920 x 1080","1920 x 1080","true","1","10","","","","",""
"null","<p style=""font-size: 80px;"">+ 10 points</p>","null","html-keyboard-response","20","124395","0.0-7.0-2.19","5981b3289bf4fe0001070aea","aajv8r","DC","35","F","{""name"":""Chrome"",""chrome"":true,""version"":""106.0"",""blink"":true,""windows"":true,""osname"":""Windows"",""osversion"":""10"",""a"":true}","9:14:4","0","1","Practice_1","70","f","1","1384.0999999998603","1920 x 1080","1920 x 1080","true","1","10","","","","",""
"null","<p style=""font-size: 80px;"">+ 0 points</p>","null","html-keyboard-response","21","127121","0.0-7.0-2.20","5981b3289bf4fe0001070aea","aajv8r","DC","35","F","{""name"":""Chrome"",""chrome"":true,""version"":""106.0"",""blink"":true,""windows"":true,""osname"":""Windows"",""osversion"":""10"",""a"":true}","9:14:4","0","2","Practice_4","74","f","0","695.8000000000466","1920 x 1080","1920 x 1080","true","1","0","","","","",""
"null","<p style=""font-size: 80px;"">+ 10 points</p>","null","html-keyboard-response","22","129863","0.0-7.0-2.21","5981b3289bf4fe0001070aea","aajv8r","DC","35","F","{""name"":""Chrome"",""chrome"":true,""version"":""106.0"",""blink"":true,""windows"":true,""osname"":""Windows"",""osversion"":""10"",""a"":true}","9:14:4","0","2","Practice_1","74","j","1","729.6000000000931","1920 x 1080","1920 x 1080","true","1","10","","","","",""
"null","<p style=""font-size: 80px;"">+ 0 points</p>","null","html-keyboard-response","23","133341","0.0-7.0-2.22","5981b3289bf4fe0001070aea","aajv8r","DC","35","F","{""name"":""Chrome"",""chrome"":true,""version"":""106.0"",""blink"":true,""windows"":true,""osname"":""Windows"",""osversion"":""10"",""a"":true}","9:14:4","0","2","Practice_2","74","f","0","1465.8999999999069","1920 x 1080","1920 x 1080","true","1","0","","","","",""
"null","<p style=""font-size: 80px;"">+ 10 points</p>","null","html-keyboard-response","24","136915","0.0-7.0-2.23","5981b3289bf4fe0001070aea","aajv8r","DC","35","F","{""name"":""Chrome"",""chrome"":true,""version"":""106.0"",""blink"":true,""windows"":true,""osname"":""Windows"",""osversion"":""10"",""a"":true}","9:14:4","0","2","Practice_3","74","j","1","1560.8000000000466","1920 x 1080","1920 x 1080","true","1","10","","","","",""
"null","<p style=""font-size: 80px;"">+ 10 points</p>","null","html-keyboard-response","25","140154","0.0-7.0-2.24","5981b3289bf4fe0001070aea","aajv8r","DC","35","F","{""name"":""Chrome"",""chrome"":true,""version"":""106.0"",""blink"":true,""windows"":true,""osname"":""Windows"",""osversion"":""10"",""a"":true}","9:14:4","0","2","Practice_3","74","j","1","1218.4000000001397","1920 x 1080","1920 x 1080","true","1","10","","","","",""
"null","<p style=""font-size: 80px;"">+ 10 points</p>","null","html-keyboard-response","26","143264","0.0-7.0-2.25","5981b3289bf4fe0001070aea","aajv8r","DC","35","F","{""name"":""Chrome"",""chrome"":true,""version"":""106.0"",""blink"":true,""windows"":true,""osname"":""Windows"",""osversion"":""10"",""a"":true}","9:14:4","0","2","Practice_1","74","j","1","1096.1999999999534","1920 x 1080","1920 x 1080","true","1","10","","","","",""
"null","<p style=""font-size: 80px;"">+ 10 points</p>","null","html-keyboard-response","27","146104","0.0-7.0-2.26","5981b3289bf4fe0001070aea","aajv8r","DC","35","F","{""name"":""Chrome"",""chrome"":true,""version"":""106.0"",""blink"":true,""windows"":true,""osname"":""Windows"",""osversion"":""10"",""a"":true}","9:14:4","0","2","Practice_1","74","j","1","825.8000000000466","1920 x 1080","1920 x 1080","true","1","10","","","","",""
"null","<p style=""font-size: 80px;"">+ 0 points</p>","null","html-keyboard-response","28","149214","0.0-7.0-2.27","5981b3289bf4fe0001070aea","aajv8r","DC","35","F","{""name"":""Chrome"",""chrome"":true,""version"":""106.0"",""blink"":true,""windows"":true,""osname"":""Windows"",""osversion"":""10"",""a"":true}","9:14:4","0","2","Practice_3","70","j","0","1091.6000000000931","1920 x 1080","1920 x 1080","true","1","0","","","","",""
"null","<p style=""font-size: 80px;"">+ 10 points</p>","null","html-keyboard-response","29","152687","0.0-7.0-2.28","5981b3289bf4fe0001070aea","aajv8r","DC","35","F","{""name"":""Chrome"",""chrome"":true,""version"":""106.0"",""blink"":true,""windows"":true,""osname"":""Windows"",""osversion"":""10"",""a"":true}","9:14:4","0","2","Practice_2","70","f","1","1457.1000000000931","1920 x 1080","1920 x 1080","true","1","10","","","","",""
"null","<p style=""font-size: 80px;"">+ 10 points</p>","null","html-keyboard-response","30","156574","0.0-7.0-2.29","5981b3289bf4fe0001070aea","aajv8r","DC","35","F","{""name"":""Chrome"",""chrome"":true,""version"":""106.0"",""blink"":true,""windows"":true,""osname"":""Windows"",""osversion"":""10"",""a"":true}","9:14:4","0","2","Practice_4","70","f","1","1876.0999999998603","1920 x 1080","1920 x 1080","true","1","10","","","","",""
"null","<p style=""font-size: 80px;"">+ 10 points</p>","null","html-keyboard-response","31","160333","0.0-7.0-2.30","5981b3289bf4fe0001070aea","aajv8r","DC","35","F","{""name"":""Chrome"",""chrome"":true,""version"":""106.0"",""blink"":true,""windows"":true,""osname"":""Windows"",""osversion"":""10"",""a"":true}","9:14:4","0","2","Practice_1","74","j","1","1740","1920 x 1080","1920 x 1080","true","1","10","","","","",""
"null","<p style=""font-size: 80px;"">+ 10 points</p>","null","html-keyboard-response","32","164148","0.0-7.0-2.31","5981b3289bf4fe0001070aea","aajv8r","DC","35","F","{""name"":""Chrome"",""chrome"":true,""version"":""106.0"",""blink"":true,""windows"":true,""osname"":""Windows"",""osversion"":""10"",""a"":true}","9:14:4","0","2","Practice_4","70","f","1","1788","1920 x 1080","1920 x 1080","true","1","10","","","","",""
"null","<p style=""font-size: 80px;"">+ 10 points</p>","null","html-keyboard-response","33","167564","0.0-7.0-2.32","5981b3289bf4fe0001070aea","aajv8r","DC","35","F","{""name"":""Chrome"",""chrome"":true,""version"":""106.0"",""blink"":true,""windows"":true,""osname"":""Windows"",""osversion"":""10"",""a"":true}","9:14:4","0","2","Practice_2","70","f","1","1405","1920 x 1080","1920 x 1080","true","1","10","","","","",""
"null","<p style=""font-size: 80px;"">+ 10 points</p>","null","html-keyboard-response","34","171244","0.0-7.0-2.33","5981b3289bf4fe0001070aea","aajv8r","DC","35","F","{""name"":""Chrome"",""chrome"":true,""version"":""106.0"",""blink"":true,""windows"":true,""osname"":""Windows"",""osversion"":""10"",""a"":true}","9:14:4","0","2","Practice_4","70","f","1","1664.3000000000466","1920 x 1080","1920 x 1080","true","1","10","","","","",""
"null","<p style=""font-size: 80px;"">+ 10 points</p>","null","html-keyboard-response","35","174304","0.0-7.0-2.34","5981b3289bf4fe0001070aea","aajv8r","DC","35","F","{""name"":""Chrome"",""chrome"":true,""version"":""106.0"",""blink"":true,""windows"":true,""osname"":""Windows"",""osversion"":""10"",""a"":true}","9:14:4","0","2","Practice_2","70","f","1","1044.6000000000931","1920 x 1080","1920 x 1080","true","1","10","","","","",""
"null","<p style=""font-size: 80px;"">+ 10 points</p>","null","html-keyboard-response","36","177834","0.0-7.0-2.35","5981b3289bf4fe0001070aea","aajv8r","DC","35","F","{""name"":""Chrome"",""chrome"":true,""version"":""106.0"",""blink"":true,""windows"":true,""osname"":""Windows"",""osversion"":""10"",""a"":true}","9:14:4","0","2","Practice_1","74","j","1","1517.5999999998603","1920 x 1080","1920 x 1080","true","1","10","","","","",""
"null","<p style=""font-size: 80px;"">+ 10 points</p>","null","html-keyboard-response","37","180617","0.0-7.0-2.36","5981b3289bf4fe0001070aea","aajv8r","DC","35","F","{""name"":""Chrome"",""chrome"":true,""version"":""106.0"",""blink"":true,""windows"":true,""osname"":""Windows"",""osversion"":""10"",""a"":true}","9:14:4","0","2","Practice_3","74","j","1","769.6000000000931","1920 x 1080","1920 x 1080","true","1","10","","","","",""
"null","<p style=""font-size: 80px;"">+ 10 points</p>","null","html-keyboard-response","38","183571","0.0-7.0-2.37","5981b3289bf4fe0001070aea","aajv8r","DC","35","F","{""name"":""Chrome"",""chrome"":true,""version"":""106.0"",""blink"":true,""windows"":true,""osname"":""Windows"",""osversion"":""10"",""a"":true}","9:14:4","0","2","Practice_2","70","f","1","938.1000000000931","1920 x 1080","1920 x 1080","true","1","10","","","","",""
"null","<p style=""font-size: 80px;"">+ 10 points</p>","null","html-keyboard-response","39","186979","0.0-7.0-2.38","5981b3289bf4fe0001070aea","aajv8r","DC","35","F","{""name"":""Chrome"",""chrome"":true,""version"":""106.0"",""blink"":true,""windows"":true,""osname"":""Windows"",""osversion"":""10"",""a"":true}","9:14:4","0","2","Practice_3","74","j","1","1386.6000000000931","1920 x 1080","1920 x 1080","true","1","10","","","","",""
"null","<p style=""font-size: 80px;"">+ 10 points</p>","null","html-keyboard-response","40","190264","0.0-7.0-2.39","5981b3289bf4fe0001070aea","aajv8r","DC","35","F","{""name"":""Chrome"",""chrome"":true,""version"":""106.0"",""blink"":true,""windows"":true,""osname"":""Windows"",""osversion"":""10"",""a"":true}","9:14:4","0","2","Practice_4","70","f","1","1277.3999999999069","1920 x 1080","1920 x 1080","true","1","10","","","","",""
"11944.5","","","survey-multi-choice","127","202213","0.0-8.0","5981b3289bf4fe0001070aea","aajv8r","DC","35","F","{""name"":""Chrome"",""chrome"":true,""version"":""106.0"",""blink"":true,""windows"":true,""osname"":""Windows"",""osversion"":""10"",""a"":true}","9:14:4","","","","","","","","","","","1","","{""Q0"":""The red one"",""Q1"":""1""}","[0,1]","1","The red one","2"
"null","<p style=""font-size: 80px;"">+ 10 points</p>","null","html-keyboard-response","1","227654","0.0-11.0-2.0","5981b3289bf4fe0001070aea","aajv8r","DC","35","F","{""name"":""Chrome"",""chrome"":true,""version"":""106.0"",""blink"":true,""windows"":true,""osname"":""Windows"",""osversion"":""10"",""a"":true}","9:14:4","1","4","Test_1","74","j","1","1500.6999999999534","1920 x 1080","1920 x 1080","true","1","10","","","","",""
"null","<p style=""font-size: 80px;"">+ 10 points</p>","null","html-keyboard-response","2","230729","0.0-11.0-2.1","5981b3289bf4fe0001070aea","aajv8r","DC","35","F","{""name"":""Chrome"",""chrome"":true,""version"":""106.0"",""blink"":true,""windows"":true,""osname"":""Windows"",""osversion"":""10"",""a"":true}","9:14:4","1","4","Test_4","70","f","1","1048.6000000000931","1920 x 1080","1920 x 1080","true","1","10","","","","",""
"null","<p style=""font-size: 80px;"">+ 10 points</p>","null","html-keyboard-response","3","234105","0.0-11.0-2.2","5981b3289bf4fe0001070aea","aajv8r","DC","35","F","{""name"":""Chrome"",""chrome"":true,""version"":""106.0"",""blink"":true,""windows"":true,""osname"":""Windows"",""osversion"":""10"",""a"":true}","9:14:4","1","4","Test_3","74","j","1","1361.1000000000931","1920 x 1080","1920 x 1080","true","1","10","","","","",""
"null","<p style=""font-size: 80px;"">+ 10 points</p>","null","html-keyboard-response","4","238054","0.0-11.0-2.3","5981b3289bf4fe0001070aea","aajv8r","DC","35","F","{""name"":""Chrome"",""chrome"":true,""version"":""106.0"",""blink"":true,""windows"":true,""osname"":""Windows"",""osversion"":""10"",""a"":true}","9:14:4","1","4","Test_2","70","f","1","1933.3000000000466","1920 x 1080","1920 x 1080","true","1","10","","","","",""
"null","<p style=""font-size: 80px;"">+ 10 points</p>","null","html-keyboard-response","5","243159","0.0-11.0-2.4","5981b3289bf4fe0001070aea","aajv8r","DC","35","F","{""name"":""Chrome"",""chrome"":true,""version"":""106.0"",""blink"":true,""windows"":true,""osname"":""Windows"",""osversion"":""10"",""a"":true}","9:14:4","1","4","Test_2","70","f","1","3082.8000000000466","1920 x 1080","1920 x 1080","true","1","10","","","","",""
"null","<p style=""font-size: 80px;"">+ 10 points</p>","null","html-keyboard-response","6","245895","0.0-11.0-2.5","5981b3289bf4fe0001070aea","aajv8r","DC","35","F","{""name"":""Chrome"",""chrome"":true,""version"":""106.0"",""blink"":true,""windows"":true,""osname"":""Windows"",""osversion"":""10"",""a"":true}","9:14:4","1","4","Test_1","74","j","1","718.6000000000931","1920 x 1080","1920 x 1080","true","1","10","","","","",""
"null","<p style=""font-size: 80px;"">+ 0 points</p>","null","html-keyboard-response","7","248385","0.0-11.0-2.6","5981b3289bf4fe0001070aea","aajv8r","DC","35","F","{""name"":""Chrome"",""chrome"":true,""version"":""106.0"",""blink"":true,""windows"":true,""osname"":""Windows"",""osversion"":""10"",""a"":true}","9:14:4","1","4","Test_4","74","f","0","480.30000000004657","1920 x 1080","1920 x 1080","true","1","0","","","","",""
"null","<p style=""font-size: 80px;"">+ 10 points</p>","null","html-keyboard-response","8","251535","0.0-11.0-2.7","5981b3289bf4fe0001070aea","aajv8r","DC","35","F","{""name"":""Chrome"",""chrome"":true,""version"":""106.0"",""blink"":true,""windows"":true,""osname"":""Windows"",""osversion"":""10"",""a"":true}","9:14:4","1","4","Test_3","74","j","1","1128.5","1920 x 1080","1920 x 1080","true","1","10","","","","",""
"null","<p style=""font-size: 80px;"">+ 10 points</p>","null","html-keyboard-response","9","254434","0.0-11.0-2.8","5981b3289bf4fe0001070aea","aajv8r","DC","35","F","{""name"":""Chrome"",""chrome"":true,""version"":""106.0"",""blink"":true,""windows"":true,""osname"":""Windows"",""osversion"":""10"",""a"":true}","9:14:4","1","4","Test_3","74","j","1","866.4000000001397","1920 x 1080","1920 x 1080","true","1","10","","","","",""
"null","<p style=""font-size: 80px;"">+ 10 points</p>","null","html-keyboard-response","10","257541","0.0-11.0-2.9","5981b3289bf4fe0001070aea","aajv8r","DC","35","F","{""name"":""Chrome"",""chrome"":true,""version"":""106.0"",""blink"":true,""windows"":true,""osname"":""Windows"",""osversion"":""10"",""a"":true}","9:14:4","1","4","Test_2","70","f","1","1090.0999999998603","1920 x 1080","1920 x 1080","true","1","10","","","","",""
"null","<p style=""font-size: 80px;"">+ 10 points</p>","null","html-keyboard-response","11","260354","0.0-11.0-2.10","5981b3289bf4fe0001070aea","aajv8r","DC","35","F","{""name"":""Chrome"",""chrome"":true,""version"":""106.0"",""blink"":true,""windows"":true,""osname"":""Windows"",""osversion"":""10"",""a"":true}","9:14:4","1","4","Test_4","70","f","1","789.7000000001863","1920 x 1080","1920 x 1080","true","1","10","","","","",""
"null","<p style=""font-size: 80px;"">+ 10 points</p>","null","html-keyboard-response","12","263084","0.0-11.0-2.11","5981b3289bf4fe0001070aea","aajv8r","DC","35","F","{""name"":""Chrome"",""chrome"":true,""version"":""106.0"",""blink"":true,""windows"":true,""osname"":""Windows"",""osversion"":""10"",""a"":true}","9:14:4","1","4","Test_1","74","j","1","712.5","1920 x 1080","1920 x 1080","true","1","10","","","","",""
"null","<p style=""font-size: 80px;"">+ 10 points</p>","null","html-keyboard-response","13","265936","0.0-11.0-2.12","5981b3289bf4fe0001070aea","aajv8r","DC","35","F","{""name"":""Chrome"",""chrome"":true,""version"":""106.0"",""blink"":true,""windows"":true,""osname"":""Windows"",""osversion"":""10"",""a"":true}","9:14:4","1","4","Test_2","70","f","1","833.3000000000466","1920 x 1080","1920 x 1080","true","1","10","","","","",""
"null","<p style=""font-size: 80px;"">+ 10 points</p>","null","html-keyboard-response","14","268639","0.0-11.0-2.13","5981b3289bf4fe0001070aea","aajv8r","DC","35","F","{""name"":""Chrome"",""chrome"":true,""version"":""106.0"",""blink"":true,""windows"":true,""osname"":""Windows"",""osversion"":""10"",""a"":true}","9:14:4","1","4","Test_4","70","f","1","692.1000000000931","1920 x 1080","1920 x 1080","true","1","10","","","","",""
"null","<p style=""font-size: 80px;"">+ 10 points</p>","null","html-keyboard-response","15","271694","0.0-11.0-2.14","5981b3289bf4fe0001070aea","aajv8r","DC","35","F","{""name"":""Chrome"",""chrome"":true,""version"":""106.0"",""blink"":true,""windows"":true,""osname"":""Windows"",""osversion"":""10"",""a"":true}","9:14:4","1","4","Test_2","70","f","1","1031.8000000000466","1920 x 1080","1920 x 1080","true","1","10","","","","",""
"null","<p style=""font-size: 80px;"">+ 10 points</p>","null","html-keyboard-response","16","276184","0.0-11.0-2.15","5981b3289bf4fe0001070aea","aajv8r","DC","35","F","{""name"":""Chrome"",""chrome"":true,""version"":""106.0"",""blink"":true,""windows"":true,""osname"":""Windows"",""osversion"":""10"",""a"":true}","9:14:4","1","4","Test_3","74","j","1","2474.6999999999534","1920 x 1080","1920 x 1080","true","1","10","","","","",""
"null","<p style=""font-size: 80px;"">+ 10 points</p>","null","html-keyboard-response","17","278904","0.0-11.0-2.16","5981b3289bf4fe0001070aea","aajv8r","DC","35","F","{""name"":""Chrome"",""chrome"":true,""version"":""106.0"",""blink"":true,""windows"":true,""osname"":""Windows"",""osversion"":""10"",""a"":true}","9:14:4","1","4","Test_4","70","f","1","697.8000000000466","1920 x 1080","1920 x 1080","true","1","10","","","","",""
"null","<p style=""font-size: 80px;"">+ 10 points</p>","null","html-keyboard-response","18","281793","0.0-11.0-2.17","5981b3289bf4fe0001070aea","aajv8r","DC","35","F","{""name"":""Chrome"",""chrome"":true,""version"":""106.0"",""blink"":true,""windows"":true,""osname"":""Windows"",""osversion"":""10"",""a"":true}","9:14:4","1","4","Test_3","74","j","1","877.0999999998603","1920 x 1080","1920 x 1080","true","1","10","","","","",""
"null","<p style=""font-size: 80px;"">+ 10 points</p>","null","html-keyboard-response","19","284423","0.0-11.0-2.18","5981b3289bf4fe0001070aea","aajv8r","DC","35","F","{""name"":""Chrome"",""chrome"":true,""version"":""106.0"",""blink"":true,""windows"":true,""osname"":""Windows"",""osversion"":""10"",""a"":true}","9:14:4","1","4","Test_3","74","j","1","616.1999999999534","1920 x 1080","1920 x 1080","true","1","10","","","","",""
"null","<p style=""font-size: 80px;"">+ 10 points</p>","null","html-keyboard-response","20","287029","0.0-11.0-2.19","5981b3289bf4fe0001070aea","aajv8r","DC","35","F","{""name"":""Chrome"",""chrome"":true,""version"":""106.0"",""blink"":true,""windows"":true,""osname"":""Windows"",""osversion"":""10"",""a"":true}","9:14:4","1","4","Test_4","70","f","1","589.3999999999069","1920 x 1080","1920 x 1080","true","1","10","","","","",""
"null","<p style=""font-size: 80px;"">+ 10 points</p>","null","html-keyboard-response","21","289690","0.0-11.0-2.20","5981b3289bf4fe0001070aea","aajv8r","DC","35","F","{""name"":""Chrome"",""chrome"":true,""version"":""106.0"",""blink"":true,""windows"":true,""osname"":""Windows"",""osversion"":""10"",""a"":true}","9:14:4","1","4","Test_1","74","j","1","637.8999999999069","1920 x 1080","1920 x 1080","true","1","10","","","","",""
"null","<p style=""font-size: 80px;"">+ 10 points</p>","null","html-keyboard-response","22","292443","0.0-11.0-2.21","5981b3289bf4fe0001070aea","aajv8r","DC","35","F","{""name"":""Chrome"",""chrome"":true,""version"":""106.0"",""blink"":true,""windows"":true,""osname"":""Windows"",""osversion"":""10"",""a"":true}","9:14:4","1","4","Test_1","74","j","1","740.8999999999069","1920 x 1080","1920 x 1080","true","1","10","","","","",""
"null","<p style=""font-size: 80px;"">+ 0 points</p>","null","html-keyboard-response","23","295193","0.0-11.0-2.22","5981b3289bf4fe0001070aea","aajv8r","DC","35","F","{""name"":""Chrome"",""chrome"":true,""version"":""106.0"",""blink"":true,""windows"":true,""osname"":""Windows"",""osversion"":""10"",""a"":true}","9:14:4","1","3","Test_1","74","f","0","727.7000000001863","1920 x 1080","1920 x 1080","true","1","0","","","","",""
"null","<p style=""font-size: 80px;"">+ 10 points</p>","null","html-keyboard-response","24","297853","0.0-11.0-2.23","5981b3289bf4fe0001070aea","aajv8r","DC","35","F","{""name"":""Chrome"",""chrome"":true,""version"":""106.0"",""blink"":true,""windows"":true,""osname"":""Windows"",""osversion"":""10"",""a"":true}","9:14:4","1","3","Test_1","70","f","1","633.1000000000931","1920 x 1080","1920 x 1080","true","1","10","","","","",""
"null","<p style=""font-size: 80px;"">+ 10 points</p>","null","html-keyboard-response","25","300441","0.0-11.0-2.24","5981b3289bf4fe0001070aea","aajv8r","DC","35","F","{""name"":""Chrome"",""chrome"":true,""version"":""106.0"",""blink"":true,""windows"":true,""osname"":""Windows"",""osversion"":""10"",""a"":true}","9:14:4","1","3","Test_2","74","j","1","567.3000000000466","1920 x 1080","1920 x 1080","true","1","10","","","","",""
"null","<p style=""font-size: 80px;"">+ 10 points</p>","null","html-keyboard-response","26","304654","0.0-11.0-2.25","5981b3289bf4fe0001070aea","aajv8r","DC","35","F","{""name"":""Chrome"",""chrome"":true,""version"":""106.0"",""blink"":true,""windows"":true,""osname"":""Windows"",""osversion"":""10"",""a"":true}","9:14:4","1","3","Test_3","70","f","1","2205","1920 x 1080","1920 x 1080","true","1","10","","","","",""
"null","<p style=""font-size: 80px;"">+ 10 points</p>","null","html-keyboard-response","27","307521","0.0-11.0-2.26","5981b3289bf4fe0001070aea","aajv8r","DC","35","F","{""name"":""Chrome"",""chrome"":true,""version"":""106.0"",""blink"":true,""windows"":true,""osname"":""Windows"",""osversion"":""10"",""a"":true}","9:14:4","1","3","Test_2","74","j","1","847.1000000000931","1920 x 1080","1920 x 1080","true","1","10","","","","",""
"null","<p style=""font-size: 80px;"">+ 10 points</p>","null","html-keyboard-response","28","310041","0.0-11.0-2.27","5981b3289bf4fe0001070aea","aajv8r","DC","35","F","{""name"":""Chrome"",""chrome"":true,""version"":""106.0"",""blink"":true,""windows"":true,""osname"":""Windows"",""osversion"":""10"",""a"":true}","9:14:4","1","3","Test_4","74","j","1","505.4000000001397","1920 x 1080","1920 x 1080","true","1","10","","","","",""
"null","<p style=""font-size: 80px;"">+ 10 points</p>","null","html-keyboard-response","29","312678","0.0-11.0-2.28","5981b3289bf4fe0001070aea","aajv8r","DC","35","F","{""name"":""Chrome"",""chrome"":true,""version"":""106.0"",""blink"":true,""windows"":true,""osname"":""Windows"",""osversion"":""10"",""a"":true}","9:14:4","1","3","Test_4","74","j","1","615.9000000001397","1920 x 1080","1920 x 1080","true","1","10","","","","",""
"null","<p style=""font-size: 80px;"">+ 10 points</p>","null","html-keyboard-response","30","319626","0.0-11.0-2.29","5981b3289bf4fe0001070aea","aajv8r","DC","35","F","{""name"":""Chrome"",""chrome"":true,""version"":""106.0"",""blink"":true,""windows"":true,""osname"":""Windows"",""osversion"":""10"",""a"":true}","9:14:4","1","3","Test_2","74","j","1","4931.699999999953","1920 x 1080","1920 x 1080","true","1","10","","","","",""
"null","<p style=""font-size: 80px;"">+ 10 points</p>","null","html-keyboard-response","31","324071","0.0-11.0-2.30","5981b3289bf4fe0001070aea","aajv8r","DC","35","F","{""name"":""Chrome"",""chrome"":true,""version"":""106.0"",""blink"":true,""windows"":true,""osname"":""Windows"",""osversion"":""10"",""a"":true}","9:14:4","1","3","Test_3","70","f","1","2429.1999999999534","1920 x 1080","1920 x 1080","true","1","10","","","","",""
"null","<p style=""font-size: 80px;"">+ 10 points</p>","null","html-keyboard-response","32","328170","0.0-11.0-2.31","5981b3289bf4fe0001070aea","aajv8r","DC","35","F","{""name"":""Chrome"",""chrome"":true,""version"":""106.0"",""blink"":true,""windows"":true,""osname"":""Windows"",""osversion"":""10"",""a"":true}","9:14:4","1","3","Test_2","74","j","1","2083.3000000000466","1920 x 1080","1920 x 1080","true","1","10","","","","",""
"null","<p style=""font-size: 80px;"">+ 10 points</p>","null","html-keyboard-response","33","331326","0.0-11.0-2.32","5981b3289bf4fe0001070aea","aajv8r","DC","35","F","{""name"":""Chrome"",""chrome"":true,""version"":""106.0"",""blink"":true,""windows"":true,""osname"":""Windows"",""osversion"":""10"",""a"":true}","9:14:4","1","3","Test_4","74","j","1","1123.3999999999069","1920 x 1080","1920 x 1080","true","1","10","","","","",""
"null","<p style=""font-size: 80px;"">+ 10 points</p>","null","html-keyboard-response","34","334076","0.0-11.0-2.33","5981b3289bf4fe0001070aea","aajv8r","DC","35","F","{""name"":""Chrome"",""chrome"":true,""version"":""106.0"",""blink"":true,""windows"":true,""osname"":""Windows"",""osversion"":""10"",""a"":true}","9:14:4","1","3","Test_1","70","f","1","725.3000000000466","1920 x 1080","1920 x 1080","true","1","10","","","","",""
"null","<p style=""font-size: 80px;"">+ 10 points</p>","null","html-keyboard-response","35","336912","0.0-11.0-2.34","5981b3289bf4fe0001070aea","aajv8r","DC","35","F","{""name"":""Chrome"",""chrome"":true,""version"":""106.0"",""blink"":true,""windows"":true,""osname"":""Windows"",""osversion"":""10"",""a"":true}","9:14:4","1","3","Test_1","70","f","1","826.3000000000466","1920 x 1080","1920 x 1080","true","1","10","","","","",""
"null","<p style=""font-size: 80px;"">+ 10 points</p>","null","html-keyboard-response","36","339899","0.0-11.0-2.35","5981b3289bf4fe0001070aea","aajv8r","DC","35","F","{""name"":""Chrome"",""chrome"":true,""version"":""106.0"",""blink"":true,""windows"":true,""osname"":""Windows"",""osversion"":""10"",""a"":true}","9:14:4","1","3","Test_4","74","j","1","967","1920 x 1080","1920 x 1080","true","1","10","","","","",""
"null","<p style=""font-size: 80px;"">+ 10 points</p>","null","html-keyboard-response","37","343453","0.0-11.0-2.36","5981b3289bf4fe0001070aea","aajv8r","DC","35","F","{""name"":""Chrome"",""chrome"":true,""version"":""106.0"",""blink"":true,""windows"":true,""osname"":""Windows"",""osversion"":""10"",""a"":true}","9:14:4","1","3","Test_3","70","f","1","1525.6999999999534","1920 x 1080","1920 x 1080","true","1","10","","","","",""
"null","<p style=""font-size: 80px;"">+ 10 points</p>","null","html-keyboard-response","38","346745","0.0-11.0-2.37","5981b3289bf4fe0001070aea","aajv8r","DC","35","F","{""name"":""Chrome"",""chrome"":true,""version"":""106.0"",""blink"":true,""windows"":true,""osname"":""Windows"",""osversion"":""10"",""a"":true}","9:14:4","1","3","Test_3","70","f","1","1273.6999999999534","1920 x 1080","1920 x 1080","true","1","10","","","","",""
"null","<p style=""font-size: 80px;"">+ 10 points</p>","null","html-keyboard-response","39","349686","0.0-11.0-2.38","5981b3289bf4fe0001070aea","aajv8r","DC","35","F","{""name"":""Chrome"",""chrome"":true,""version"":""106.0"",""blink"":true,""windows"":true,""osname"":""Windows"",""osversion"":""10"",""a"":true}","9:14:4","1","3","Test_1","70","f","1","912.0999999998603","1920 x 1080","1920 x 1080","true","1","10","","","","",""
"null","<p style=""font-size: 80px;"">+ 10 points</p>","null","html-keyboard-response","40","352541","0.0-11.0-2.39","5981b3289bf4fe0001070aea","aajv8r","DC","35","F","{""name"":""Chrome"",""chrome"":true,""version"":""106.0"",""blink"":true,""windows"":true,""osname"":""Windows"",""osversion"":""10"",""a"":true}","9:14:4","1","3","Test_1","70","f","1","841.4000000001397","1920 x 1080","1920 x 1080","true","1","10","","","","",""
"null","<p style=""font-size: 80px;"">+ 10 points</p>","null","html-keyboard-response","41","355203","0.0-11.0-2.40","5981b3289bf4fe0001070aea","aajv8r","DC","35","F","{""name"":""Chrome"",""chrome"":true,""version"":""106.0"",""blink"":true,""windows"":true,""osname"":""Windows"",""osversion"":""10"",""a"":true}","9:14:4","1","3","Test_4","74","j","1","630.1000000000931","1920 x 1080","1920 x 1080","true","1","10","","","","",""
"null","<p style=""font-size: 80px;"">+ 10 points</p>","null","html-keyboard-response","42","357832","0.0-11.0-2.41","5981b3289bf4fe0001070aea","aajv8r","DC","35","F","{""name"":""Chrome"",""chrome"":true,""version"":""106.0"",""blink"":true,""windows"":true,""osname"":""Windows"",""osversion"":""10"",""a"":true}","9:14:4","1","3","Test_4","74","j","1","612.4000000001397","1920 x 1080","1920 x 1080","true","1","10","","","","",""
"null","<p style=""font-size: 80px;"">+ 10 points</p>","null","html-keyboard-response","43","361966","0.0-11.0-2.42","5981b3289bf4fe0001070aea","aajv8r","DC","35","F","{""name"":""Chrome"",""chrome"":true,""version"":""106.0"",""blink"":true,""windows"":true,""osname"":""Windows"",""osversion"":""10"",""a"":true}","9:14:4","1","3","Test_2","74","j","1","2123.100000000093","1920 x 1080","1920 x 1080","true","1","10","","","","",""
"null","<p style=""font-size: 80px;"">+ 10 points</p>","null","html-keyboard-response","44","364544","0.0-11.0-2.43","5981b3289bf4fe0001070aea","aajv8r","DC","35","F","{""name"":""Chrome"",""chrome"":true,""version"":""106.0"",""blink"":true,""windows"":true,""osname"":""Windows"",""osversion"":""10"",""a"":true}","9:14:4","1","3","Test_3","70","f","1","565.6000000000931","1920 x 1080","1920 x 1080","true","1","10","","","","",""
"null","<p style=""font-size: 80px;"">+ 0 points</p>","null","html-keyboard-response","45","367290","0.0-11.0-2.44","5981b3289bf4fe0001070aea","aajv8r","DC","35","F","{""name"":""Chrome"",""chrome"":true,""version"":""106.0"",""blink"":true,""windows"":true,""osname"":""Windows"",""osversion"":""10"",""a"":true}","9:14:4","1","4","Test_1","70","j","0","732.3000000000466","1920 x 1080","1920 x 1080","true","1","0","","","","",""
"null","<p style=""font-size: 80px;"">+ 10 points</p>","null","html-keyboard-response","46","371700","0.0-11.0-2.45","5981b3289bf4fe0001070aea","aajv8r","DC","35","F","{""name"":""Chrome"",""chrome"":true,""version"":""106.0"",""blink"":true,""windows"":true,""osname"":""Windows"",""osversion"":""10"",""a"":true}","9:14:4","1","4","Test_4","70","f","1","2392.5","1920 x 1080","1920 x 1080","true","1","10","","","","",""
"null","<p style=""font-size: 80px;"">+ 10 points</p>","null","html-keyboard-response","47","374714","0.0-11.0-2.46","5981b3289bf4fe0001070aea","aajv8r","DC","35","F","{""name"":""Chrome"",""chrome"":true,""version"":""106.0"",""blink"":true,""windows"":true,""osname"":""Windows"",""osversion"":""10"",""a"":true}","9:14:4","1","4","Test_4","70","f","1","998","1920 x 1080","1920 x 1080","true","1","10","","","","",""
"null","<p style=""font-size: 80px;"">+ 10 points</p>","null","html-keyboard-response","48","377595","0.0-11.0-2.47","5981b3289bf4fe0001070aea","aajv8r","DC","35","F","{""name"":""Chrome"",""chrome"":true,""version"":""106.0"",""blink"":true,""windows"":true,""osname"":""Windows"",""osversion"":""10"",""a"":true}","9:14:4","1","4","Test_1","74","j","1","860.0999999998603","1920 x 1080","1920 x 1080","true","1","10","","","","",""
"null","<p style=""font-size: 80px;"">+ 10 points</p>","null","html-keyboard-response","49","380834","0.0-11.0-2.48","5981b3289bf4fe0001070aea","aajv8r","DC","35","F","{""name"":""Chrome"",""chrome"":true,""version"":""106.0"",""blink"":true,""windows"":true,""osname"":""Windows"",""osversion"":""10"",""a"":true}","9:14:4","1","4","Test_2","70","f","1","1223.5","1920 x 1080","1920 x 1080","true","1","10","","","","",""
"null","<p style=""font-size: 80px;"">+ 10 points</p>","null","html-keyboard-response","50","383720","0.0-11.0-2.49","5981b3289bf4fe0001070aea","aajv8r","DC","35","F","{""name"":""Chrome"",""chrome"":true,""version"":""106.0"",""blink"":true,""windows"":true,""osname"":""Windows"",""osversion"":""10"",""a"":true}","9:14:4","1","4","Test_2","70","f","1","869","1920 x 1080","1920 x 1080","true","1","10","","","","",""
"null","<p style=""font-size: 80px;"">+ 10 points</p>","null","html-keyboard-response","51","386654","0.0-11.0-2.50","5981b3289bf4fe0001070aea","aajv8r","DC","35","F","{""name"":""Chrome"",""chrome"":true,""version"":""106.0"",""blink"":true,""windows"":true,""osname"":""Windows"",""osversion"":""10"",""a"":true}","9:14:4","1","4","Test_4","70","f","1","917.8999999999069","1920 x 1080","1920 x 1080","true","1","10","","","","",""
"null","<p style=""font-size: 80px;"">+ 10 points</p>","null","html-keyboard-response","52","389360","0.0-11.0-2.51","5981b3289bf4fe0001070aea","aajv8r","DC","35","F","{""name"":""Chrome"",""chrome"":true,""version"":""106.0"",""blink"":true,""windows"":true,""osname"":""Windows"",""osversion"":""10"",""a"":true}","9:14:4","1","4","Test_4","70","f","1","690.8000000000466","1920 x 1080","1920 x 1080","true","1","10","","","","",""
"null","<p style=""font-size: 80px;"">+ 10 points</p>","null","html-keyboard-response","53","392010","0.0-11.0-2.52","5981b3289bf4fe0001070aea","aajv8r","DC","35","F","{""name"":""Chrome"",""chrome"":true,""version"":""106.0"",""blink"":true,""windows"":true,""osname"":""Windows"",""osversion"":""10"",""a"":true}","9:14:4","1","4","Test_3","74","j","1","632","1920 x 1080","1920 x 1080","true","1","10","","","","",""
"null","<p style=""font-size: 80px;"">+ 10 points</p>","null","html-keyboard-response","54","394764","0.0-11.0-2.53","5981b3289bf4fe0001070aea","aajv8r","DC","35","F","{""name"":""Chrome"",""chrome"":true,""version"":""106.0"",""blink"":true,""windows"":true,""osname"":""Windows"",""osversion"":""10"",""a"":true}","9:14:4","1","4","Test_3","74","j","1","745.4000000001397","1920 x 1080","1920 x 1080","true","1","10","","","","",""
"null","<p style=""font-size: 80px;"">+ 10 points</p>","null","html-keyboard-response","55","397579","0.0-11.0-2.54","5981b3289bf4fe0001070aea","aajv8r","DC","35","F","{""name"":""Chrome"",""chrome"":true,""version"":""106.0"",""blink"":true,""windows"":true,""osname"":""Windows"",""osversion"":""10"",""a"":true}","9:14:4","1","4","Test_3","74","j","1","807","1920 x 1080","1920 x 1080","true","1","10","","","","",""
"null","<p style=""font-size: 80px;"">+ 10 points</p>","null","html-keyboard-response","56","400579","0.0-11.0-2.55","5981b3289bf4fe0001070aea","aajv8r","DC","35","F","{""name"":""Chrome"",""chrome"":true,""version"":""106.0"",""blink"":true,""windows"":true,""osname"":""Windows"",""osversion"":""10"",""a"":true}","9:14:4","1","4","Test_1","74","j","1","978.5","1920 x 1080","1920 x 1080","true","1","10","","","","",""
"null","<p style=""font-size: 80px;"">+ 10 points</p>","null","html-keyboard-response","57","403202","0.0-11.0-2.56","5981b3289bf4fe0001070aea","aajv8r","DC","35","F","{""name"":""Chrome"",""chrome"":true,""version"":""106.0"",""blink"":true,""windows"":true,""osname"":""Windows"",""osversion"":""10"",""a"":true}","9:14:4","1","4","Test_4","70","f","1","607.8000000000466","1920 x 1080","1920 x 1080","true","1","10","","","","",""
"null","<p style=""font-size: 80px;"">+ 10 points</p>","null","html-keyboard-response","58","406226","0.0-11.0-2.57","5981b3289bf4fe0001070aea","aajv8r","DC","35","F","{""name"":""Chrome"",""chrome"":true,""version"":""106.0"",""blink"":true,""windows"":true,""osname"":""Windows"",""osversion"":""10"",""a"":true}","9:14:4","1","4","Test_3","74","j","1","1011.3000000000466","1920 x 1080","1920 x 1080","true","1","10","","","","",""
"null","<p style=""font-size: 80px;"">+ 10 points</p>","null","html-keyboard-response","59","408885","0.0-11.0-2.58","5981b3289bf4fe0001070aea","aajv8r","DC","35","F","{""name"":""Chrome"",""chrome"":true,""version"":""106.0"",""blink"":true,""windows"":true,""osname"":""Windows"",""osversion"":""10"",""a"":true}","9:14:4","1","4","Test_1","74","j","1","638.4000000001397","1920 x 1080","1920 x 1080","true","1","10","","","","",""
"null","<p style=""font-size: 80px;"">+ 10 points</p>","null","html-keyboard-response","60","411950","0.0-11.0-2.59","5981b3289bf4fe0001070aea","aajv8r","DC","35","F","{""name"":""Chrome"",""chrome"":true,""version"":""106.0"",""blink"":true,""windows"":true,""osname"":""Windows"",""osversion"":""10"",""a"":true}","9:14:4","1","4","Test_1","74","j","1","1038.6999999999534","1920 x 1080","1920 x 1080","true","1","10","","","","",""
"null","<p style=""font-size: 80px;"">+ 10 points</p>","null","html-keyboard-response","61","414875","0.0-11.0-2.60","5981b3289bf4fe0001070aea","aajv8r","DC","35","F","{""name"":""Chrome"",""chrome"":true,""version"":""106.0"",""blink"":true,""windows"":true,""osname"":""Windows"",""osversion"":""10"",""a"":true}","9:14:4","1","4","Test_3","74","j","1","916.2000000001863","1920 x 1080","1920 x 1080","true","1","10","","","","",""
"null","<p style=""font-size: 80px;"">+ 0 points</p>","null","html-keyboard-response","62","417519","0.0-11.0-2.61","5981b3289bf4fe0001070aea","aajv8r","DC","35","F","{""name"":""Chrome"",""chrome"":true,""version"":""106.0"",""blink"":true,""windows"":true,""osname"":""Windows"",""osversion"":""10"",""a"":true}","9:14:4","1","3","Test_4","70","j","0","627.5999999998603","1920 x 1080","1920 x 1080","true","1","0","","","","",""
"null","<p style=""font-size: 80px;"">+ 10 points</p>","null","html-keyboard-response","63","421414","0.0-11.0-2.62","5981b3289bf4fe0001070aea","aajv8r","DC","35","F","{""name"":""Chrome"",""chrome"":true,""version"":""106.0"",""blink"":true,""windows"":true,""osname"":""Windows"",""osversion"":""10"",""a"":true}","9:14:4","1","3","Test_2","74","j","1","1882.3000000000466","1920 x 1080","1920 x 1080","true","1","10","","","","",""
"null","<p style=""font-size: 80px;"">+ 10 points</p>","null","html-keyboard-response","64","424219","0.0-11.0-2.63","5981b3289bf4fe0001070aea","aajv8r","DC","35","F","{""name"":""Chrome"",""chrome"":true,""version"":""106.0"",""blink"":true,""windows"":true,""osname"":""Windows"",""osversion"":""10"",""a"":true}","9:14:4","1","3","Test_4","74","j","1","789.7999999998137","1920 x 1080","1920 x 1080","true","1","10","","","","",""
"null","<p style=""font-size: 80px;"">+ 10 points</p>","null","html-keyboard-response","65","427457","0.0-11.0-2.64","5981b3289bf4fe0001070aea","aajv8r","DC","35","F","{""name"":""Chrome"",""chrome"":true,""version"":""106.0"",""blink"":true,""windows"":true,""osname"":""Windows"",""osversion"":""10"",""a"":true}","9:14:4","1","3","Test_3","70","f","1","1464.8999999999069","1920 x 1080","1920 x 1080","true","1","10","","","","",""
"null","<p style=""font-size: 80px;"">+ 10 points</p>","null","html-keyboard-response","66","430247","0.0-11.0-2.65","5981b3289bf4fe0001070aea","aajv8r","DC","35","F","{""name"":""Chrome"",""chrome"":true,""version"":""106.0"",""blink"":true,""windows"":true,""osname"":""Windows"",""osversion"":""10"",""a"":true}","9:14:4","1","3","Test_1","70","f","1","767.4000000001397","1920 x 1080","1920 x 1080","true","1","10","","","","",""
"null","<p style=""font-size: 80px;"">+ 10 points</p>","null","html-keyboard-response","67","433047","0.0-11.0-2.66","5981b3289bf4fe0001070aea","aajv8r","DC","35","F","{""name"":""Chrome"",""chrome"":true,""version"":""106.0"",""blink"":true,""windows"":true,""osname"":""Windows"",""osversion"":""10"",""a"":true}","9:14:4","1","3","Test_4","74","j","1","783.1000000000931","1920 x 1080","1920 x 1080","true","1","10","","","","",""
"null","<p style=""font-size: 80px;"">+ 10 points</p>","null","html-keyboard-response","68","436696","0.0-11.0-2.67","5981b3289bf4fe0001070aea","aajv8r","DC","35","F","{""name"":""Chrome"",""chrome"":true,""version"":""106.0"",""blink"":true,""windows"":true,""osname"":""Windows"",""osversion"":""10"",""a"":true}","9:14:4","1","3","Test_2","74","j","1","1635","1920 x 1080","1920 x 1080","true","1","10","","","","",""
"null","<p style=""font-size: 80px;"">+ 10 points</p>","null","html-keyboard-response","69","439327","0.0-11.0-2.68","5981b3289bf4fe0001070aea","aajv8r","DC","35","F","{""name"":""Chrome"",""chrome"":true,""version"":""106.0"",""blink"":true,""windows"":true,""osname"":""Windows"",""osversion"":""10"",""a"":true}","9:14:4","1","3","Test_1","70","f","1","614.3999999999069","1920 x 1080","1920 x 1080","true","1","10","","","","",""
"null","<p style=""font-size: 80px;"">+ 10 points</p>","null","html-keyboard-response","70","441887","0.0-11.0-2.69","5981b3289bf4fe0001070aea","aajv8r","DC","35","F","{""name"":""Chrome"",""chrome"":true,""version"":""106.0"",""blink"":true,""windows"":true,""osname"":""Windows"",""osversion"":""10"",""a"":true}","9:14:4","1","3","Test_1","70","f","1","538.6000000000931","1920 x 1080","1920 x 1080","true","1","10","","","","",""
"null","<p style=""font-size: 80px;"">+ 10 points</p>","null","html-keyboard-response","71","445387","0.0-11.0-2.70","5981b3289bf4fe0001070aea","aajv8r","DC","35","F","{""name"":""Chrome"",""chrome"":true,""version"":""106.0"",""blink"":true,""windows"":true,""osname"":""Windows"",""osversion"":""10"",""a"":true}","9:14:4","1","3","Test_3","70","f","1","1483.5999999998603","1920 x 1080","1920 x 1080","true","1","10","","","","",""
"null","<p style=""font-size: 80px;"">+ 10 points</p>","null","html-keyboard-response","72","448247","0.0-11.0-2.71","5981b3289bf4fe0001070aea","aajv8r","DC","35","F","{""name"":""Chrome"",""chrome"":true,""version"":""106.0"",""blink"":true,""windows"":true,""osname"":""Windows"",""osversion"":""10"",""a"":true}","9:14:4","1","3","Test_4","74","j","1","829.2999999998137","1920 x 1080","1920 x 1080","true","1","10","","","","",""
"null","<p style=""font-size: 80px;"">+ 10 points</p>","null","html-keyboard-response","73","450897","0.0-11.0-2.72","5981b3289bf4fe0001070aea","aajv8r","DC","35","F","{""name"":""Chrome"",""chrome"":true,""version"":""106.0"",""blink"":true,""windows"":true,""osname"":""Windows"",""osversion"":""10"",""a"":true}","9:14:4","1","3","Test_4","74","j","1","625","1920 x 1080","1920 x 1080","true","1","10","","","","",""
"null","<p style=""font-size: 80px;"">+ 10 points</p>","null","html-keyboard-response","74","453539","0.0-11.0-2.73","5981b3289bf4fe0001070aea","aajv8r","DC","35","F","{""name"":""Chrome"",""chrome"":true,""version"":""106.0"",""blink"":true,""windows"":true,""osname"":""Windows"",""osversion"":""10"",""a"":true}","9:14:4","1","3","Test_2","74","j","1","622","1920 x 1080","1920 x 1080","true","1","10","","","","",""
"null","<p style=""font-size: 80px;"">+ 10 points</p>","null","html-keyboard-response","75","456227","0.0-11.0-2.74","5981b3289bf4fe0001070aea","aajv8r","DC","35","F","{""name"":""Chrome"",""chrome"":true,""version"":""106.0"",""blink"":true,""windows"":true,""osname"":""Windows"",""osversion"":""10"",""a"":true}","9:14:4","1","3","Test_4","74","j","1","671.6000000000931","1920 x 1080","1920 x 1080","true","1","10","","","","",""
"null","<p style=""font-size: 80px;"">+ 10 points</p>","null","html-keyboard-response","76","459567","0.0-11.0-2.75","5981b3289bf4fe0001070aea","aajv8r","DC","35","F","{""name"":""Chrome"",""chrome"":true,""version"":""106.0"",""blink"":true,""windows"":true,""osname"":""Windows"",""osversion"":""10"",""a"":true}","9:14:4","1","3","Test_2","74","j","1","1323.6999999999534","1920 x 1080","1920 x 1080","true","1","10","","","","",""
"null","<p style=""font-size: 80px;"">+ 10 points</p>","null","html-keyboard-response","77","462392","0.0-11.0-2.76","5981b3289bf4fe0001070aea","aajv8r","DC","35","F","{""name"":""Chrome"",""chrome"":true,""version"":""106.0"",""blink"":true,""windows"":true,""osname"":""Windows"",""osversion"":""10"",""a"":true}","9:14:4","1","3","Test_3","70","f","1","805.8999999999069","1920 x 1080","1920 x 1080","true","1","10","","","","",""
"null","<p style=""font-size: 80px;"">+ 10 points</p>","null","html-keyboard-response","78","465207","0.0-11.0-2.77","5981b3289bf4fe0001070aea","aajv8r","DC","35","F","{""name"":""Chrome"",""chrome"":true,""version"":""106.0"",""blink"":true,""windows"":true,""osname"":""Windows"",""osversion"":""10"",""a"":true}","9:14:4","1","3","Test_3","70","f","1","802.5999999998603","1920 x 1080","1920 x 1080","true","1","10","","","","",""
"null","<p style=""font-size: 80px;"">+ 10 points</p>","null","html-keyboard-response","79","468156","0.0-11.0-2.78","5981b3289bf4fe0001070aea","aajv8r","DC","35","F","{""name"":""Chrome"",""chrome"":true,""version"":""106.0"",""blink"":true,""windows"":true,""osname"":""Windows"",""osversion"":""10"",""a"":true}","9:14:4","1","3","Test_3","70","f","1","935.3000000000466","1920 x 1080","1920 x 1080","true","1","10","","","","",""
"null","<p style=""font-size: 80px;"">+ 10 points</p>","null","html-keyboard-response","80","470846","0.0-11.0-2.79","5981b3289bf4fe0001070aea","aajv8r","DC","35","F","{""name"":""Chrome"",""chrome"":true,""version"":""106.0"",""blink"":true,""windows"":true,""osname"":""Windows"",""osversion"":""10"",""a"":true}","9:14:4","1","3","Test_1","70","f","1","670.8000000000466","1920 x 1080","1920 x 1080","true","1","10","","","","",""
"null","<p style=""font-size: 80px;"">+ 10 points</p>","null","html-keyboard-response","81","473377","0.0-11.0-2.80","5981b3289bf4fe0001070aea","aajv8r","DC","35","F","{""name"":""Chrome"",""chrome"":true,""version"":""106.0"",""blink"":true,""windows"":true,""osname"":""Windows"",""osversion"":""10"",""a"":true}","9:14:4","1","3","Test_1","70","f","1","509.19999999995343","1920 x 1080","1920 x 1080","true","1","10","","","","",""
"null","<p style=""font-size: 80px;"">+ 10 points</p>","null","html-keyboard-response","82","475987","0.0-11.0-2.81","5981b3289bf4fe0001070aea","aajv8r","DC","35","F","{""name"":""Chrome"",""chrome"":true,""version"":""106.0"",""blink"":true,""windows"":true,""osname"":""Windows"",""osversion"":""10"",""a"":true}","9:14:4","1","3","Test_2","74","j","1","596.5","1920 x 1080","1920 x 1080","true","1","10","","","","",""
"null","<p style=""font-size: 80px;"">+ 10 points</p>","null","html-keyboard-response","83","478542","0.0-11.0-2.82","5981b3289bf4fe0001070aea","aajv8r","DC","35","F","{""name"":""Chrome"",""chrome"":true,""version"":""106.0"",""blink"":true,""windows"":true,""osname"":""Windows"",""osversion"":""10"",""a"":true}","9:14:4","1","3","Test_1","70","f","1","540","1920 x 1080","1920 x 1080","true","1","10","","","","",""
"null","<p style=""font-size: 80px;"">+ 10 points</p>","null","html-keyboard-response","84","481237","0.0-11.0-2.83","5981b3289bf4fe0001070aea","aajv8r","DC","35","F","{""name"":""Chrome"",""chrome"":true,""version"":""106.0"",""blink"":true,""windows"":true,""osname"":""Windows"",""osversion"":""10"",""a"":true}","9:14:4","1","3","Test_3","70","f","1","686.8999999999069","1920 x 1080","1920 x 1080","true","1","10","","","","",""
"null","<p style=""font-size: 80px;"">+ 0 points</p>","null","html-keyboard-response","85","483887","0.0-11.0-2.84","5981b3289bf4fe0001070aea","aajv8r","DC","35","F","{""name"":""Chrome"",""chrome"":true,""version"":""106.0"",""blink"":true,""windows"":true,""osname"":""Windows"",""osversion"":""10"",""a"":true}","9:14:4","1","4","Test_2","74","f","0","634.8999999999069","1920 x 1080","1920 x 1080","true","1","0","","","","",""
"null","<p style=""font-size: 80px;"">+ 10 points</p>","null","html-keyboard-response","86","487052","0.0-11.0-2.85","5981b3289bf4fe0001070aea","aajv8r","DC","35","F","{""name"":""Chrome"",""chrome"":true,""version"":""106.0"",""blink"":true,""windows"":true,""osname"":""Windows"",""osversion"":""10"",""a"":true}","9:14:4","1","4","Test_4","70","f","1","1389.3000000000466","1920 x 1080","1920 x 1080","true","1","10","","","","",""
"null","<p style=""font-size: 80px;"">+ 10 points</p>","null","html-keyboard-response","87","489592","0.0-11.0-2.86","5981b3289bf4fe0001070aea","aajv8r","DC","35","F","{""name"":""Chrome"",""chrome"":true,""version"":""106.0"",""blink"":true,""windows"":true,""osname"":""Windows"",""osversion"":""10"",""a"":true}","9:14:4","1","4","Test_4","70","f","1","519.3999999999069","1920 x 1080","1920 x 1080","true","1","10","","","","",""
"null","<p style=""font-size: 80px;"">+ 10 points</p>","null","html-keyboard-response","88","493112","0.0-11.0-2.87","5981b3289bf4fe0001070aea","aajv8r","DC","35","F","{""name"":""Chrome"",""chrome"":true,""version"":""106.0"",""blink"":true,""windows"":true,""osname"":""Windows"",""osversion"":""10"",""a"":true}","9:14:4","1","4","Test_1","74","j","1","1506","1920 x 1080","1920 x 1080","true","1","10","","","","",""
"null","<p style=""font-size: 80px;"">+ 10 points</p>","null","html-keyboard-response","89","495822","0.0-11.0-2.88","5981b3289bf4fe0001070aea","aajv8r","DC","35","F","{""name"":""Chrome"",""chrome"":true,""version"":""106.0"",""blink"":true,""windows"":true,""osname"":""Windows"",""osversion"":""10"",""a"":true}","9:14:4","1","4","Test_2","70","f","1","696.2999999998137","1920 x 1080","1920 x 1080","true","1","10","","","","",""
"null","<p style=""font-size: 80px;"">+ 10 points</p>","null","html-keyboard-response","90","499452","0.0-11.0-2.89","5981b3289bf4fe0001070aea","aajv8r","DC","35","F","{""name"":""Chrome"",""chrome"":true,""version"":""106.0"",""blink"":true,""windows"":true,""osname"":""Windows"",""osversion"":""10"",""a"":true}","9:14:4","1","4","Test_2","70","f","1","1608.5","1920 x 1080","1920 x 1080","true","1","10","","","","",""
"null","<p style=""font-size: 80px;"">+ 10 points</p>","null","html-keyboard-response","91","502042","0.0-11.0-2.90","5981b3289bf4fe0001070aea","aajv8r","DC","35","F","{""name"":""Chrome"",""chrome"":true,""version"":""106.0"",""blink"":true,""windows"":true,""osname"":""Windows"",""osversion"":""10"",""a"":true}","9:14:4","1","4","Test_1","74","j","1","582.4000000001397","1920 x 1080","1920 x 1080","true","1","10","","","","",""
"null","<p style=""font-size: 80px;"">+ 10 points</p>","null","html-keyboard-response","92","504722","0.0-11.0-2.91","5981b3289bf4fe0001070aea","aajv8r","DC","35","F","{""name"":""Chrome"",""chrome"":true,""version"":""106.0"",""blink"":true,""windows"":true,""osname"":""Windows"",""osversion"":""10"",""a"":true}","9:14:4","1","4","Test_3","74","j","1","664.5999999998603","1920 x 1080","1920 x 1080","true","1","10","","","","",""
"null","<p style=""font-size: 80px;"">+ 10 points</p>","null","html-keyboard-response","93","507672","0.0-11.0-2.92","5981b3289bf4fe0001070aea","aajv8r","DC","35","F","{""name"":""Chrome"",""chrome"":true,""version"":""106.0"",""blink"":true,""windows"":true,""osname"":""Windows"",""osversion"":""10"",""a"":true}","9:14:4","1","4","Test_3","74","j","1","933.7999999998137","1920 x 1080","1920 x 1080","true","1","10","","","","",""
"null","<p style=""font-size: 80px;"">+ 10 points</p>","null","html-keyboard-response","94","510392","0.0-11.0-2.93","5981b3289bf4fe0001070aea","aajv8r","DC","35","F","{""name"":""Chrome"",""chrome"":true,""version"":""106.0"",""blink"":true,""windows"":true,""osname"":""Windows"",""osversion"":""10"",""a"":true}","9:14:4","1","4","Test_1","74","j","1","702.1000000000931","1920 x 1080","1920 x 1080","true","1","10","","","","",""
"null","<p style=""font-size: 80px;"">+ 0 points</p>","null","html-keyboard-response","95","513912","0.0-11.0-2.94","5981b3289bf4fe0001070aea","aajv8r","DC","35","F","{""name"":""Chrome"",""chrome"":true,""version"":""106.0"",""blink"":true,""windows"":true,""osname"":""Windows"",""osversion"":""10"",""a"":true}","9:14:4","1","4","Test_3","70","j","0","1502.7000000001863","1920 x 1080","1920 x 1080","true","1","0","","","","",""
"null","<p style=""font-size: 80px;"">+ 0 points</p>","null","html-keyboard-response","96","516899","0.0-11.0-2.95","5981b3289bf4fe0001070aea","aajv8r","DC","35","F","{""name"":""Chrome"",""chrome"":true,""version"":""106.0"",""blink"":true,""windows"":true,""osname"":""Windows"",""osversion"":""10"",""a"":true}","9:14:4","1","4","Test_2","74","f","0","964.1000000000931","1920 x 1080","1920 x 1080","true","1","0","","","","",""
"null","<p style=""font-size: 80px;"">+ 10 points</p>","null","html-keyboard-response","97","519472","0.0-11.0-2.96","5981b3289bf4fe0001070aea","aajv8r","DC","35","F","{""name"":""Chrome"",""chrome"":true,""version"":""106.0"",""blink"":true,""windows"":true,""osname"":""Windows"",""osversion"":""10"",""a"":true}","9:14:4","1","4","Test_4","70","f","1","552.8999999999069","1920 x 1080","1920 x 1080","true","1","10","","","","",""
"null","<p style=""font-size: 80px;"">+ 10 points</p>","null","html-keyboard-response","98","522072","0.0-11.0-2.97","5981b3289bf4fe0001070aea","aajv8r","DC","35","F","{""name"":""Chrome"",""chrome"":true,""version"":""106.0"",""blink"":true,""windows"":true,""osname"":""Windows"",""osversion"":""10"",""a"":true}","9:14:4","1","4","Test_4","70","f","1","578.6000000000931","1920 x 1080","1920 x 1080","true","1","10","","","","",""
"null","<p style=""font-size: 80px;"">+ 10 points</p>","null","html-keyboard-response","99","525532","0.0-11.0-2.98","5981b3289bf4fe0001070aea","aajv8r","DC","35","F","{""name"":""Chrome"",""chrome"":true,""version"":""106.0"",""blink"":true,""windows"":true,""osname"":""Windows"",""osversion"":""10"",""a"":true}","9:14:4","1","4","Test_3","74","j","1","1442","1920 x 1080","1920 x 1080","true","1","10","","","","",""
"null","<p style=""font-size: 80px;"">+ 10 points</p>","null","html-keyboard-response","100","528222","0.0-11.0-2.99","5981b3289bf4fe0001070aea","aajv8r","DC","35","F","{""name"":""Chrome"",""chrome"":true,""version"":""106.0"",""blink"":true,""windows"":true,""osname"":""Windows"",""osversion"":""10"",""a"":true}","9:14:4","1","4","Test_1","74","j","1","660.5","1920 x 1080","1920 x 1080","true","1","10","","","","",""
"null","<p style=""font-size: 80px;"">+ 0 points</p>","null","html-keyboard-response","101","531022","0.0-11.0-2.100","5981b3289bf4fe0001070aea","aajv8r","DC","35","F","{""name"":""Chrome"",""chrome"":true,""version"":""106.0"",""blink"":true,""windows"":true,""osname"":""Windows"",""osversion"":""10"",""a"":true}","9:14:4","1","3","Test_4","70","j","0","779.4000000001397","1920 x 1080","1920 x 1080","true","1","0","","","","",""
"null","<p style=""font-size: 80px;"">+ 10 points</p>","null","html-keyboard-response","102","534852","0.0-11.0-2.101","5981b3289bf4fe0001070aea","aajv8r","DC","35","F","{""name"":""Chrome"",""chrome"":true,""version"":""106.0"",""blink"":true,""windows"":true,""osname"":""Windows"",""osversion"":""10"",""a"":true}","9:14:4","1","3","Test_2","74","j","1","1808.0999999998603","1920 x 1080","1920 x 1080","true","1","10","","","","",""
"null","<p style=""font-size: 80px;"">+ 10 points</p>","null","html-keyboard-response","103","537531","0.0-11.0-2.102","5981b3289bf4fe0001070aea","aajv8r","DC","35","F","{""name"":""Chrome"",""chrome"":true,""version"":""106.0"",""blink"":true,""windows"":true,""osname"":""Windows"",""osversion"":""10"",""a"":true}","9:14:4","1","3","Test_1","70","f","1","660.3999999999069","1920 x 1080","1920 x 1080","true","1","10","","","","",""
"null","<p style=""font-size: 80px;"">+ 10 points</p>","null","html-keyboard-response","104","540198","0.0-11.0-2.103","5981b3289bf4fe0001070aea","aajv8r","DC","35","F","{""name"":""Chrome"",""chrome"":true,""version"":""106.0"",""blink"":true,""windows"":true,""osname"":""Windows"",""osversion"":""10"",""a"":true}","9:14:4","1","3","Test_4","74","j","1","652.3000000000466","1920 x 1080","1920 x 1080","true","1","10","","","","",""
"null","<p style=""font-size: 80px;"">+ 10 points</p>","null","html-keyboard-response","105","542872","0.0-11.0-2.104","5981b3289bf4fe0001070aea","aajv8r","DC","35","F","{""name"":""Chrome"",""chrome"":true,""version"":""106.0"",""blink"":true,""windows"":true,""osname"":""Windows"",""osversion"":""10"",""a"":true}","9:14:4","1","3","Test_4","74","j","1","667.1000000000931","1920 x 1080","1920 x 1080","true","1","10","","","","",""
"null","<p style=""font-size: 80px;"">+ 10 points</p>","null","html-keyboard-response","106","545412","0.0-11.0-2.105","5981b3289bf4fe0001070aea","aajv8r","DC","35","F","{""name"":""Chrome"",""chrome"":true,""version"":""106.0"",""blink"":true,""windows"":true,""osname"":""Windows"",""osversion"":""10"",""a"":true}","9:14:4","1","3","Test_3","70","f","1","520.5","1920 x 1080","1920 x 1080","true","1","10","","","","",""
"null","<p style=""font-size: 80px;"">+ 10 points</p>","null","html-keyboard-response","107","548291","0.0-11.0-2.106","5981b3289bf4fe0001070aea","aajv8r","DC","35","F","{""name"":""Chrome"",""chrome"":true,""version"":""106.0"",""blink"":true,""windows"":true,""osname"":""Windows"",""osversion"":""10"",""a"":true}","9:14:4","1","3","Test_2","74","j","1","1104.5","1920 x 1080","1920 x 1080","true","1","10","","","","",""
"null","<p style=""font-size: 80px;"">+ 10 points</p>","null","html-keyboard-response","108","550810","0.0-11.0-2.107","5981b3289bf4fe0001070aea","aajv8r","DC","35","F","{""name"":""Chrome"",""chrome"":true,""version"":""106.0"",""blink"":true,""windows"":true,""osname"":""Windows"",""osversion"":""10"",""a"":true}","9:14:4","1","3","Test_1","70","f","1","501","1920 x 1080","1920 x 1080","true","1","10","","","","",""
"null","<p style=""font-size: 80px;"">+ 10 points</p>","null","html-keyboard-response","109","553520","0.0-11.0-2.108","5981b3289bf4fe0001070aea","aajv8r","DC","35","F","{""name"":""Chrome"",""chrome"":true,""version"":""106.0"",""blink"":true,""windows"":true,""osname"":""Windows"",""osversion"":""10"",""a"":true}","9:14:4","1","3","Test_3","70","f","1","698.1999999999534","1920 x 1080","1920 x 1080","true","1","10","","","","",""
"null","<p style=""font-size: 80px;"">+ 10 points</p>","null","html-keyboard-response","110","593771","0.0-11.0-2.109","5981b3289bf4fe0001070aea","aajv8r","DC","35","F","{""name"":""Chrome"",""chrome"":true,""version"":""106.0"",""blink"":true,""windows"":true,""osname"":""Windows"",""osversion"":""10"",""a"":true}","9:14:4","1","3","Test_3","70","f","1","3553.399999999907","1920 x 1080","1920 x 1080","true","1","10","","","","",""
"null","<p style=""font-size: 80px;"">+ 10 points</p>","null","html-keyboard-response","111","596360","0.0-11.0-2.110","5981b3289bf4fe0001070aea","aajv8r","DC","35","F","{""name"":""Chrome"",""chrome"":true,""version"":""106.0"",""blink"":true,""windows"":true,""osname"":""Windows"",""osversion"":""10"",""a"":true}","9:14:4","1","3","Test_1","70","f","1","570.3999999999069","1920 x 1080","1920 x 1080","true","1","10","","","","",""
"null","<p style=""font-size: 80px;"">+ 10 points</p>","null","html-keyboard-response","112","600763","0.0-11.0-2.111","5981b3289bf4fe0001070aea","aajv8r","DC","35","F","{""name"":""Chrome"",""chrome"":true,""version"":""106.0"",""blink"":true,""windows"":true,""osname"":""Windows"",""osversion"":""10"",""a"":true}","9:14:4","1","3","Test_2","74","j","1","2381.1999999999534","1920 x 1080","1920 x 1080","true","1","10","","","","",""
"null","<p style=""font-size: 80px;"">+ 10 points</p>","null","html-keyboard-response","113","603401","0.0-11.0-2.112","5981b3289bf4fe0001070aea","aajv8r","DC","35","F","{""name"":""Chrome"",""chrome"":true,""version"":""106.0"",""blink"":true,""windows"":true,""osname"":""Windows"",""osversion"":""10"",""a"":true}","9:14:4","1","3","Test_2","74","j","1","619.1999999999534","1920 x 1080","1920 x 1080","true","1","10","","","","",""
"null","<p style=""font-size: 80px;"">+ 10 points</p>","null","html-keyboard-response","114","605931","0.0-11.0-2.113","5981b3289bf4fe0001070aea","aajv8r","DC","35","F","{""name"":""Chrome"",""chrome"":true,""version"":""106.0"",""blink"":true,""windows"":true,""osname"":""Windows"",""osversion"":""10"",""a"":true}","9:14:4","1","3","Test_2","74","j","1","506.5","1920 x 1080","1920 x 1080","true","1","10","","","","",""
"null","<p style=""font-size: 80px;"">+ 0 points</p>","null","html-keyboard-response","115","608068","0.0-11.0-2.114","5981b3289bf4fe0001070aea","aajv8r","DC","35","F","{""name"":""Chrome"",""chrome"":true,""version"":""106.0"",""blink"":true,""windows"":true,""osname"":""Windows"",""osversion"":""10"",""a"":true}","9:14:4","1","3","Test_4","70","j","0","366.30000000004657","1920 x 1080","1920 x 1080","true","1","0","","","","",""
"null","<p style=""font-size: 80px;"">+ 10 points</p>","null","html-keyboard-response","116","610838","0.0-11.0-2.115","5981b3289bf4fe0001070aea","aajv8r","DC","35","F","{""name"":""Chrome"",""chrome"":true,""version"":""106.0"",""blink"":true,""windows"":true,""osname"":""Windows"",""osversion"":""10"",""a"":true}","9:14:4","1","3","Test_3","70","f","1","746.6000000000931","1920 x 1080","1920 x 1080","true","1","10","","","","",""
"null","<p style=""font-size: 80px;"">+ 10 points</p>","null","html-keyboard-response","117","613578","0.0-11.0-2.116","5981b3289bf4fe0001070aea","aajv8r","DC","35","F","{""name"":""Chrome"",""chrome"":true,""version"":""106.0"",""blink"":true,""windows"":true,""osname"":""Windows"",""osversion"":""10"",""a"":true}","9:14:4","1","3","Test_1","70","f","1","724.1999999999534","1920 x 1080","1920 x 1080","true","1","10","","","","",""
"null","<p style=""font-size: 80px;"">+ 10 points</p>","null","html-keyboard-response","118","616568","0.0-11.0-2.117","5981b3289bf4fe0001070aea","aajv8r","DC","35","F","{""name"":""Chrome"",""chrome"":true,""version"":""106.0"",""blink"":true,""windows"":true,""osname"":""Windows"",""osversion"":""10"",""a"":true}","9:14:4","1","3","Test_1","70","f","1","978.3000000000466","1920 x 1080","1920 x 1080","true","1","10","","","","",""
"null","<p style=""font-size: 80px;"">+ 0 points</p>","null","html-keyboard-response","119","619498","0.0-11.0-2.118","5981b3289bf4fe0001070aea","aajv8r","DC","35","F","{""name"":""Chrome"",""chrome"":true,""version"":""106.0"",""blink"":true,""windows"":true,""osname"":""Windows"",""osversion"":""10"",""a"":true}","9:14:4","1","3","Test_3","74","f","0","915.8999999999069","1920 x 1080","1920 x 1080","true","1","0","","","","",""
"null","<p style=""font-size: 80px;"">+ 0 points</p>","null","html-keyboard-response","120","624498","0.0-11.0-2.119","5981b3289bf4fe0001070aea","aajv8r","DC","35","F","{""name"":""Chrome"",""chrome"":true,""version"":""106.0"",""blink"":true,""windows"":true,""osname"":""Windows"",""osversion"":""10"",""a"":true}","9:14:4","1","3","Test_2","70","j","0","2981.3000000000466","1920 x 1080","1920 x 1080","true","1","0","","","","",""
"null","<p style=""font-size: 80px;"">+ 10 points</p>","null","html-keyboard-response","121","627198","0.0-11.0-2.120","5981b3289bf4fe0001070aea","aajv8r","DC","35","F","{""name"":""Chrome"",""chrome"":true,""version"":""106.0"",""blink"":true,""windows"":true,""osname"":""Windows"",""osversion"":""10"",""a"":true}","9:14:4","1","3","Test_4","74","j","1","678.6999999999534","1920 x 1080","1920 x 1080","true","1","10","","","","",""
"null","<p style=""font-size: 80px;"">+ 0 points</p>","null","html-keyboard-response","122","629963","0.0-11.0-2.121","5981b3289bf4fe0001070aea","aajv8r","DC","35","F","{""name"":""Chrome"",""chrome"":true,""version"":""106.0"",""blink"":true,""windows"":true,""osname"":""Windows"",""osversion"":""10"",""a"":true}","9:14:4","1","3","Test_1","74","f","0","744.8999999999069","1920 x 1080","1920 x 1080","true","1","0","","","","",""
"null","<p style=""font-size: 80px;"">+ 10 points</p>","null","html-keyboard-response","123","633848","0.0-11.0-2.122","5981b3289bf4fe0001070aea","aajv8r","DC","35","F","{""name"":""Chrome"",""chrome"":true,""version"":""106.0"",""blink"":true,""windows"":true,""osname"":""Windows"",""osversion"":""10"",""a"":true}","9:14:4","1","3","Test_3","70","f","1","1870.1000000000931","1920 x 1080","1920 x 1080","true","1","10","","","","",""
"null","<p style=""font-size: 80px;"">+ 10 points</p>","null","html-keyboard-response","124","636458","0.0-11.0-2.123","5981b3289bf4fe0001070aea","aajv8r","DC","35","F","{""name"":""Chrome"",""chrome"":true,""version"":""106.0"",""blink"":true,""windows"":true,""osname"":""Windows"",""osversion"":""10"",""a"":true}","9:14:4","1","3","Test_4","74","j","1","564.5","1920 x 1080","1920 x 1080","true","1","10","","","","",""
"null","<p style=""font-size: 80px;"">+ 0 points</p>","null","html-keyboard-response","125","639429","0.0-11.0-2.124","5981b3289bf4fe0001070aea","aajv8r","DC","35","F","{""name"":""Chrome"",""chrome"":true,""version"":""106.0"",""blink"":true,""windows"":true,""osname"":""Windows"",""osversion"":""10"",""a"":true}","9:14:4","1","4","Test_3","70","j","0","951.0999999998603","1920 x 1080","1920 x 1080","true","1","0","","","","",""
"null","<p style=""font-size: 80px;"">+ 10 points</p>","null","html-keyboard-response","126","643274","0.0-11.0-2.125","5981b3289bf4fe0001070aea","aajv8r","DC","35","F","{""name"":""Chrome"",""chrome"":true,""version"":""106.0"",""blink"":true,""windows"":true,""osname"":""Windows"",""osversion"":""10"",""a"":true}","9:14:4","1","4","Test_4","70","f","1","1826.8999999999069","1920 x 1080","1920 x 1080","true","1","10","","","","",""
"null","<p style=""font-size: 80px;"">+ 10 points</p>","null","html-keyboard-response","127","646668","0.0-11.0-2.126","5981b3289bf4fe0001070aea","aajv8r","DC","35","F","{""name"":""Chrome"",""chrome"":true,""version"":""106.0"",""blink"":true,""windows"":true,""osname"":""Windows"",""osversion"":""10"",""a"":true}","9:14:4","1","4","Test_3","74","j","1","1373.2000000001863","1920 x 1080","1920 x 1080","true","1","10","","","","",""
"null","<p style=""font-size: 80px;"">+ 10 points</p>","null","html-keyboard-response","128","649399","0.0-11.0-2.127","5981b3289bf4fe0001070aea","aajv8r","DC","35","F","{""name"":""Chrome"",""chrome"":true,""version"":""106.0"",""blink"":true,""windows"":true,""osname"":""Windows"",""osversion"":""10"",""a"":true}","9:14:4","1","4","Test_4","70","f","1","712.1999999999534","1920 x 1080","1920 x 1080","true","1","10","","","","",""
"null","<p style=""font-size: 80px;"">+ 10 points</p>","null","html-keyboard-response","129","652298","0.0-11.0-2.128","5981b3289bf4fe0001070aea","aajv8r","DC","35","F","{""name"":""Chrome"",""chrome"":true,""version"":""106.0"",""blink"":true,""windows"":true,""osname"":""Windows"",""osversion"":""10"",""a"":true}","9:14:4","1","4","Test_2","70","f","1","886.8000000000466","1920 x 1080","1920 x 1080","true","1","10","","","","",""
"null","<p style=""font-size: 80px;"">+ 10 points</p>","null","html-keyboard-response","130","654888","0.0-11.0-2.129","5981b3289bf4fe0001070aea","aajv8r","DC","35","F","{""name"":""Chrome"",""chrome"":true,""version"":""106.0"",""blink"":true,""windows"":true,""osname"":""Windows"",""osversion"":""10"",""a"":true}","9:14:4","1","4","Test_1","74","j","1","566.8000000000466","1920 x 1080","1920 x 1080","true","1","10","","","","",""
"null","<p style=""font-size: 80px;"">+ 10 points</p>","null","html-keyboard-response","131","657718","0.0-11.0-2.130","5981b3289bf4fe0001070aea","aajv8r","DC","35","F","{""name"":""Chrome"",""chrome"":true,""version"":""106.0"",""blink"":true,""windows"":true,""osname"":""Windows"",""osversion"":""10"",""a"":true}","9:14:4","1","4","Test_2","70","f","1","814.6000000000931","1920 x 1080","1920 x 1080","true","1","10","","","","",""
"null","<p style=""font-size: 80px;"">+ 10 points</p>","null","html-keyboard-response","132","660288","0.0-11.0-2.131","5981b3289bf4fe0001070aea","aajv8r","DC","35","F","{""name"":""Chrome"",""chrome"":true,""version"":""106.0"",""blink"":true,""windows"":true,""osname"":""Windows"",""osversion"":""10"",""a"":true}","9:14:4","1","4","Test_1","74","j","1","548.2999999998137","1920 x 1080","1920 x 1080","true","1","10","","","","",""
"null","<p style=""font-size: 80px;"">+ 10 points</p>","null","html-keyboard-response","133","663088","0.0-11.0-2.132","5981b3289bf4fe0001070aea","aajv8r","DC","35","F","{""name"":""Chrome"",""chrome"":true,""version"":""106.0"",""blink"":true,""windows"":true,""osname"":""Windows"",""osversion"":""10"",""a"":true}","9:14:4","1","4","Test_2","70","f","1","782.6999999999534","1920 x 1080","1920 x 1080","true","1","10","","","","",""
"null","<p style=""font-size: 80px;"">+ 10 points</p>","null","html-keyboard-response","134","665914","0.0-11.0-2.133","5981b3289bf4fe0001070aea","aajv8r","DC","35","F","{""name"":""Chrome"",""chrome"":true,""version"":""106.0"",""blink"":true,""windows"":true,""osname"":""Windows"",""osversion"":""10"",""a"":true}","9:14:4","1","4","Test_4","70","f","1","811.1999999999534","1920 x 1080","1920 x 1080","true","1","10","","","","",""
"null","<p style=""font-size: 80px;"">+ 10 points</p>","null","html-keyboard-response","135","668365","0.0-11.0-2.134","5981b3289bf4fe0001070aea","aajv8r","DC","35","F","{""name"":""Chrome"",""chrome"":true,""version"":""106.0"",""blink"":true,""windows"":true,""osname"":""Windows"",""osversion"":""10"",""a"":true}","9:14:4","1","4","Test_1","74","j","1","662.3000000000466","1920 x 1080","1920 x 1080","true","1","10","","","","",""
"null","<p style=""font-size: 80px;"">+ 10 points</p>","null","html-keyboard-response","136","671135","0.0-11.0-2.135","5981b3289bf4fe0001070aea","aajv8r","DC","35","F","{""name"":""Chrome"",""chrome"":true,""version"":""106.0"",""blink"":true,""windows"":true,""osname"":""Windows"",""osversion"":""10"",""a"":true}","9:14:4","1","4","Test_4","70","f","1","750.5","1920 x 1080","1920 x 1080","true","1","10","","","","",""
"null","<p style=""font-size: 80px;"">+ 10 points</p>","null","html-keyboard-response","137","674545","0.0-11.0-2.136","5981b3289bf4fe0001070aea","aajv8r","DC","35","F","{""name"":""Chrome"",""chrome"":true,""version"":""106.0"",""blink"":true,""windows"":true,""osname"":""Windows"",""osversion"":""10"",""a"":true}","9:14:4","1","4","Test_3","74","j","1","1387.1999999999534","1920 x 1080","1920 x 1080","true","1","10","","","","",""
"null","<p style=""font-size: 80px;"">+ 10 points</p>","null","html-keyboard-response","138","677225","0.0-11.0-2.137","5981b3289bf4fe0001070aea","aajv8r","DC","35","F","{""name"":""Chrome"",""chrome"":true,""version"":""106.0"",""blink"":true,""windows"":true,""osname"":""Windows"",""osversion"":""10"",""a"":true}","9:14:4","1","4","Test_4","70","f","1","665.2999999998137","1920 x 1080","1920 x 1080","true","1","10","","","","",""
"null","<p style=""font-size: 80px;"">+ 10 points</p>","null","html-keyboard-response","139","680388","0.0-11.0-2.138","5981b3289bf4fe0001070aea","aajv8r","DC","35","F","{""name"":""Chrome"",""chrome"":true,""version"":""106.0"",""blink"":true,""windows"":true,""osname"":""Windows"",""osversion"":""10"",""a"":true}","9:14:4","1","4","Test_1","74","j","1","1142","1920 x 1080","1920 x 1080","true","1","10","","","","",""
"null","<p style=""font-size: 80px;"">+ 10 points</p>","null","html-keyboard-response","140","683275","0.0-11.0-2.139","5981b3289bf4fe0001070aea","aajv8r","DC","35","F","{""name"":""Chrome"",""chrome"":true,""version"":""106.0"",""blink"":true,""windows"":true,""osname"":""Windows"",""osversion"":""10"",""a"":true}","9:14:4","1","4","Test_2","70","f","1","873.5","1920 x 1080","1920 x 1080","true","1","10","","","","",""
"null","<p style=""font-size: 80px;"">+ 10 points</p>","null","html-keyboard-response","141","687105","0.0-11.0-2.140","5981b3289bf4fe0001070aea","aajv8r","DC","35","F","{""name"":""Chrome"",""chrome"":true,""version"":""106.0"",""blink"":true,""windows"":true,""osname"":""Windows"",""osversion"":""10"",""a"":true}","9:14:4","1","4","Test_3","74","j","1","1812","1920 x 1080","1920 x 1080","true","1","10","","","","",""
"null","<p style=""font-size: 80px;"">+ 0 points</p>","null","html-keyboard-response","142","690005","0.0-11.0-2.141","5981b3289bf4fe0001070aea","aajv8r","DC","35","F","{""name"":""Chrome"",""chrome"":true,""version"":""106.0"",""blink"":true,""windows"":true,""osname"":""Windows"",""osversion"":""10"",""a"":true}","9:14:4","1","3","Test_2","70","j","0","886.3000000000466","1920 x 1080","1920 x 1080","true","1","0","","","","",""
"null","<p style=""font-size: 80px;"">+ 10 points</p>","null","html-keyboard-response","143","692715","0.0-11.0-2.142","5981b3289bf4fe0001070aea","aajv8r","DC","35","F","{""name"":""Chrome"",""chrome"":true,""version"":""106.0"",""blink"":true,""windows"":true,""osname"":""Windows"",""osversion"":""10"",""a"":true}","9:14:4","1","3","Test_1","70","f","1","694","1920 x 1080","1920 x 1080","true","1","10","","","","",""
"null","<p style=""font-size: 80px;"">+ 10 points</p>","null","html-keyboard-response","144","696235","0.0-11.0-2.143","5981b3289bf4fe0001070aea","aajv8r","DC","35","F","{""name"":""Chrome"",""chrome"":true,""version"":""106.0"",""blink"":true,""windows"":true,""osname"":""Windows"",""osversion"":""10"",""a"":true}","9:14:4","1","3","Test_3","70","f","1","1505.4000000001397","1920 x 1080","1920 x 1080","true","1","10","","","","",""
"null","<p style=""font-size: 80px;"">+ 10 points</p>","null","html-keyboard-response","145","698945","0.0-11.0-2.144","5981b3289bf4fe0001070aea","aajv8r","DC","35","F","{""name"":""Chrome"",""chrome"":true,""version"":""106.0"",""blink"":true,""windows"":true,""osname"":""Windows"",""osversion"":""10"",""a"":true}","9:14:4","1","3","Test_4","74","j","1","687.5","1920 x 1080","1920 x 1080","true","1","10","","","","",""
"null","<p style=""font-size: 80px;"">+ 10 points</p>","null","html-keyboard-response","146","702765","0.0-11.0-2.145","5981b3289bf4fe0001070aea","aajv8r","DC","35","F","{""name"":""Chrome"",""chrome"":true,""version"":""106.0"",""blink"":true,""windows"":true,""osname"":""Windows"",""osversion"":""10"",""a"":true}","9:14:4","1","3","Test_2","74","j","1","1801.0999999998603","1920 x 1080","1920 x 1080","true","1","10","","","","",""
"null","<p style=""font-size: 80px;"">+ 10 points</p>","null","html-keyboard-response","147","707245","0.0-11.0-2.146","5981b3289bf4fe0001070aea","aajv8r","DC","35","F","{""name"":""Chrome"",""chrome"":true,""version"":""106.0"",""blink"":true,""windows"":true,""osname"":""Windows"",""osversion"":""10"",""a"":true}","9:14:4","1","3","Test_3","70","f","1","2468.8000000000466","1920 x 1080","1920 x 1080","true","1","10","","","","",""
"null","<p style=""font-size: 80px;"">+ 10 points</p>","null","html-keyboard-response","148","709815","0.0-11.0-2.147","5981b3289bf4fe0001070aea","aajv8r","DC","35","F","{""name"":""Chrome"",""chrome"":true,""version"":""106.0"",""blink"":true,""windows"":true,""osname"":""Windows"",""osversion"":""10"",""a"":true}","9:14:4","1","3","Test_4","74","j","1","551.3000000000466","1920 x 1080","1920 x 1080","true","1","10","","","","",""
"null","<p style=""font-size: 80px;"">+ 10 points</p>","null","html-keyboard-response","149","712475","0.0-11.0-2.148","5981b3289bf4fe0001070aea","aajv8r","DC","35","F","{""name"":""Chrome"",""chrome"":true,""version"":""106.0"",""blink"":true,""windows"":true,""osname"":""Windows"",""osversion"":""10"",""a"":true}","9:14:4","1","3","Test_1","70","f","1","638.8999999999069","1920 x 1080","1920 x 1080","true","1","10","","","","",""
"null","<p style=""font-size: 80px;"">+ 10 points</p>","null","html-keyboard-response","150","715295","0.0-11.0-2.149","5981b3289bf4fe0001070aea","aajv8r","DC","35","F","{""name"":""Chrome"",""chrome"":true,""version"":""106.0"",""blink"":true,""windows"":true,""osname"":""Windows"",""osversion"":""10"",""a"":true}","9:14:4","1","3","Test_2","74","j","1","798.8000000000466","1920 x 1080","1920 x 1080","true","1","10","","","","",""
"null","<p style=""font-size: 80px;"">+ 10 points</p>","null","html-keyboard-response","151","717995","0.0-11.0-2.150","5981b3289bf4fe0001070aea","aajv8r","DC","35","F","{""name"":""Chrome"",""chrome"":true,""version"":""106.0"",""blink"":true,""windows"":true,""osname"":""Windows"",""osversion"":""10"",""a"":true}","9:14:4","1","3","Test_1","70","f","1","682.1999999999534","1920 x 1080","1920 x 1080","true","1","10","","","","",""
"null","<p style=""font-size: 80px;"">+ 10 points</p>","null","html-keyboard-response","152","720555","0.0-11.0-2.151","5981b3289bf4fe0001070aea","aajv8r","DC","35","F","{""name"":""Chrome"",""chrome"":true,""version"":""106.0"",""blink"":true,""windows"":true,""osname"":""Windows"",""osversion"":""10"",""a"":true}","9:14:4","1","3","Test_1","70","f","1","539.6999999999534","1920 x 1080","1920 x 1080","true","1","10","","","","",""
"null","<p style=""font-size: 80px;"">+ 10 points</p>","null","html-keyboard-response","153","723215","0.0-11.0-2.152","5981b3289bf4fe0001070aea","aajv8r","DC","35","F","{""name"":""Chrome"",""chrome"":true,""version"":""106.0"",""blink"":true,""windows"":true,""osname"":""Windows"",""osversion"":""10"",""a"":true}","9:14:4","1","3","Test_4","74","j","1","636.3000000000466","1920 x 1080","1920 x 1080","true","1","10","","","","",""
"null","<p style=""font-size: 80px;"">+ 10 points</p>","null","html-keyboard-response","154","726075","0.0-11.0-2.153","5981b3289bf4fe0001070aea","aajv8r","DC","35","F","{""name"":""Chrome"",""chrome"":true,""version"":""106.0"",""blink"":true,""windows"":true,""osname"":""Windows"",""osversion"":""10"",""a"":true}","9:14:4","1","3","Test_3","70","f","1","840.3000000000466","1920 x 1080","1920 x 1080","true","1","10","","","","",""
"null","<p style=""font-size: 80px;"">+ 10 points</p>","null","html-keyboard-response","155","728755","0.0-11.0-2.154","5981b3289bf4fe0001070aea","aajv8r","DC","35","F","{""name"":""Chrome"",""chrome"":true,""version"":""106.0"",""blink"":true,""windows"":true,""osname"":""Windows"",""osversion"":""10"",""a"":true}","9:14:4","1","3","Test_4","74","j","1","661","1920 x 1080","1920 x 1080","true","1","10","","","","",""
"null","<p style=""font-size: 80px;"">+ 10 points</p>","null","html-keyboard-response","156","732451","0.0-11.0-2.155","5981b3289bf4fe0001070aea","aajv8r","DC","35","F","{""name"":""Chrome"",""chrome"":true,""version"":""106.0"",""blink"":true,""windows"":true,""osname"":""Windows"",""osversion"":""10"",""a"":true}","9:14:4","1","3","Test_2","74","j","1","1682.4000000001397","1920 x 1080","1920 x 1080","true","1","10","","","","",""
"null","<p style=""font-size: 80px;"">+ 10 points</p>","null","html-keyboard-response","157","735385","0.0-11.0-2.156","5981b3289bf4fe0001070aea","aajv8r","DC","35","F","{""name"":""Chrome"",""chrome"":true,""version"":""106.0"",""blink"":true,""windows"":true,""osname"":""Windows"",""osversion"":""10"",""a"":true}","9:14:4","1","3","Test_3","70","f","1","916.6999999999534","1920 x 1080","1920 x 1080","true","1","10","","","","",""
"null","<p style=""font-size: 80px;"">+ 10 points</p>","null","html-keyboard-response","158","737965","0.0-11.0-2.157","5981b3289bf4fe0001070aea","aajv8r","DC","35","F","{""name"":""Chrome"",""chrome"":true,""version"":""106.0"",""blink"":true,""windows"":true,""osname"":""Windows"",""osversion"":""10"",""a"":true}","9:14:4","1","3","Test_1","70","f","1","561.6999999999534","1920 x 1080","1920 x 1080","true","1","10","","","","",""
"null","<p style=""font-size: 80px;"">+ 10 points</p>","null","html-keyboard-response","159","740875","0.0-11.0-2.158","5981b3289bf4fe0001070aea","aajv8r","DC","35","F","{""name"":""Chrome"",""chrome"":true,""version"":""106.0"",""blink"":true,""windows"":true,""osname"":""Windows"",""osversion"":""10"",""a"":true}","9:14:4","1","3","Test_3","70","f","1","889.0999999998603","1920 x 1080","1920 x 1080","true","1","10","","","","",""
"null","<p style=""font-size: 80px;"">+ 10 points</p>","null","html-keyboard-response","160","744315","0.0-11.0-2.159","5981b3289bf4fe0001070aea","aajv8r","DC","35","F","{""name"":""Chrome"",""chrome"":true,""version"":""106.0"",""blink"":true,""windows"":true,""osname"":""Windows"",""osversion"":""10"",""a"":true}","9:14:4","1","3","Test_2","74","j","1","1409.6000000000931","1920 x 1080","1920 x 1080","true","1","10","","","","",""
"null","<p style=""font-size: 80px;"">+ 10 points</p>","null","html-keyboard-response","161","747195","0.0-11.0-2.160","5981b3289bf4fe0001070aea","aajv8r","DC","35","F","{""name"":""Chrome"",""chrome"":true,""version"":""106.0"",""blink"":true,""windows"":true,""osname"":""Windows"",""osversion"":""10"",""a"":true}","9:14:4","1","3","Test_4","74","j","1","864.1999999999534","1920 x 1080","1920 x 1080","true","1","10","","","","",""
"null","<p style=""font-size: 80px;"">+ 0 points</p>","null","html-keyboard-response","162","749855","0.0-11.0-2.161","5981b3289bf4fe0001070aea","aajv8r","DC","35","F","{""name"":""Chrome"",""chrome"":true,""version"":""106.0"",""blink"":true,""windows"":true,""osname"":""Windows"",""osversion"":""10"",""a"":true}","9:14:4","1","4","Test_4","74","f","0","643.1000000000931","1920 x 1080","1920 x 1080","true","1","0","","","","",""
"null","<p style=""font-size: 80px;"">+ 10 points</p>","null","html-keyboard-response","163","754254","0.0-11.0-2.162","5981b3289bf4fe0001070aea","aajv8r","DC","35","F","{""name"":""Chrome"",""chrome"":true,""version"":""106.0"",""blink"":true,""windows"":true,""osname"":""Windows"",""osversion"":""10"",""a"":true}","9:14:4","1","4","Test_3","74","j","1","2382.0999999998603","1920 x 1080","1920 x 1080","true","1","10","","","","",""
"null","<p style=""font-size: 80px;"">+ 10 points</p>","null","html-keyboard-response","164","757150","0.0-11.0-2.163","5981b3289bf4fe0001070aea","aajv8r","DC","35","F","{""name"":""Chrome"",""chrome"":true,""version"":""106.0"",""blink"":true,""windows"":true,""osname"":""Windows"",""osversion"":""10"",""a"":true}","9:14:4","1","4","Test_1","74","j","1","882.1999999999534","1920 x 1080","1920 x 1080","true","1","10","","","","",""
"null","<p style=""font-size: 80px;"">+ 10 points</p>","null","html-keyboard-response","165","761235","0.0-11.0-2.164","5981b3289bf4fe0001070aea","aajv8r","DC","35","F","{""name"":""Chrome"",""chrome"":true,""version"":""106.0"",""blink"":true,""windows"":true,""osname"":""Windows"",""osversion"":""10"",""a"":true}","9:14:4","1","4","Test_2","70","f","1","2066.8000000000466","1920 x 1080","1920 x 1080","true","1","10","","","","",""
"null","<p style=""font-size: 80px;"">+ 10 points</p>","null","html-keyboard-response","166","763810","0.0-11.0-2.165","5981b3289bf4fe0001070aea","aajv8r","DC","35","F","{""name"":""Chrome"",""chrome"":true,""version"":""106.0"",""blink"":true,""windows"":true,""osname"":""Windows"",""osversion"":""10"",""a"":true}","9:14:4","1","4","Test_4","70","f","1","560.5999999998603","1920 x 1080","1920 x 1080","true","1","10","","","","",""
"null","<p style=""font-size: 80px;"">+ 10 points</p>","null","html-keyboard-response","167","766485","0.0-11.0-2.166","5981b3289bf4fe0001070aea","aajv8r","DC","35","F","{""name"":""Chrome"",""chrome"":true,""version"":""106.0"",""blink"":true,""windows"":true,""osname"":""Windows"",""osversion"":""10"",""a"":true}","9:14:4","1","4","Test_1","74","j","1","656.5","1920 x 1080","1920 x 1080","true","1","10","","","","",""
"null","<p style=""font-size: 80px;"">+ 10 points</p>","null","html-keyboard-response","168","769165","0.0-11.0-2.167","5981b3289bf4fe0001070aea","aajv8r","DC","35","F","{""name"":""Chrome"",""chrome"":true,""version"":""106.0"",""blink"":true,""windows"":true,""osname"":""Windows"",""osversion"":""10"",""a"":true}","9:14:4","1","4","Test_2","70","f","1","663.3000000000466","1920 x 1080","1920 x 1080","true","1","10","","","","",""
"null","<p style=""font-size: 80px;"">+ 10 points</p>","null","html-keyboard-response","169","771865","0.0-11.0-2.168","5981b3289bf4fe0001070aea","aajv8r","DC","35","F","{""name"":""Chrome"",""chrome"":true,""version"":""106.0"",""blink"":true,""windows"":true,""osname"":""Windows"",""osversion"":""10"",""a"":true}","9:14:4","1","4","Test_4","70","f","1","679","1920 x 1080","1920 x 1080","true","1","10","","","","",""
"null","<p style=""font-size: 80px;"">+ 10 points</p>","null","html-keyboard-response","170","774515","0.0-11.0-2.169","5981b3289bf4fe0001070aea","aajv8r","DC","35","F","{""name"":""Chrome"",""chrome"":true,""version"":""106.0"",""blink"":true,""windows"":true,""osname"":""Windows"",""osversion"":""10"",""a"":true}","9:14:4","1","4","Test_4","70","f","1","636","1920 x 1080","1920 x 1080","true","1","10","","","","",""
"null","<p style=""font-size: 80px;"">+ 10 points</p>","null","html-keyboard-response","171","778055","0.0-11.0-2.170","5981b3289bf4fe0001070aea","aajv8r","DC","35","F","{""name"":""Chrome"",""chrome"":true,""version"":""106.0"",""blink"":true,""windows"":true,""osname"":""Windows"",""osversion"":""10"",""a"":true}","9:14:4","1","4","Test_3","74","j","1","1521.3000000000466","1920 x 1080","1920 x 1080","true","1","10","","","","",""
"null","<p style=""font-size: 80px;"">+ 10 points</p>","null","html-keyboard-response","172","780875","0.0-11.0-2.171","5981b3289bf4fe0001070aea","aajv8r","DC","35","F","{""name"":""Chrome"",""chrome"":true,""version"":""106.0"",""blink"":true,""windows"":true,""osname"":""Windows"",""osversion"":""10"",""a"":true}","9:14:4","1","4","Test_1","74","j","1","799.4000000001397","1920 x 1080","1920 x 1080","true","1","10","","","","",""
"null","<p style=""font-size: 80px;"">+ 10 points</p>","null","html-keyboard-response","173","784025","0.0-11.0-2.172","5981b3289bf4fe0001070aea","aajv8r","DC","35","F","{""name"":""Chrome"",""chrome"":true,""version"":""106.0"",""blink"":true,""windows"":true,""osname"":""Windows"",""osversion"":""10"",""a"":true}","9:14:4","1","4","Test_2","70","f","1","1131.5999999998603","1920 x 1080","1920 x 1080","true","1","10","","","","",""
"null","<p style=""font-size: 80px;"">+ 10 points</p>","null","html-keyboard-response","174","786825","0.0-11.0-2.173","5981b3289bf4fe0001070aea","aajv8r","DC","35","F","{""name"":""Chrome"",""chrome"":true,""version"":""106.0"",""blink"":true,""windows"":true,""osname"":""Windows"",""osversion"":""10"",""a"":true}","9:14:4","1","4","Test_2","70","f","1","785.5","1920 x 1080","1920 x 1080","true","1","10","","","","",""
"null","<p style=""font-size: 80px;"">+ 10 points</p>","null","html-keyboard-response","175","789665","0.0-11.0-2.174","5981b3289bf4fe0001070aea","aajv8r","DC","35","F","{""name"":""Chrome"",""chrome"":true,""version"":""106.0"",""blink"":true,""windows"":true,""osname"":""Windows"",""osversion"":""10"",""a"":true}","9:14:4","1","4","Test_3","74","j","1","827","1920 x 1080","1920 x 1080","true","1","10","","","","",""
"null","<p style=""font-size: 80px;"">+ 10 points</p>","null","html-keyboard-response","176","792605","0.0-11.0-2.175","5981b3289bf4fe0001070aea","aajv8r","DC","35","F","{""name"":""Chrome"",""chrome"":true,""version"":""106.0"",""blink"":true,""windows"":true,""osname"":""Windows"",""osversion"":""10"",""a"":true}","9:14:4","1","4","Test_3","74","j","1","925.1000000000931","1920 x 1080","1920 x 1080","true","1","10","","","","",""
"null","<p style=""font-size: 80px;"">+ 10 points</p>","null","html-keyboard-response","177","795314","0.0-11.0-2.176","5981b3289bf4fe0001070aea","aajv8r","DC","35","F","{""name"":""Chrome"",""chrome"":true,""version"":""106.0"",""blink"":true,""windows"":true,""osname"":""Windows"",""osversion"":""10"",""a"":true}","9:14:4","1","4","Test_1","74","j","1","694.8000000000466","1920 x 1080","1920 x 1080","true","1","10","","","","",""
"null","<p style=""font-size: 80px;"">+ 10 points</p>","null","html-keyboard-response","178","798475","0.0-11.0-2.177","5981b3289bf4fe0001070aea","aajv8r","DC","35","F","{""name"":""Chrome"",""chrome"":true,""version"":""106.0"",""blink"":true,""windows"":true,""osname"":""Windows"",""osversion"":""10"",""a"":true}","9:14:4","1","4","Test_2","70","f","1","1141.6000000000931","1920 x 1080","1920 x 1080","true","1","10","","","","",""
"null","<p style=""font-size: 80px;"">+ 0 points</p>","null","html-keyboard-response","179","801410","0.0-11.0-2.178","5981b3289bf4fe0001070aea","aajv8r","DC","35","F","{""name"":""Chrome"",""chrome"":true,""version"":""106.0"",""blink"":true,""windows"":true,""osname"":""Windows"",""osversion"":""10"",""a"":true}","9:14:4","1","3","Test_1","74","f","0","909.8000000000466","1920 x 1080","1920 x 1080","true","1","0","","","","",""
"null","<p style=""font-size: 80px;"">+ 10 points</p>","null","html-keyboard-response","180","805015","0.0-11.0-2.179","5981b3289bf4fe0001070aea","aajv8r","DC","35","F","{""name"":""Chrome"",""chrome"":true,""version"":""106.0"",""blink"":true,""windows"":true,""osname"":""Windows"",""osversion"":""10"",""a"":true}","9:14:4","1","3","Test_2","74","j","1","1590","1920 x 1080","1920 x 1080","true","1","10","","","","",""
"null","<p style=""font-size: 80px;"">+ 10 points</p>","null","html-keyboard-response","181","808115","0.0-11.0-2.180","5981b3289bf4fe0001070aea","aajv8r","DC","35","F","{""name"":""Chrome"",""chrome"":true,""version"":""106.0"",""blink"":true,""windows"":true,""osname"":""Windows"",""osversion"":""10"",""a"":true}","9:14:4","1","3","Test_3","70","f","1","1077.5","1920 x 1080","1920 x 1080","true","1","10","","","","",""
"null","<p style=""font-size: 80px;"">+ 10 points</p>","null","html-keyboard-response","182","810895","0.0-11.0-2.181","5981b3289bf4fe0001070aea","aajv8r","DC","35","F","{""name"":""Chrome"",""chrome"":true,""version"":""106.0"",""blink"":true,""windows"":true,""osname"":""Windows"",""osversion"":""10"",""a"":true}","9:14:4","1","3","Test_3","70","f","1","757.3999999999069","1920 x 1080","1920 x 1080","true","1","10","","","","",""
"null","<p style=""font-size: 80px;"">+ 10 points</p>","null","html-keyboard-response","183","813445","0.0-11.0-2.182","5981b3289bf4fe0001070aea","aajv8r","DC","35","F","{""name"":""Chrome"",""chrome"":true,""version"":""106.0"",""blink"":true,""windows"":true,""osname"":""Windows"",""osversion"":""10"",""a"":true}","9:14:4","1","3","Test_4","74","j","1","527.8999999999069","1920 x 1080","1920 x 1080","true","1","10","","","","",""
"null","<p style=""font-size: 80px;"">+ 10 points</p>","null","html-keyboard-response","184","816015","0.0-11.0-2.183","5981b3289bf4fe0001070aea","aajv8r","DC","35","F","{""name"":""Chrome"",""chrome"":true,""version"":""106.0"",""blink"":true,""windows"":true,""osname"":""Windows"",""osversion"":""10"",""a"":true}","9:14:4","1","3","Test_4","74","j","1","551.1000000000931","1920 x 1080","1920 x 1080","true","1","10","","","","",""
"null","<p style=""font-size: 80px;"">+ 10 points</p>","null","html-keyboard-response","185","818855","0.0-11.0-2.184","5981b3289bf4fe0001070aea","aajv8r","DC","35","F","{""name"":""Chrome"",""chrome"":true,""version"":""106.0"",""blink"":true,""windows"":true,""osname"":""Windows"",""osversion"":""10"",""a"":true}","9:14:4","1","3","Test_3","70","f","1","817.7000000001863","1920 x 1080","1920 x 1080","true","1","10","","","","",""
"null","<p style=""font-size: 80px;"">+ 10 points</p>","null","html-keyboard-response","186","822855","0.0-11.0-2.185","5981b3289bf4fe0001070aea","aajv8r","DC","35","F","{""name"":""Chrome"",""chrome"":true,""version"":""106.0"",""blink"":true,""windows"":true,""osname"":""Windows"",""osversion"":""10"",""a"":true}","9:14:4","1","3","Test_2","74","j","1","1984.3999999999069","1920 x 1080","1920 x 1080","true","1","10","","","","",""
"null","<p style=""font-size: 80px;"">+ 10 points</p>","null","html-keyboard-response","187","826435","0.0-11.0-2.186","5981b3289bf4fe0001070aea","aajv8r","DC","35","F","{""name"":""Chrome"",""chrome"":true,""version"":""106.0"",""blink"":true,""windows"":true,""osname"":""Windows"",""osversion"":""10"",""a"":true}","9:14:4","1","3","Test_3","70","f","1","1566.8000000000466","1920 x 1080","1920 x 1080","true","1","10","","","","",""
"null","<p style=""font-size: 80px;"">+ 10 points</p>","null","html-keyboard-response","188","829167","0.0-11.0-2.187","5981b3289bf4fe0001070aea","aajv8r","DC","35","F","{""name"":""Chrome"",""chrome"":true,""version"":""106.0"",""blink"":true,""windows"":true,""osname"":""Windows"",""osversion"":""10"",""a"":true}","9:14:4","1","3","Test_4","74","j","1","713.3000000000466","1920 x 1080","1920 x 1080","true","1","10","","","","",""
