"rt","stimulus","key_press","trial_type","trial_index","time_elapsed","internal_node_id","Prolific_ID","random_ID","initials","age","gender","pc_info","start_time","Phase","Rule","Stimulus","Response","CorrResp","Accuracy","ResponseTime","screen_resolution","window_resolution","focus","relevant","Points","responses","question_order","rev_check","butterfly_check","passed_practice"
"null","<p style=""font-size: 80px;"">+ 10 points</p>","null","html-keyboard-response","1","921421","0.0-7.0-2.0","5c28f3efdfe7fc0001cd8b28","qd87lx","SB","32","F","{""name"":""Chrome"",""chrome"":true,""version"":""106.0"",""blink"":true,""windows"":true,""osname"":""Windows"",""osversion"":""10"",""a"":true}","9:13:51","0","1","Practice_1","70","f","1","1471.3000000715256","1920 x 1080","1920 x 937","true","1","10","","","","",""
"null","<p style=""font-size: 80px;"">+ 10 points</p>","null","html-keyboard-response","2","924780","0.0-7.0-2.1","5c28f3efdfe7fc0001cd8b28","qd87lx","SB","32","F","{""name"":""Chrome"",""chrome"":true,""version"":""106.0"",""blink"":true,""windows"":true,""osname"":""Windows"",""osversion"":""10"",""a"":true}","9:13:51","0","1","Practice_4","74","j","1","1338.3000000715256","1920 x 1080","1920 x 937","true","1","10","","","","",""
"null","<p style=""font-size: 80px;"">+ 10 points</p>","null","html-keyboard-response","3","927620","0.0-7.0-2.2","5c28f3efdfe7fc0001cd8b28","qd87lx","SB","32","F","{""name"":""Chrome"",""chrome"":true,""version"":""106.0"",""blink"":true,""windows"":true,""osname"":""Windows"",""osversion"":""10"",""a"":true}","9:13:51","0","1","Practice_3","70","f","1","829.1000000238419","1920 x 1080","1920 x 937","true","1","10","","","","",""
"null","<p style=""font-size: 80px;"">+ 10 points</p>","null","html-keyboard-response","4","930515","0.0-7.0-2.3","5c28f3efdfe7fc0001cd8b28","qd87lx","SB","32","F","{""name"":""Chrome"",""chrome"":true,""version"":""106.0"",""blink"":true,""windows"":true,""osname"":""Windows"",""osversion"":""10"",""a"":true}","9:13:51","0","1","Practice_1","70","f","1","878.2000000476837","1920 x 1080","1920 x 937","true","1","10","","","","",""
"null","<p style=""font-size: 80px;"">+ 10 points</p>","null","html-keyboard-response","5","933237","0.0-7.0-2.4","5c28f3efdfe7fc0001cd8b28","qd87lx","SB","32","F","{""name"":""Chrome"",""chrome"":true,""version"":""106.0"",""blink"":true,""windows"":true,""osname"":""Windows"",""osversion"":""10"",""a"":true}","9:13:51","0","1","Practice_2","74","j","1","680.8999999761581","1920 x 1080","1920 x 937","true","1","10","","","","",""
"null","<p style=""font-size: 80px;"">+ 10 points</p>","null","html-keyboard-response","6","936015","0.0-7.0-2.5","5c28f3efdfe7fc0001cd8b28","qd87lx","SB","32","F","{""name"":""Chrome"",""chrome"":true,""version"":""106.0"",""blink"":true,""windows"":true,""osname"":""Windows"",""osversion"":""10"",""a"":true}","9:13:51","0","1","Practice_4","74","j","1","763.0999999046326","1920 x 1080","1920 x 937","true","1","10","","","","",""
"null","<p style=""font-size: 80px;"">+ 0 points</p>","null","html-keyboard-response","7","938894","0.0-7.0-2.6","5c28f3efdfe7fc0001cd8b28","qd87lx","SB","32","F","{""name"":""Chrome"",""chrome"":true,""version"":""106.0"",""blink"":true,""windows"":true,""osname"":""Windows"",""osversion"":""10"",""a"":true}","9:13:51","0","1","Practice_2","70","j","0","851.8999999761581","1920 x 1080","1920 x 937","true","1","0","","","","",""
"null","<p style=""font-size: 80px;"">+ 10 points</p>","null","html-keyboard-response","8","941561","0.0-7.0-2.7","5c28f3efdfe7fc0001cd8b28","qd87lx","SB","32","F","{""name"":""Chrome"",""chrome"":true,""version"":""106.0"",""blink"":true,""windows"":true,""osname"":""Windows"",""osversion"":""10"",""a"":true}","9:13:51","0","1","Practice_2","74","j","1","649.7000000476837","1920 x 1080","1920 x 937","true","1","10","","","","",""
"null","<p style=""font-size: 80px;"">+ 10 points</p>","null","html-keyboard-response","9","944460","0.0-7.0-2.8","5c28f3efdfe7fc0001cd8b28","qd87lx","SB","32","F","{""name"":""Chrome"",""chrome"":true,""version"":""106.0"",""blink"":true,""windows"":true,""osname"":""Windows"",""osversion"":""10"",""a"":true}","9:13:51","0","1","Practice_3","70","f","1","874.6000000238419","1920 x 1080","1920 x 937","true","1","10","","","","",""
"null","<p style=""font-size: 80px;"">+ 10 points</p>","null","html-keyboard-response","10","947223","0.0-7.0-2.9","5c28f3efdfe7fc0001cd8b28","qd87lx","SB","32","F","{""name"":""Chrome"",""chrome"":true,""version"":""106.0"",""blink"":true,""windows"":true,""osname"":""Windows"",""osversion"":""10"",""a"":true}","9:13:51","0","1","Practice_4","74","j","1","743.2000000476837","1920 x 1080","1920 x 937","true","1","10","","","","",""
"null","<p style=""font-size: 80px;"">+ 10 points</p>","null","html-keyboard-response","11","949994","0.0-7.0-2.10","5c28f3efdfe7fc0001cd8b28","qd87lx","SB","32","F","{""name"":""Chrome"",""chrome"":true,""version"":""106.0"",""blink"":true,""windows"":true,""osname"":""Windows"",""osversion"":""10"",""a"":true}","9:13:51","0","1","Practice_1","70","f","1","753.1999999284744","1920 x 1080","1920 x 937","true","1","10","","","","",""
"null","<p style=""font-size: 80px;"">+ 10 points</p>","null","html-keyboard-response","12","952717","0.0-7.0-2.11","5c28f3efdfe7fc0001cd8b28","qd87lx","SB","32","F","{""name"":""Chrome"",""chrome"":true,""version"":""106.0"",""blink"":true,""windows"":true,""osname"":""Windows"",""osversion"":""10"",""a"":true}","9:13:51","0","1","Practice_3","70","f","1","693","1920 x 1080","1920 x 937","true","1","10","","","","",""
"null","<p style=""font-size: 80px;"">+ 10 points</p>","null","html-keyboard-response","13","955512","0.0-7.0-2.12","5c28f3efdfe7fc0001cd8b28","qd87lx","SB","32","F","{""name"":""Chrome"",""chrome"":true,""version"":""106.0"",""blink"":true,""windows"":true,""osname"":""Windows"",""osversion"":""10"",""a"":true}","9:13:51","0","1","Practice_1","70","f","1","762.7000000476837","1920 x 1080","1920 x 937","true","1","10","","","","",""
"null","<p style=""font-size: 80px;"">+ 10 points</p>","null","html-keyboard-response","14","958176","0.0-7.0-2.13","5c28f3efdfe7fc0001cd8b28","qd87lx","SB","32","F","{""name"":""Chrome"",""chrome"":true,""version"":""106.0"",""blink"":true,""windows"":true,""osname"":""Windows"",""osversion"":""10"",""a"":true}","9:13:51","0","1","Practice_4","74","j","1","648","1920 x 1080","1920 x 937","true","1","10","","","","",""
"null","<p style=""font-size: 80px;"">+ 10 points</p>","null","html-keyboard-response","15","960800","0.0-7.0-2.14","5c28f3efdfe7fc0001cd8b28","qd87lx","SB","32","F","{""name"":""Chrome"",""chrome"":true,""version"":""106.0"",""blink"":true,""windows"":true,""osname"":""Windows"",""osversion"":""10"",""a"":true}","9:13:51","0","1","Practice_1","70","f","1","609.1999999284744","1920 x 1080","1920 x 937","true","1","10","","","","",""
"null","<p style=""font-size: 80px;"">+ 10 points</p>","null","html-keyboard-response","16","963508","0.0-7.0-2.15","5c28f3efdfe7fc0001cd8b28","qd87lx","SB","32","F","{""name"":""Chrome"",""chrome"":true,""version"":""106.0"",""blink"":true,""windows"":true,""osname"":""Windows"",""osversion"":""10"",""a"":true}","9:13:51","0","1","Practice_2","74","j","1","696.3000000715256","1920 x 1080","1920 x 937","true","1","10","","","","",""
"null","<p style=""font-size: 80px;"">+ 10 points</p>","null","html-keyboard-response","17","966032","0.0-7.0-2.16","5c28f3efdfe7fc0001cd8b28","qd87lx","SB","32","F","{""name"":""Chrome"",""chrome"":true,""version"":""106.0"",""blink"":true,""windows"":true,""osname"":""Windows"",""osversion"":""10"",""a"":true}","9:13:51","0","1","Practice_2","74","j","1","514.8999999761581","1920 x 1080","1920 x 937","true","1","10","","","","",""
"null","<p style=""font-size: 80px;"">+ 10 points</p>","null","html-keyboard-response","18","968626","0.0-7.0-2.17","5c28f3efdfe7fc0001cd8b28","qd87lx","SB","32","F","{""name"":""Chrome"",""chrome"":true,""version"":""106.0"",""blink"":true,""windows"":true,""osname"":""Windows"",""osversion"":""10"",""a"":true}","9:13:51","0","1","Practice_3","70","f","1","575.1000000238419","1920 x 1080","1920 x 937","true","1","10","","","","",""
"null","<p style=""font-size: 80px;"">+ 10 points</p>","null","html-keyboard-response","19","971204","0.0-7.0-2.18","5c28f3efdfe7fc0001cd8b28","qd87lx","SB","32","F","{""name"":""Chrome"",""chrome"":true,""version"":""106.0"",""blink"":true,""windows"":true,""osname"":""Windows"",""osversion"":""10"",""a"":true}","9:13:51","0","1","Practice_3","70","f","1","565.5","1920 x 1080","1920 x 937","true","1","10","","","","",""
"null","<p style=""font-size: 80px;"">+ 10 points</p>","null","html-keyboard-response","20","973790","0.0-7.0-2.19","5c28f3efdfe7fc0001cd8b28","qd87lx","SB","32","F","{""name"":""Chrome"",""chrome"":true,""version"":""106.0"",""blink"":true,""windows"":true,""osname"":""Windows"",""osversion"":""10"",""a"":true}","9:13:51","0","1","Practice_4","74","j","1","578.2999999523163","1920 x 1080","1920 x 937","true","1","10","","","","",""
"null","<p style=""font-size: 80px;"">+ 0 points</p>","null","html-keyboard-response","21","976398","0.0-7.0-2.20","5c28f3efdfe7fc0001cd8b28","qd87lx","SB","32","F","{""name"":""Chrome"",""chrome"":true,""version"":""106.0"",""blink"":true,""windows"":true,""osname"":""Windows"",""osversion"":""10"",""a"":true}","9:13:51","0","2","Practice_4","74","f","0","590.2000000476837","1920 x 1080","1920 x 937","true","1","0","","","","",""
"null","<p style=""font-size: 80px;"">+ 10 points</p>","null","html-keyboard-response","22","979295","0.0-7.0-2.21","5c28f3efdfe7fc0001cd8b28","qd87lx","SB","32","F","{""name"":""Chrome"",""chrome"":true,""version"":""106.0"",""blink"":true,""windows"":true,""osname"":""Windows"",""osversion"":""10"",""a"":true}","9:13:51","0","2","Practice_4","70","f","1","879.7000000476837","1920 x 1080","1920 x 937","true","1","10","","","","",""
"null","<p style=""font-size: 80px;"">+ 10 points</p>","null","html-keyboard-response","23","982055","0.0-7.0-2.22","5c28f3efdfe7fc0001cd8b28","qd87lx","SB","32","F","{""name"":""Chrome"",""chrome"":true,""version"":""106.0"",""blink"":true,""windows"":true,""osname"":""Windows"",""osversion"":""10"",""a"":true}","9:13:51","0","2","Practice_1","74","j","1","733.1999999284744","1920 x 1080","1920 x 937","true","1","10","","","","",""
"null","<p style=""font-size: 80px;"">+ 10 points</p>","null","html-keyboard-response","24","984979","0.0-7.0-2.23","5c28f3efdfe7fc0001cd8b28","qd87lx","SB","32","F","{""name"":""Chrome"",""chrome"":true,""version"":""106.0"",""blink"":true,""windows"":true,""osname"":""Windows"",""osversion"":""10"",""a"":true}","9:13:51","0","2","Practice_3","74","j","1","905.3999999761581","1920 x 1080","1920 x 937","true","1","10","","","","",""
"null","<p style=""font-size: 80px;"">+ 10 points</p>","null","html-keyboard-response","25","988090","0.0-7.0-2.24","5c28f3efdfe7fc0001cd8b28","qd87lx","SB","32","F","{""name"":""Chrome"",""chrome"":true,""version"":""106.0"",""blink"":true,""windows"":true,""osname"":""Windows"",""osversion"":""10"",""a"":true}","9:13:51","0","2","Practice_1","74","j","1","1099.5","1920 x 1080","1920 x 937","true","1","10","","","","",""
"null","<p style=""font-size: 80px;"">+ 10 points</p>","null","html-keyboard-response","26","991026","0.0-7.0-2.25","5c28f3efdfe7fc0001cd8b28","qd87lx","SB","32","F","{""name"":""Chrome"",""chrome"":true,""version"":""106.0"",""blink"":true,""windows"":true,""osname"":""Windows"",""osversion"":""10"",""a"":true}","9:13:51","0","2","Practice_1","74","j","1","924.2999999523163","1920 x 1080","1920 x 937","true","1","10","","","","",""
"null","<p style=""font-size: 80px;"">+ 10 points</p>","null","html-keyboard-response","27","993635","0.0-7.0-2.26","5c28f3efdfe7fc0001cd8b28","qd87lx","SB","32","F","{""name"":""Chrome"",""chrome"":true,""version"":""106.0"",""blink"":true,""windows"":true,""osname"":""Windows"",""osversion"":""10"",""a"":true}","9:13:51","0","2","Practice_1","74","j","1","592.3000000715256","1920 x 1080","1920 x 937","true","1","10","","","","",""
"null","<p style=""font-size: 80px;"">+ 10 points</p>","null","html-keyboard-response","28","996663","0.0-7.0-2.27","5c28f3efdfe7fc0001cd8b28","qd87lx","SB","32","F","{""name"":""Chrome"",""chrome"":true,""version"":""106.0"",""blink"":true,""windows"":true,""osname"":""Windows"",""osversion"":""10"",""a"":true}","9:13:51","0","2","Practice_2","70","f","1","1007.1999999284744","1920 x 1080","1920 x 937","true","1","10","","","","",""
"null","<p style=""font-size: 80px;"">+ 10 points</p>","null","html-keyboard-response","29","999410","0.0-7.0-2.28","5c28f3efdfe7fc0001cd8b28","qd87lx","SB","32","F","{""name"":""Chrome"",""chrome"":true,""version"":""106.0"",""blink"":true,""windows"":true,""osname"":""Windows"",""osversion"":""10"",""a"":true}","9:13:51","0","2","Practice_2","70","f","1","731.1000000238419","1920 x 1080","1920 x 937","true","1","10","","","","",""
"null","<p style=""font-size: 80px;"">+ 10 points</p>","null","html-keyboard-response","30","1002229","0.0-7.0-2.29","5c28f3efdfe7fc0001cd8b28","qd87lx","SB","32","F","{""name"":""Chrome"",""chrome"":true,""version"":""106.0"",""blink"":true,""windows"":true,""osname"":""Windows"",""osversion"":""10"",""a"":true}","9:13:51","0","2","Practice_2","70","f","1","793","1920 x 1080","1920 x 937","true","1","10","","","","",""
"null","<p style=""font-size: 80px;"">+ 10 points</p>","null","html-keyboard-response","31","1004963","0.0-7.0-2.30","5c28f3efdfe7fc0001cd8b28","qd87lx","SB","32","F","{""name"":""Chrome"",""chrome"":true,""version"":""106.0"",""blink"":true,""windows"":true,""osname"":""Windows"",""osversion"":""10"",""a"":true}","9:13:51","0","2","Practice_2","70","f","1","706.2000000476837","1920 x 1080","1920 x 937","true","1","10","","","","",""
"null","<p style=""font-size: 80px;"">+ 10 points</p>","null","html-keyboard-response","32","1007722","0.0-7.0-2.31","5c28f3efdfe7fc0001cd8b28","qd87lx","SB","32","F","{""name"":""Chrome"",""chrome"":true,""version"":""106.0"",""blink"":true,""windows"":true,""osname"":""Windows"",""osversion"":""10"",""a"":true}","9:13:51","0","2","Practice_1","74","j","1","733.2000000476837","1920 x 1080","1920 x 937","true","1","10","","","","",""
"null","<p style=""font-size: 80px;"">+ 0 points</p>","null","html-keyboard-response","33","1010307","0.0-7.0-2.32","5c28f3efdfe7fc0001cd8b28","qd87lx","SB","32","F","{""name"":""Chrome"",""chrome"":true,""version"":""106.0"",""blink"":true,""windows"":true,""osname"":""Windows"",""osversion"":""10"",""a"":true}","9:13:51","0","2","Practice_3","70","j","0","552.8000000715256","1920 x 1080","1920 x 937","true","1","0","","","","",""
"null","<p style=""font-size: 80px;"">+ 0 points</p>","null","html-keyboard-response","34","1013256","0.0-7.0-2.33","5c28f3efdfe7fc0001cd8b28","qd87lx","SB","32","F","{""name"":""Chrome"",""chrome"":true,""version"":""106.0"",""blink"":true,""windows"":true,""osname"":""Windows"",""osversion"":""10"",""a"":true}","9:13:51","0","2","Practice_3","70","j","0","911.9000000953674","1920 x 1080","1920 x 937","true","1","0","","","","",""
"null","<p style=""font-size: 80px;"">+ 10 points</p>","null","html-keyboard-response","35","1015781","0.0-7.0-2.34","5c28f3efdfe7fc0001cd8b28","qd87lx","SB","32","F","{""name"":""Chrome"",""chrome"":true,""version"":""106.0"",""blink"":true,""windows"":true,""osname"":""Windows"",""osversion"":""10"",""a"":true}","9:13:51","0","2","Practice_3","74","j","1","507.09999990463257","1920 x 1080","1920 x 937","true","1","10","","","","",""
"null","<p style=""font-size: 80px;"">+ 10 points</p>","null","html-keyboard-response","36","1018659","0.0-7.0-2.35","5c28f3efdfe7fc0001cd8b28","qd87lx","SB","32","F","{""name"":""Chrome"",""chrome"":true,""version"":""106.0"",""blink"":true,""windows"":true,""osname"":""Windows"",""osversion"":""10"",""a"":true}","9:13:51","0","2","Practice_4","70","f","1","870.7999999523163","1920 x 1080","1920 x 937","true","1","10","","","","",""
"null","<p style=""font-size: 80px;"">+ 10 points</p>","null","html-keyboard-response","37","1022049","0.0-7.0-2.36","5c28f3efdfe7fc0001cd8b28","qd87lx","SB","32","F","{""name"":""Chrome"",""chrome"":true,""version"":""106.0"",""blink"":true,""windows"":true,""osname"":""Windows"",""osversion"":""10"",""a"":true}","9:13:51","0","2","Practice_2","70","f","1","1368.1000000238419","1920 x 1080","1920 x 937","true","1","10","","","","",""
"null","<p style=""font-size: 80px;"">+ 10 points</p>","null","html-keyboard-response","38","1024745","0.0-7.0-2.37","5c28f3efdfe7fc0001cd8b28","qd87lx","SB","32","F","{""name"":""Chrome"",""chrome"":true,""version"":""106.0"",""blink"":true,""windows"":true,""osname"":""Windows"",""osversion"":""10"",""a"":true}","9:13:51","0","2","Practice_3","74","j","1","673.8000000715256","1920 x 1080","1920 x 937","true","1","10","","","","",""
"null","<p style=""font-size: 80px;"">+ 10 points</p>","null","html-keyboard-response","39","1027869","0.0-7.0-2.38","5c28f3efdfe7fc0001cd8b28","qd87lx","SB","32","F","{""name"":""Chrome"",""chrome"":true,""version"":""106.0"",""blink"":true,""windows"":true,""osname"":""Windows"",""osversion"":""10"",""a"":true}","9:13:51","0","2","Practice_4","70","f","1","1093.6999999284744","1920 x 1080","1920 x 937","true","1","10","","","","",""
"null","<p style=""font-size: 80px;"">+ 10 points</p>","null","html-keyboard-response","40","1031602","0.0-7.0-2.39","5c28f3efdfe7fc0001cd8b28","qd87lx","SB","32","F","{""name"":""Chrome"",""chrome"":true,""version"":""106.0"",""blink"":true,""windows"":true,""osname"":""Windows"",""osversion"":""10"",""a"":true}","9:13:51","0","2","Practice_4","70","f","1","1696.9000000953674","1920 x 1080","1920 x 937","true","1","10","","","","",""
"16049.799999952316","","","survey-multi-choice","127","1047655","0.0-8.0","5c28f3efdfe7fc0001cd8b28","qd87lx","SB","32","F","{""name"":""Chrome"",""chrome"":true,""version"":""106.0"",""blink"":true,""windows"":true,""osname"":""Windows"",""osversion"":""10"",""a"":true}","9:13:51","","","","","","","","","","","1","","{""Q0"":""The red one"",""Q1"":""1""}","[0,1]","1","The red one","2"
"null","<p style=""font-size: 80px;"">+ 0 points</p>","null","html-keyboard-response","1","1058508","0.0-11.0-2.0","5c28f3efdfe7fc0001cd8b28","qd87lx","SB","32","F","{""name"":""Chrome"",""chrome"":true,""version"":""106.0"",""blink"":true,""windows"":true,""osname"":""Windows"",""osversion"":""10"",""a"":true}","9:13:51","1","3","Test_1","74","f","0","1202.1000000238419","1920 x 1080","1920 x 937","true","1","0","","","","",""
"null","<p style=""font-size: 80px;"">+ 10 points</p>","null","html-keyboard-response","2","1061735","0.0-11.0-2.1","5c28f3efdfe7fc0001cd8b28","qd87lx","SB","32","F","{""name"":""Chrome"",""chrome"":true,""version"":""106.0"",""blink"":true,""windows"":true,""osname"":""Windows"",""osversion"":""10"",""a"":true}","9:13:51","1","3","Test_2","74","j","1","1214.5","1920 x 1080","1920 x 937","true","1","10","","","","",""
"null","<p style=""font-size: 80px;"">+ 10 points</p>","null","html-keyboard-response","3","1064806","0.0-11.0-2.2","5c28f3efdfe7fc0001cd8b28","qd87lx","SB","32","F","{""name"":""Chrome"",""chrome"":true,""version"":""106.0"",""blink"":true,""windows"":true,""osname"":""Windows"",""osversion"":""10"",""a"":true}","9:13:51","1","3","Test_3","70","f","1","1057.9000000953674","1920 x 1080","1920 x 937","true","1","10","","","","",""
"null","<p style=""font-size: 80px;"">+ 10 points</p>","null","html-keyboard-response","4","1067634","0.0-11.0-2.3","5c28f3efdfe7fc0001cd8b28","qd87lx","SB","32","F","{""name"":""Chrome"",""chrome"":true,""version"":""106.0"",""blink"":true,""windows"":true,""osname"":""Windows"",""osversion"":""10"",""a"":true}","9:13:51","1","3","Test_4","74","j","1","784.5","1920 x 1080","1920 x 937","true","1","10","","","","",""
"null","<p style=""font-size: 80px;"">+ 10 points</p>","null","html-keyboard-response","5","1070142","0.0-11.0-2.4","5c28f3efdfe7fc0001cd8b28","qd87lx","SB","32","F","{""name"":""Chrome"",""chrome"":true,""version"":""106.0"",""blink"":true,""windows"":true,""osname"":""Windows"",""osversion"":""10"",""a"":true}","9:13:51","1","3","Test_4","74","j","1","489","1920 x 1080","1920 x 937","true","1","10","","","","",""
"null","<p style=""font-size: 80px;"">+ 10 points</p>","null","html-keyboard-response","6","1072829","0.0-11.0-2.5","5c28f3efdfe7fc0001cd8b28","qd87lx","SB","32","F","{""name"":""Chrome"",""chrome"":true,""version"":""106.0"",""blink"":true,""windows"":true,""osname"":""Windows"",""osversion"":""10"",""a"":true}","9:13:51","1","3","Test_3","70","f","1","669.4000000953674","1920 x 1080","1920 x 937","true","1","10","","","","",""
"null","<p style=""font-size: 80px;"">+ 10 points</p>","null","html-keyboard-response","7","1075623","0.0-11.0-2.6","5c28f3efdfe7fc0001cd8b28","qd87lx","SB","32","F","{""name"":""Chrome"",""chrome"":true,""version"":""106.0"",""blink"":true,""windows"":true,""osname"":""Windows"",""osversion"":""10"",""a"":true}","9:13:51","1","3","Test_3","70","f","1","782.6000000238419","1920 x 1080","1920 x 937","true","1","10","","","","",""
"null","<p style=""font-size: 80px;"">+ 10 points</p>","null","html-keyboard-response","8","1078448","0.0-11.0-2.7","5c28f3efdfe7fc0001cd8b28","qd87lx","SB","32","F","{""name"":""Chrome"",""chrome"":true,""version"":""106.0"",""blink"":true,""windows"":true,""osname"":""Windows"",""osversion"":""10"",""a"":true}","9:13:51","1","3","Test_4","74","j","1","811.8999999761581","1920 x 1080","1920 x 937","true","1","10","","","","",""
"null","<p style=""font-size: 80px;"">+ 10 points</p>","null","html-keyboard-response","9","1081799","0.0-11.0-2.8","5c28f3efdfe7fc0001cd8b28","qd87lx","SB","32","F","{""name"":""Chrome"",""chrome"":true,""version"":""106.0"",""blink"":true,""windows"":true,""osname"":""Windows"",""osversion"":""10"",""a"":true}","9:13:51","1","3","Test_2","74","j","1","1314.6999999284744","1920 x 1080","1920 x 937","true","1","10","","","","",""
"null","<p style=""font-size: 80px;"">+ 10 points</p>","null","html-keyboard-response","10","1084493","0.0-11.0-2.9","5c28f3efdfe7fc0001cd8b28","qd87lx","SB","32","F","{""name"":""Chrome"",""chrome"":true,""version"":""106.0"",""blink"":true,""windows"":true,""osname"":""Windows"",""osversion"":""10"",""a"":true}","9:13:51","1","3","Test_2","74","j","1","675.8000000715256","1920 x 1080","1920 x 937","true","1","10","","","","",""
"null","<p style=""font-size: 80px;"">+ 10 points</p>","null","html-keyboard-response","11","1087248","0.0-11.0-2.10","5c28f3efdfe7fc0001cd8b28","qd87lx","SB","32","F","{""name"":""Chrome"",""chrome"":true,""version"":""106.0"",""blink"":true,""windows"":true,""osname"":""Windows"",""osversion"":""10"",""a"":true}","9:13:51","1","3","Test_1","70","f","1","728.2000000476837","1920 x 1080","1920 x 937","true","1","10","","","","",""
"null","<p style=""font-size: 80px;"">+ 10 points</p>","null","html-keyboard-response","12","1089869","0.0-11.0-2.11","5c28f3efdfe7fc0001cd8b28","qd87lx","SB","32","F","{""name"":""Chrome"",""chrome"":true,""version"":""106.0"",""blink"":true,""windows"":true,""osname"":""Windows"",""osversion"":""10"",""a"":true}","9:13:51","1","3","Test_4","74","j","1","610.8999999761581","1920 x 1080","1920 x 937","true","1","10","","","","",""
"null","<p style=""font-size: 80px;"">+ 10 points</p>","null","html-keyboard-response","13","1092820","0.0-11.0-2.12","5c28f3efdfe7fc0001cd8b28","qd87lx","SB","32","F","{""name"":""Chrome"",""chrome"":true,""version"":""106.0"",""blink"":true,""windows"":true,""osname"":""Windows"",""osversion"":""10"",""a"":true}","9:13:51","1","3","Test_1","70","f","1","930.5","1920 x 1080","1920 x 937","true","1","10","","","","",""
"null","<p style=""font-size: 80px;"">+ 10 points</p>","null","html-keyboard-response","14","1095760","0.0-11.0-2.13","5c28f3efdfe7fc0001cd8b28","qd87lx","SB","32","F","{""name"":""Chrome"",""chrome"":true,""version"":""106.0"",""blink"":true,""windows"":true,""osname"":""Windows"",""osversion"":""10"",""a"":true}","9:13:51","1","3","Test_2","74","j","1","921.4000000953674","1920 x 1080","1920 x 937","true","1","10","","","","",""
"null","<p style=""font-size: 80px;"">+ 10 points</p>","null","html-keyboard-response","15","1098691","0.0-11.0-2.14","5c28f3efdfe7fc0001cd8b28","qd87lx","SB","32","F","{""name"":""Chrome"",""chrome"":true,""version"":""106.0"",""blink"":true,""windows"":true,""osname"":""Windows"",""osversion"":""10"",""a"":true}","9:13:51","1","3","Test_3","70","f","1","902.8999999761581","1920 x 1080","1920 x 937","true","1","10","","","","",""
"null","<p style=""font-size: 80px;"">+ 0 points</p>","null","html-keyboard-response","16","1101431","0.0-11.0-2.15","5c28f3efdfe7fc0001cd8b28","qd87lx","SB","32","F","{""name"":""Chrome"",""chrome"":true,""version"":""106.0"",""blink"":true,""windows"":true,""osname"":""Windows"",""osversion"":""10"",""a"":true}","9:13:51","1","4","Test_4","74","f","0","719","1920 x 1080","1920 x 937","true","1","0","","","","",""
"null","<p style=""font-size: 80px;"">+ 10 points</p>","null","html-keyboard-response","17","1104409","0.0-11.0-2.16","5c28f3efdfe7fc0001cd8b28","qd87lx","SB","32","F","{""name"":""Chrome"",""chrome"":true,""version"":""106.0"",""blink"":true,""windows"":true,""osname"":""Windows"",""osversion"":""10"",""a"":true}","9:13:51","1","4","Test_4","70","f","1","950.2999999523163","1920 x 1080","1920 x 937","true","1","10","","","","",""
"null","<p style=""font-size: 80px;"">+ 10 points</p>","null","html-keyboard-response","18","1106918","0.0-11.0-2.17","5c28f3efdfe7fc0001cd8b28","qd87lx","SB","32","F","{""name"":""Chrome"",""chrome"":true,""version"":""106.0"",""blink"":true,""windows"":true,""osname"":""Windows"",""osversion"":""10"",""a"":true}","9:13:51","1","4","Test_3","74","j","1","497","1920 x 1080","1920 x 937","true","1","10","","","","",""
"null","<p style=""font-size: 80px;"">+ 10 points</p>","null","html-keyboard-response","19","1109828","0.0-11.0-2.18","5c28f3efdfe7fc0001cd8b28","qd87lx","SB","32","F","{""name"":""Chrome"",""chrome"":true,""version"":""106.0"",""blink"":true,""windows"":true,""osname"":""Windows"",""osversion"":""10"",""a"":true}","9:13:51","1","4","Test_2","70","f","1","891.3999999761581","1920 x 1080","1920 x 937","true","1","10","","","","",""
"null","<p style=""font-size: 80px;"">+ 10 points</p>","null","html-keyboard-response","20","1112484","0.0-11.0-2.19","5c28f3efdfe7fc0001cd8b28","qd87lx","SB","32","F","{""name"":""Chrome"",""chrome"":true,""version"":""106.0"",""blink"":true,""windows"":true,""osname"":""Windows"",""osversion"":""10"",""a"":true}","9:13:51","1","4","Test_2","70","f","1","640.5999999046326","1920 x 1080","1920 x 937","true","1","10","","","","",""
"null","<p style=""font-size: 80px;"">+ 0 points</p>","null","html-keyboard-response","21","1115078","0.0-11.0-2.20","5c28f3efdfe7fc0001cd8b28","qd87lx","SB","32","F","{""name"":""Chrome"",""chrome"":true,""version"":""106.0"",""blink"":true,""windows"":true,""osname"":""Windows"",""osversion"":""10"",""a"":true}","9:13:51","1","4","Test_4","74","f","0","566.2000000476837","1920 x 1080","1920 x 937","true","1","0","","","","",""
"null","<p style=""font-size: 80px;"">+ 10 points</p>","null","html-keyboard-response","22","1117948","0.0-11.0-2.21","5c28f3efdfe7fc0001cd8b28","qd87lx","SB","32","F","{""name"":""Chrome"",""chrome"":true,""version"":""106.0"",""blink"":true,""windows"":true,""osname"":""Windows"",""osversion"":""10"",""a"":true}","9:13:51","1","4","Test_1","74","j","1","845.3999999761581","1920 x 1080","1920 x 937","true","1","10","","","","",""
"null","<p style=""font-size: 80px;"">+ 10 points</p>","null","html-keyboard-response","23","1121275","0.0-11.0-2.22","5c28f3efdfe7fc0001cd8b28","qd87lx","SB","32","F","{""name"":""Chrome"",""chrome"":true,""version"":""106.0"",""blink"":true,""windows"":true,""osname"":""Windows"",""osversion"":""10"",""a"":true}","9:13:51","1","4","Test_3","74","j","1","1318.5","1920 x 1080","1920 x 937","true","1","10","","","","",""
"null","<p style=""font-size: 80px;"">+ 10 points</p>","null","html-keyboard-response","24","1124533","0.0-11.0-2.23","5c28f3efdfe7fc0001cd8b28","qd87lx","SB","32","F","{""name"":""Chrome"",""chrome"":true,""version"":""106.0"",""blink"":true,""windows"":true,""osname"":""Windows"",""osversion"":""10"",""a"":true}","9:13:51","1","4","Test_1","74","j","1","1246.3000000715256","1920 x 1080","1920 x 937","true","1","10","","","","",""
"null","<p style=""font-size: 80px;"">+ 10 points</p>","null","html-keyboard-response","25","1127778","0.0-11.0-2.24","5c28f3efdfe7fc0001cd8b28","qd87lx","SB","32","F","{""name"":""Chrome"",""chrome"":true,""version"":""106.0"",""blink"":true,""windows"":true,""osname"":""Windows"",""osversion"":""10"",""a"":true}","9:13:51","1","4","Test_1","74","j","1","1219.1000000238419","1920 x 1080","1920 x 937","true","1","10","","","","",""
"null","<p style=""font-size: 80px;"">+ 10 points</p>","null","html-keyboard-response","26","1130752","0.0-11.0-2.25","5c28f3efdfe7fc0001cd8b28","qd87lx","SB","32","F","{""name"":""Chrome"",""chrome"":true,""version"":""106.0"",""blink"":true,""windows"":true,""osname"":""Windows"",""osversion"":""10"",""a"":true}","9:13:51","1","4","Test_1","74","j","1","952.1000000238419","1920 x 1080","1920 x 937","true","1","10","","","","",""
"null","<p style=""font-size: 80px;"">+ 10 points</p>","null","html-keyboard-response","27","1133783","0.0-11.0-2.26","5c28f3efdfe7fc0001cd8b28","qd87lx","SB","32","F","{""name"":""Chrome"",""chrome"":true,""version"":""106.0"",""blink"":true,""windows"":true,""osname"":""Windows"",""osversion"":""10"",""a"":true}","9:13:51","1","4","Test_3","74","j","1","1020.5","1920 x 1080","1920 x 937","true","1","10","","","","",""
"null","<p style=""font-size: 80px;"">+ 10 points</p>","null","html-keyboard-response","28","1136903","0.0-11.0-2.27","5c28f3efdfe7fc0001cd8b28","qd87lx","SB","32","F","{""name"":""Chrome"",""chrome"":true,""version"":""106.0"",""blink"":true,""windows"":true,""osname"":""Windows"",""osversion"":""10"",""a"":true}","9:13:51","1","4","Test_2","70","f","1","1091.5","1920 x 1080","1920 x 937","true","1","10","","","","",""
"null","<p style=""font-size: 80px;"">+ 10 points</p>","null","html-keyboard-response","29","1139850","0.0-11.0-2.28","5c28f3efdfe7fc0001cd8b28","qd87lx","SB","32","F","{""name"":""Chrome"",""chrome"":true,""version"":""106.0"",""blink"":true,""windows"":true,""osname"":""Windows"",""osversion"":""10"",""a"":true}","9:13:51","1","4","Test_1","74","j","1","931.0999999046326","1920 x 1080","1920 x 937","true","1","10","","","","",""
"null","<p style=""font-size: 80px;"">+ 0 points</p>","null","html-keyboard-response","30","1142828","0.0-11.0-2.29","5c28f3efdfe7fc0001cd8b28","qd87lx","SB","32","F","{""name"":""Chrome"",""chrome"":true,""version"":""106.0"",""blink"":true,""windows"":true,""osname"":""Windows"",""osversion"":""10"",""a"":true}","9:13:51","1","4","Test_3","70","j","0","952.5","1920 x 1080","1920 x 937","true","1","0","","","","",""
"null","<p style=""font-size: 80px;"">+ 10 points</p>","null","html-keyboard-response","31","1145685","0.0-11.0-2.30","5c28f3efdfe7fc0001cd8b28","qd87lx","SB","32","F","{""name"":""Chrome"",""chrome"":true,""version"":""106.0"",""blink"":true,""windows"":true,""osname"":""Windows"",""osversion"":""10"",""a"":true}","9:13:51","1","4","Test_4","70","f","1","845.4000000953674","1920 x 1080","1920 x 937","true","1","10","","","","",""
"null","<p style=""font-size: 80px;"">+ 10 points</p>","null","html-keyboard-response","32","1149111","0.0-11.0-2.31","5c28f3efdfe7fc0001cd8b28","qd87lx","SB","32","F","{""name"":""Chrome"",""chrome"":true,""version"":""106.0"",""blink"":true,""windows"":true,""osname"":""Windows"",""osversion"":""10"",""a"":true}","9:13:51","1","4","Test_2","70","f","1","1412","1920 x 1080","1920 x 937","true","1","10","","","","",""
"null","<p style=""font-size: 80px;"">+ 10 points</p>","null","html-keyboard-response","33","1152220","0.0-11.0-2.32","5c28f3efdfe7fc0001cd8b28","qd87lx","SB","32","F","{""name"":""Chrome"",""chrome"":true,""version"":""106.0"",""blink"":true,""windows"":true,""osname"":""Windows"",""osversion"":""10"",""a"":true}","9:13:51","1","4","Test_4","70","f","1","1088.7999999523163","1920 x 1080","1920 x 937","true","1","10","","","","",""
"null","<p style=""font-size: 80px;"">+ 0 points</p>","null","html-keyboard-response","34","1154971","0.0-11.0-2.33","5c28f3efdfe7fc0001cd8b28","qd87lx","SB","32","F","{""name"":""Chrome"",""chrome"":true,""version"":""106.0"",""blink"":true,""windows"":true,""osname"":""Windows"",""osversion"":""10"",""a"":true}","9:13:51","1","4","Test_2","74","f","0","730.7999999523163","1920 x 1080","1920 x 937","true","1","0","","","","",""
"null","<p style=""font-size: 80px;"">+ 10 points</p>","null","html-keyboard-response","35","1157642","0.0-11.0-2.34","5c28f3efdfe7fc0001cd8b28","qd87lx","SB","32","F","{""name"":""Chrome"",""chrome"":true,""version"":""106.0"",""blink"":true,""windows"":true,""osname"":""Windows"",""osversion"":""10"",""a"":true}","9:13:51","1","4","Test_3","74","j","1","663.3999999761581","1920 x 1080","1920 x 937","true","1","10","","","","",""
"null","<p style=""font-size: 80px;"">+ 0 points</p>","null","html-keyboard-response","36","1160807","0.0-11.0-2.35","5c28f3efdfe7fc0001cd8b28","qd87lx","SB","32","F","{""name"":""Chrome"",""chrome"":true,""version"":""106.0"",""blink"":true,""windows"":true,""osname"":""Windows"",""osversion"":""10"",""a"":true}","9:13:51","1","3","Test_1","74","f","0","1151.7999999523163","1920 x 1080","1920 x 937","true","1","0","","","","",""
"null","<p style=""font-size: 80px;"">+ 0 points</p>","null","html-keyboard-response","37","1164218","0.0-11.0-2.36","5c28f3efdfe7fc0001cd8b28","qd87lx","SB","32","F","{""name"":""Chrome"",""chrome"":true,""version"":""106.0"",""blink"":true,""windows"":true,""osname"":""Windows"",""osversion"":""10"",""a"":true}","9:13:51","1","3","Test_2","70","j","0","1403.1999999284744","1920 x 1080","1920 x 937","true","1","0","","","","",""
"null","<p style=""font-size: 80px;"">+ 10 points</p>","null","html-keyboard-response","38","1167112","0.0-11.0-2.37","5c28f3efdfe7fc0001cd8b28","qd87lx","SB","32","F","{""name"":""Chrome"",""chrome"":true,""version"":""106.0"",""blink"":true,""windows"":true,""osname"":""Windows"",""osversion"":""10"",""a"":true}","9:13:51","1","3","Test_4","74","j","1","872.3000000715256","1920 x 1080","1920 x 937","true","1","10","","","","",""
"null","<p style=""font-size: 80px;"">+ 10 points</p>","null","html-keyboard-response","39","1170121","0.0-11.0-2.38","5c28f3efdfe7fc0001cd8b28","qd87lx","SB","32","F","{""name"":""Chrome"",""chrome"":true,""version"":""106.0"",""blink"":true,""windows"":true,""osname"":""Windows"",""osversion"":""10"",""a"":true}","9:13:51","1","3","Test_2","74","j","1","983.5","1920 x 1080","1920 x 937","true","1","10","","","","",""
"null","<p style=""font-size: 80px;"">+ 10 points</p>","null","html-keyboard-response","40","1173912","0.0-11.0-2.39","5c28f3efdfe7fc0001cd8b28","qd87lx","SB","32","F","{""name"":""Chrome"",""chrome"":true,""version"":""106.0"",""blink"":true,""windows"":true,""osname"":""Windows"",""osversion"":""10"",""a"":true}","9:13:51","1","3","Test_3","70","f","1","1776.8999999761581","1920 x 1080","1920 x 937","true","1","10","","","","",""
"null","<p style=""font-size: 80px;"">+ 10 points</p>","null","html-keyboard-response","41","1176490","0.0-11.0-2.40","5c28f3efdfe7fc0001cd8b28","qd87lx","SB","32","F","{""name"":""Chrome"",""chrome"":true,""version"":""106.0"",""blink"":true,""windows"":true,""osname"":""Windows"",""osversion"":""10"",""a"":true}","9:13:51","1","3","Test_3","70","f","1","555.6999999284744","1920 x 1080","1920 x 937","true","1","10","","","","",""
"null","<p style=""font-size: 80px;"">+ 10 points</p>","null","html-keyboard-response","42","1180032","0.0-11.0-2.41","5c28f3efdfe7fc0001cd8b28","qd87lx","SB","32","F","{""name"":""Chrome"",""chrome"":true,""version"":""106.0"",""blink"":true,""windows"":true,""osname"":""Windows"",""osversion"":""10"",""a"":true}","9:13:51","1","3","Test_1","70","f","1","1521.2000000476837","1920 x 1080","1920 x 937","true","1","10","","","","",""
"null","<p style=""font-size: 80px;"">+ 10 points</p>","null","html-keyboard-response","43","1182611","0.0-11.0-2.42","5c28f3efdfe7fc0001cd8b28","qd87lx","SB","32","F","{""name"":""Chrome"",""chrome"":true,""version"":""106.0"",""blink"":true,""windows"":true,""osname"":""Windows"",""osversion"":""10"",""a"":true}","9:13:51","1","3","Test_3","70","f","1","562.3999999761581","1920 x 1080","1920 x 937","true","1","10","","","","",""
"null","<p style=""font-size: 80px;"">+ 10 points</p>","null","html-keyboard-response","44","1185329","0.0-11.0-2.43","5c28f3efdfe7fc0001cd8b28","qd87lx","SB","32","F","{""name"":""Chrome"",""chrome"":true,""version"":""106.0"",""blink"":true,""windows"":true,""osname"":""Windows"",""osversion"":""10"",""a"":true}","9:13:51","1","3","Test_1","70","f","1","712.1000000238419","1920 x 1080","1920 x 937","true","1","10","","","","",""
"null","<p style=""font-size: 80px;"">+ 10 points</p>","null","html-keyboard-response","45","1188045","0.0-11.0-2.44","5c28f3efdfe7fc0001cd8b28","qd87lx","SB","32","F","{""name"":""Chrome"",""chrome"":true,""version"":""106.0"",""blink"":true,""windows"":true,""osname"":""Windows"",""osversion"":""10"",""a"":true}","9:13:51","1","3","Test_2","74","j","1","683.7000000476837","1920 x 1080","1920 x 937","true","1","10","","","","",""
"null","<p style=""font-size: 80px;"">+ 0 points</p>","null","html-keyboard-response","46","1191242","0.0-11.0-2.45","5c28f3efdfe7fc0001cd8b28","qd87lx","SB","32","F","{""name"":""Chrome"",""chrome"":true,""version"":""106.0"",""blink"":true,""windows"":true,""osname"":""Windows"",""osversion"":""10"",""a"":true}","9:13:51","1","3","Test_3","74","f","0","1180.1000000238419","1920 x 1080","1920 x 937","true","1","0","","","","",""
"null","<p style=""font-size: 80px;"">+ 10 points</p>","null","html-keyboard-response","47","1194121","0.0-11.0-2.46","5c28f3efdfe7fc0001cd8b28","qd87lx","SB","32","F","{""name"":""Chrome"",""chrome"":true,""version"":""106.0"",""blink"":true,""windows"":true,""osname"":""Windows"",""osversion"":""10"",""a"":true}","9:13:51","1","3","Test_1","70","f","1","856.8999999761581","1920 x 1080","1920 x 937","true","1","10","","","","",""
"null","<p style=""font-size: 80px;"">+ 10 points</p>","null","html-keyboard-response","48","1196970","0.0-11.0-2.47","5c28f3efdfe7fc0001cd8b28","qd87lx","SB","32","F","{""name"":""Chrome"",""chrome"":true,""version"":""106.0"",""blink"":true,""windows"":true,""osname"":""Windows"",""osversion"":""10"",""a"":true}","9:13:51","1","3","Test_4","74","j","1","841.9000000953674","1920 x 1080","1920 x 937","true","1","10","","","","",""
"null","<p style=""font-size: 80px;"">+ 10 points</p>","null","html-keyboard-response","49","1199701","0.0-11.0-2.48","5c28f3efdfe7fc0001cd8b28","qd87lx","SB","32","F","{""name"":""Chrome"",""chrome"":true,""version"":""106.0"",""blink"":true,""windows"":true,""osname"":""Windows"",""osversion"":""10"",""a"":true}","9:13:51","1","3","Test_3","70","f","1","705.5","1920 x 1080","1920 x 937","true","1","10","","","","",""
"null","<p style=""font-size: 80px;"">+ 10 points</p>","null","html-keyboard-response","50","1202850","0.0-11.0-2.49","5c28f3efdfe7fc0001cd8b28","qd87lx","SB","32","F","{""name"":""Chrome"",""chrome"":true,""version"":""106.0"",""blink"":true,""windows"":true,""osname"":""Windows"",""osversion"":""10"",""a"":true}","9:13:51","1","3","Test_2","74","j","1","1140.9000000953674","1920 x 1080","1920 x 937","true","1","10","","","","",""
"null","<p style=""font-size: 80px;"">+ 10 points</p>","null","html-keyboard-response","51","1206107","0.0-11.0-2.50","5c28f3efdfe7fc0001cd8b28","qd87lx","SB","32","F","{""name"":""Chrome"",""chrome"":true,""version"":""106.0"",""blink"":true,""windows"":true,""osname"":""Windows"",""osversion"":""10"",""a"":true}","9:13:51","1","3","Test_4","74","j","1","1239.9000000953674","1920 x 1080","1920 x 937","true","1","10","","","","",""
"null","<p style=""font-size: 80px;"">+ 10 points</p>","null","html-keyboard-response","52","1208986","0.0-11.0-2.51","5c28f3efdfe7fc0001cd8b28","qd87lx","SB","32","F","{""name"":""Chrome"",""chrome"":true,""version"":""106.0"",""blink"":true,""windows"":true,""osname"":""Windows"",""osversion"":""10"",""a"":true}","9:13:51","1","3","Test_2","74","j","1","864.2999999523163","1920 x 1080","1920 x 937","true","1","10","","","","",""
"null","<p style=""font-size: 80px;"">+ 10 points</p>","null","html-keyboard-response","53","1211794","0.0-11.0-2.52","5c28f3efdfe7fc0001cd8b28","qd87lx","SB","32","F","{""name"":""Chrome"",""chrome"":true,""version"":""106.0"",""blink"":true,""windows"":true,""osname"":""Windows"",""osversion"":""10"",""a"":true}","9:13:51","1","3","Test_1","70","f","1","772.1000000238419","1920 x 1080","1920 x 937","true","1","10","","","","",""
"null","<p style=""font-size: 80px;"">+ 0 points</p>","null","html-keyboard-response","54","1214518","0.0-11.0-2.53","5c28f3efdfe7fc0001cd8b28","qd87lx","SB","32","F","{""name"":""Chrome"",""chrome"":true,""version"":""106.0"",""blink"":true,""windows"":true,""osname"":""Windows"",""osversion"":""10"",""a"":true}","9:13:51","1","4","Test_4","74","f","0","704.5","1920 x 1080","1920 x 937","true","1","0","","","","",""
"null","<p style=""font-size: 80px;"">+ 0 points</p>","null","html-keyboard-response","55","1217798","0.0-11.0-2.54","5c28f3efdfe7fc0001cd8b28","qd87lx","SB","32","F","{""name"":""Chrome"",""chrome"":true,""version"":""106.0"",""blink"":true,""windows"":true,""osname"":""Windows"",""osversion"":""10"",""a"":true}","9:13:51","1","4","Test_2","74","f","0","1247.8999999761581","1920 x 1080","1920 x 937","true","1","0","","","","",""
"null","<p style=""font-size: 80px;"">+ 0 points</p>","null","html-keyboard-response","56","1221210","0.0-11.0-2.55","5c28f3efdfe7fc0001cd8b28","qd87lx","SB","32","F","{""name"":""Chrome"",""chrome"":true,""version"":""106.0"",""blink"":true,""windows"":true,""osname"":""Windows"",""osversion"":""10"",""a"":true}","9:13:51","1","4","Test_2","74","f","0","1397.5","1920 x 1080","1920 x 937","true","1","0","","","","",""
"null","<p style=""font-size: 80px;"">+ 0 points</p>","null","html-keyboard-response","57","1224405","0.0-11.0-2.56","5c28f3efdfe7fc0001cd8b28","qd87lx","SB","32","F","{""name"":""Chrome"",""chrome"":true,""version"":""106.0"",""blink"":true,""windows"":true,""osname"":""Windows"",""osversion"":""10"",""a"":true}","9:13:51","1","4","Test_3","70","j","0","1184.3000000715256","1920 x 1080","1920 x 937","true","1","0","","","","",""
"null","<p style=""font-size: 80px;"">+ 10 points</p>","null","html-keyboard-response","58","1229137","0.0-11.0-2.57","5c28f3efdfe7fc0001cd8b28","qd87lx","SB","32","F","{""name"":""Chrome"",""chrome"":true,""version"":""106.0"",""blink"":true,""windows"":true,""osname"":""Windows"",""osversion"":""10"",""a"":true}","9:13:51","1","4","Test_3","74","j","1","2716.7000000476837","1920 x 1080","1920 x 937","true","1","10","","","","",""
"null","<p style=""font-size: 80px;"">+ 0 points</p>","null","html-keyboard-response","59","1235871","0.0-11.0-2.58","5c28f3efdfe7fc0001cd8b28","qd87lx","SB","32","F","{""name"":""Chrome"",""chrome"":true,""version"":""106.0"",""blink"":true,""windows"":true,""osname"":""Windows"",""osversion"":""10"",""a"":true}","9:13:51","1","4","Test_3","70","j","0","4721.700000047684","1920 x 1080","1920 x 937","true","1","0","","","","",""
"null","<p style=""font-size: 80px;"">+ 0 points</p>","null","html-keyboard-response","60","1238424","0.0-11.0-2.59","5c28f3efdfe7fc0001cd8b28","qd87lx","SB","32","F","{""name"":""Chrome"",""chrome"":true,""version"":""106.0"",""blink"":true,""windows"":true,""osname"":""Windows"",""osversion"":""10"",""a"":true}","9:13:51","1","4","Test_4","74","f","0","512.0999999046326","1920 x 1080","1920 x 937","true","1","0","","","","",""
"null","<p style=""font-size: 80px;"">+ 10 points</p>","null","html-keyboard-response","61","1241236","0.0-11.0-2.60","5c28f3efdfe7fc0001cd8b28","qd87lx","SB","32","F","{""name"":""Chrome"",""chrome"":true,""version"":""106.0"",""blink"":true,""windows"":true,""osname"":""Windows"",""osversion"":""10"",""a"":true}","9:13:51","1","4","Test_1","74","j","1","782.3999999761581","1920 x 1080","1920 x 937","true","1","10","","","","",""
"null","<p style=""font-size: 80px;"">+ 10 points</p>","null","html-keyboard-response","62","1243876","0.0-11.0-2.61","5c28f3efdfe7fc0001cd8b28","qd87lx","SB","32","F","{""name"":""Chrome"",""chrome"":true,""version"":""106.0"",""blink"":true,""windows"":true,""osname"":""Windows"",""osversion"":""10"",""a"":true}","9:13:51","1","4","Test_1","74","j","1","629.8999999761581","1920 x 1080","1920 x 937","true","1","10","","","","",""
"null","<p style=""font-size: 80px;"">+ 0 points</p>","null","html-keyboard-response","63","1246767","0.0-11.0-2.62","5c28f3efdfe7fc0001cd8b28","qd87lx","SB","32","F","{""name"":""Chrome"",""chrome"":true,""version"":""106.0"",""blink"":true,""windows"":true,""osname"":""Windows"",""osversion"":""10"",""a"":true}","9:13:51","1","4","Test_3","70","j","0","872.2000000476837","1920 x 1080","1920 x 937","true","1","0","","","","",""
"null","<p style=""font-size: 80px;"">+ 10 points</p>","null","html-keyboard-response","64","1249346","0.0-11.0-2.63","5c28f3efdfe7fc0001cd8b28","qd87lx","SB","32","F","{""name"":""Chrome"",""chrome"":true,""version"":""106.0"",""blink"":true,""windows"":true,""osname"":""Windows"",""osversion"":""10"",""a"":true}","9:13:51","1","4","Test_1","74","j","1","545.3000000715256","1920 x 1080","1920 x 937","true","1","10","","","","",""
"null","<p style=""font-size: 80px;"">+ 0 points</p>","null","html-keyboard-response","65","1252241","0.0-11.0-2.64","5c28f3efdfe7fc0001cd8b28","qd87lx","SB","32","F","{""name"":""Chrome"",""chrome"":true,""version"":""106.0"",""blink"":true,""windows"":true,""osname"":""Windows"",""osversion"":""10"",""a"":true}","9:13:51","1","4","Test_4","74","f","0","872.5","1920 x 1080","1920 x 937","true","1","0","","","","",""
"null","<p style=""font-size: 80px;"">+ 10 points</p>","null","html-keyboard-response","66","1254695","0.0-11.0-2.65","5c28f3efdfe7fc0001cd8b28","qd87lx","SB","32","F","{""name"":""Chrome"",""chrome"":true,""version"":""106.0"",""blink"":true,""windows"":true,""osname"":""Windows"",""osversion"":""10"",""a"":true}","9:13:51","1","4","Test_4","70","f","1","435.8000000715256","1920 x 1080","1920 x 937","true","1","10","","","","",""
"null","<p style=""font-size: 80px;"">+ 10 points</p>","null","html-keyboard-response","67","1257403","0.0-11.0-2.66","5c28f3efdfe7fc0001cd8b28","qd87lx","SB","32","F","{""name"":""Chrome"",""chrome"":true,""version"":""106.0"",""blink"":true,""windows"":true,""osname"":""Windows"",""osversion"":""10"",""a"":true}","9:13:51","1","4","Test_1","74","j","1","700.1000000238419","1920 x 1080","1920 x 937","true","1","10","","","","",""
"null","<p style=""font-size: 80px;"">+ 10 points</p>","null","html-keyboard-response","68","1260349","0.0-11.0-2.67","5c28f3efdfe7fc0001cd8b28","qd87lx","SB","32","F","{""name"":""Chrome"",""chrome"":true,""version"":""106.0"",""blink"":true,""windows"":true,""osname"":""Windows"",""osversion"":""10"",""a"":true}","9:13:51","1","4","Test_2","70","f","1","927.5","1920 x 1080","1920 x 937","true","1","10","","","","",""
"null","<p style=""font-size: 80px;"">+ 0 points</p>","null","html-keyboard-response","69","1263243","0.0-11.0-2.68","5c28f3efdfe7fc0001cd8b28","qd87lx","SB","32","F","{""name"":""Chrome"",""chrome"":true,""version"":""106.0"",""blink"":true,""windows"":true,""osname"":""Windows"",""osversion"":""10"",""a"":true}","9:13:51","1","4","Test_4","74","f","0","877","1920 x 1080","1920 x 937","true","1","0","","","","",""
"null","<p style=""font-size: 80px;"">+ 0 points</p>","null","html-keyboard-response","70","1265914","0.0-11.0-2.69","5c28f3efdfe7fc0001cd8b28","qd87lx","SB","32","F","{""name"":""Chrome"",""chrome"":true,""version"":""106.0"",""blink"":true,""windows"":true,""osname"":""Windows"",""osversion"":""10"",""a"":true}","9:13:51","1","4","Test_2","74","f","0","646.9000000953674","1920 x 1080","1920 x 937","true","1","0","","","","",""
"null","<p style=""font-size: 80px;"">+ 0 points</p>","null","html-keyboard-response","71","1268307","0.0-11.0-2.70","5c28f3efdfe7fc0001cd8b28","qd87lx","SB","32","F","{""name"":""Chrome"",""chrome"":true,""version"":""106.0"",""blink"":true,""windows"":true,""osname"":""Windows"",""osversion"":""10"",""a"":true}","9:13:51","1","4","Test_3","70","j","0","383.89999997615814","1920 x 1080","1920 x 937","true","1","0","","","","",""
"null","<p style=""font-size: 80px;"">+ 0 points</p>","null","html-keyboard-response","72","1271348","0.0-11.0-2.71","5c28f3efdfe7fc0001cd8b28","qd87lx","SB","32","F","{""name"":""Chrome"",""chrome"":true,""version"":""106.0"",""blink"":true,""windows"":true,""osname"":""Windows"",""osversion"":""10"",""a"":true}","9:13:51","1","4","Test_1","70","j","0","1022.6999999284744","1920 x 1080","1920 x 937","true","1","0","","","","",""
"null","<p style=""font-size: 80px;"">+ 10 points</p>","null","html-keyboard-response","73","1273768","0.0-11.0-2.72","5c28f3efdfe7fc0001cd8b28","qd87lx","SB","32","F","{""name"":""Chrome"",""chrome"":true,""version"":""106.0"",""blink"":true,""windows"":true,""osname"":""Windows"",""osversion"":""10"",""a"":true}","9:13:51","1","4","Test_1","74","j","1","391.10000002384186","1920 x 1080","1920 x 937","true","1","10","","","","",""
"null","<p style=""font-size: 80px;"">+ 0 points</p>","null","html-keyboard-response","74","1276417","0.0-11.0-2.73","5c28f3efdfe7fc0001cd8b28","qd87lx","SB","32","F","{""name"":""Chrome"",""chrome"":true,""version"":""106.0"",""blink"":true,""windows"":true,""osname"":""Windows"",""osversion"":""10"",""a"":true}","9:13:51","1","4","Test_4","74","f","0","629.0999999046326","1920 x 1080","1920 x 937","true","1","0","","","","",""
"null","<p style=""font-size: 80px;"">+ 0 points</p>","null","html-keyboard-response","75","1279190","0.0-11.0-2.74","5c28f3efdfe7fc0001cd8b28","qd87lx","SB","32","F","{""name"":""Chrome"",""chrome"":true,""version"":""106.0"",""blink"":true,""windows"":true,""osname"":""Windows"",""osversion"":""10"",""a"":true}","9:13:51","1","4","Test_2","74","f","0","758","1920 x 1080","1920 x 937","true","1","0","","","","",""
"null","<p style=""font-size: 80px;"">+ 10 points</p>","null","html-keyboard-response","76","1281998","0.0-11.0-2.75","5c28f3efdfe7fc0001cd8b28","qd87lx","SB","32","F","{""name"":""Chrome"",""chrome"":true,""version"":""106.0"",""blink"":true,""windows"":true,""osname"":""Windows"",""osversion"":""10"",""a"":true}","9:13:51","1","4","Test_2","70","f","1","767","1920 x 1080","1920 x 937","true","1","10","","","","",""
"null","<p style=""font-size: 80px;"">+ 0 points</p>","null","html-keyboard-response","77","1285314","0.0-11.0-2.76","5c28f3efdfe7fc0001cd8b28","qd87lx","SB","32","F","{""name"":""Chrome"",""chrome"":true,""version"":""106.0"",""blink"":true,""windows"":true,""osname"":""Windows"",""osversion"":""10"",""a"":true}","9:13:51","1","4","Test_3","70","j","0","1307","1920 x 1080","1920 x 937","true","1","0","","","","",""
"null","<p style=""font-size: 80px;"">+ 10 points</p>","null","html-keyboard-response","78","1287735","0.0-11.0-2.77","5c28f3efdfe7fc0001cd8b28","qd87lx","SB","32","F","{""name"":""Chrome"",""chrome"":true,""version"":""106.0"",""blink"":true,""windows"":true,""osname"":""Windows"",""osversion"":""10"",""a"":true}","9:13:51","1","3","Test_2","74","j","1","388.39999997615814","1920 x 1080","1920 x 937","true","1","10","","","","",""
"null","<p style=""font-size: 80px;"">+ 10 points</p>","null","html-keyboard-response","79","1290283","0.0-11.0-2.78","5c28f3efdfe7fc0001cd8b28","qd87lx","SB","32","F","{""name"":""Chrome"",""chrome"":true,""version"":""106.0"",""blink"":true,""windows"":true,""osname"":""Windows"",""osversion"":""10"",""a"":true}","9:13:51","1","3","Test_2","74","j","1","521.6999999284744","1920 x 1080","1920 x 937","true","1","10","","","","",""
"null","<p style=""font-size: 80px;"">+ 10 points</p>","null","html-keyboard-response","80","1293108","0.0-11.0-2.79","5c28f3efdfe7fc0001cd8b28","qd87lx","SB","32","F","{""name"":""Chrome"",""chrome"":true,""version"":""106.0"",""blink"":true,""windows"":true,""osname"":""Windows"",""osversion"":""10"",""a"":true}","9:13:51","1","3","Test_3","70","f","1","795.6000000238419","1920 x 1080","1920 x 937","true","1","10","","","","",""
"null","<p style=""font-size: 80px;"">+ 10 points</p>","null","html-keyboard-response","81","1295611","0.0-11.0-2.80","5c28f3efdfe7fc0001cd8b28","qd87lx","SB","32","F","{""name"":""Chrome"",""chrome"":true,""version"":""106.0"",""blink"":true,""windows"":true,""osname"":""Windows"",""osversion"":""10"",""a"":true}","9:13:51","1","3","Test_3","70","f","1","494.7000000476837","1920 x 1080","1920 x 937","true","1","10","","","","",""
"null","<p style=""font-size: 80px;"">+ 10 points</p>","null","html-keyboard-response","82","1298341","0.0-11.0-2.81","5c28f3efdfe7fc0001cd8b28","qd87lx","SB","32","F","{""name"":""Chrome"",""chrome"":true,""version"":""106.0"",""blink"":true,""windows"":true,""osname"":""Windows"",""osversion"":""10"",""a"":true}","9:13:51","1","3","Test_2","74","j","1","698.2000000476837","1920 x 1080","1920 x 937","true","1","10","","","","",""
"null","<p style=""font-size: 80px;"">+ 10 points</p>","null","html-keyboard-response","83","1300951","0.0-11.0-2.82","5c28f3efdfe7fc0001cd8b28","qd87lx","SB","32","F","{""name"":""Chrome"",""chrome"":true,""version"":""106.0"",""blink"":true,""windows"":true,""osname"":""Windows"",""osversion"":""10"",""a"":true}","9:13:51","1","3","Test_3","70","f","1","583.8000000715256","1920 x 1080","1920 x 937","true","1","10","","","","",""
"null","<p style=""font-size: 80px;"">+ 10 points</p>","null","html-keyboard-response","84","1304296","0.0-11.0-2.83","5c28f3efdfe7fc0001cd8b28","qd87lx","SB","32","F","{""name"":""Chrome"",""chrome"":true,""version"":""106.0"",""blink"":true,""windows"":true,""osname"":""Windows"",""osversion"":""10"",""a"":true}","9:13:51","1","3","Test_1","70","f","1","1314.1000000238419","1920 x 1080","1920 x 937","true","1","10","","","","",""
"null","<p style=""font-size: 80px;"">+ 10 points</p>","null","html-keyboard-response","85","1306826","0.0-11.0-2.84","5c28f3efdfe7fc0001cd8b28","qd87lx","SB","32","F","{""name"":""Chrome"",""chrome"":true,""version"":""106.0"",""blink"":true,""windows"":true,""osname"":""Windows"",""osversion"":""10"",""a"":true}","9:13:51","1","3","Test_1","70","f","1","517.3000000715256","1920 x 1080","1920 x 937","true","1","10","","","","",""
"null","<p style=""font-size: 80px;"">+ 10 points</p>","null","html-keyboard-response","86","1309291","0.0-11.0-2.85","5c28f3efdfe7fc0001cd8b28","qd87lx","SB","32","F","{""name"":""Chrome"",""chrome"":true,""version"":""106.0"",""blink"":true,""windows"":true,""osname"":""Windows"",""osversion"":""10"",""a"":true}","9:13:51","1","3","Test_1","70","f","1","433.8000000715256","1920 x 1080","1920 x 937","true","1","10","","","","",""
"null","<p style=""font-size: 80px;"">+ 10 points</p>","null","html-keyboard-response","87","1311921","0.0-11.0-2.86","5c28f3efdfe7fc0001cd8b28","qd87lx","SB","32","F","{""name"":""Chrome"",""chrome"":true,""version"":""106.0"",""blink"":true,""windows"":true,""osname"":""Windows"",""osversion"":""10"",""a"":true}","9:13:51","1","3","Test_2","74","j","1","619.6999999284744","1920 x 1080","1920 x 937","true","1","10","","","","",""
"null","<p style=""font-size: 80px;"">+ 10 points</p>","null","html-keyboard-response","88","1314793","0.0-11.0-2.87","5c28f3efdfe7fc0001cd8b28","qd87lx","SB","32","F","{""name"":""Chrome"",""chrome"":true,""version"":""106.0"",""blink"":true,""windows"":true,""osname"":""Windows"",""osversion"":""10"",""a"":true}","9:13:51","1","3","Test_4","74","j","1","852.8999999761581","1920 x 1080","1920 x 937","true","1","10","","","","",""
"null","<p style=""font-size: 80px;"">+ 10 points</p>","null","html-keyboard-response","89","1317355","0.0-11.0-2.88","5c28f3efdfe7fc0001cd8b28","qd87lx","SB","32","F","{""name"":""Chrome"",""chrome"":true,""version"":""106.0"",""blink"":true,""windows"":true,""osname"":""Windows"",""osversion"":""10"",""a"":true}","9:13:51","1","3","Test_1","70","f","1","549.3000000715256","1920 x 1080","1920 x 937","true","1","10","","","","",""
"null","<p style=""font-size: 80px;"">+ 10 points</p>","null","html-keyboard-response","90","1319905","0.0-11.0-2.89","5c28f3efdfe7fc0001cd8b28","qd87lx","SB","32","F","{""name"":""Chrome"",""chrome"":true,""version"":""106.0"",""blink"":true,""windows"":true,""osname"":""Windows"",""osversion"":""10"",""a"":true}","9:13:51","1","3","Test_4","74","j","1","531.2999999523163","1920 x 1080","1920 x 937","true","1","10","","","","",""
"null","<p style=""font-size: 80px;"">+ 10 points</p>","null","html-keyboard-response","91","1322734","0.0-11.0-2.90","5c28f3efdfe7fc0001cd8b28","qd87lx","SB","32","F","{""name"":""Chrome"",""chrome"":true,""version"":""106.0"",""blink"":true,""windows"":true,""osname"":""Windows"",""osversion"":""10"",""a"":true}","9:13:51","1","3","Test_3","70","f","1","801.8999999761581","1920 x 1080","1920 x 937","true","1","10","","","","",""
"null","<p style=""font-size: 80px;"">+ 10 points</p>","null","html-keyboard-response","92","1325313","0.0-11.0-2.91","5c28f3efdfe7fc0001cd8b28","qd87lx","SB","32","F","{""name"":""Chrome"",""chrome"":true,""version"":""106.0"",""blink"":true,""windows"":true,""osname"":""Windows"",""osversion"":""10"",""a"":true}","9:13:51","1","3","Test_4","74","j","1","560.7000000476837","1920 x 1080","1920 x 937","true","1","10","","","","",""
"null","<p style=""font-size: 80px;"">+ 10 points</p>","null","html-keyboard-response","93","1327807","0.0-11.0-2.92","5c28f3efdfe7fc0001cd8b28","qd87lx","SB","32","F","{""name"":""Chrome"",""chrome"":true,""version"":""106.0"",""blink"":true,""windows"":true,""osname"":""Windows"",""osversion"":""10"",""a"":true}","9:13:51","1","3","Test_4","74","j","1","485.7999999523163","1920 x 1080","1920 x 937","true","1","10","","","","",""
"null","<p style=""font-size: 80px;"">+ 0 points</p>","null","html-keyboard-response","94","1330600","0.0-11.0-2.93","5c28f3efdfe7fc0001cd8b28","qd87lx","SB","32","F","{""name"":""Chrome"",""chrome"":true,""version"":""106.0"",""blink"":true,""windows"":true,""osname"":""Windows"",""osversion"":""10"",""a"":true}","9:13:51","1","4","Test_2","74","f","0","783.6999999284744","1920 x 1080","1920 x 937","true","1","0","","","","",""
"null","<p style=""font-size: 80px;"">+ 0 points</p>","null","html-keyboard-response","95","1333169","0.0-11.0-2.94","5c28f3efdfe7fc0001cd8b28","qd87lx","SB","32","F","{""name"":""Chrome"",""chrome"":true,""version"":""106.0"",""blink"":true,""windows"":true,""osname"":""Windows"",""osversion"":""10"",""a"":true}","9:13:51","1","4","Test_3","70","j","0","558.5","1920 x 1080","1920 x 937","true","1","0","","","","",""
"null","<p style=""font-size: 80px;"">+ 0 points</p>","null","html-keyboard-response","96","1335901","0.0-11.0-2.95","5c28f3efdfe7fc0001cd8b28","qd87lx","SB","32","F","{""name"":""Chrome"",""chrome"":true,""version"":""106.0"",""blink"":true,""windows"":true,""osname"":""Windows"",""osversion"":""10"",""a"":true}","9:13:51","1","4","Test_2","74","f","0","716.1000000238419","1920 x 1080","1920 x 937","true","1","0","","","","",""
"null","<p style=""font-size: 80px;"">+ 10 points</p>","null","html-keyboard-response","97","1338780","0.0-11.0-2.96","5c28f3efdfe7fc0001cd8b28","qd87lx","SB","32","F","{""name"":""Chrome"",""chrome"":true,""version"":""106.0"",""blink"":true,""windows"":true,""osname"":""Windows"",""osversion"":""10"",""a"":true}","9:13:51","1","4","Test_2","70","f","1","864.3000000715256","1920 x 1080","1920 x 937","true","1","10","","","","",""
"null","<p style=""font-size: 80px;"">+ 10 points</p>","null","html-keyboard-response","98","1341952","0.0-11.0-2.97","5c28f3efdfe7fc0001cd8b28","qd87lx","SB","32","F","{""name"":""Chrome"",""chrome"":true,""version"":""106.0"",""blink"":true,""windows"":true,""osname"":""Windows"",""osversion"":""10"",""a"":true}","9:13:51","1","4","Test_4","70","f","1","1150.5","1920 x 1080","1920 x 937","true","1","10","","","","",""
"null","<p style=""font-size: 80px;"">+ 10 points</p>","null","html-keyboard-response","99","1345031","0.0-11.0-2.98","5c28f3efdfe7fc0001cd8b28","qd87lx","SB","32","F","{""name"":""Chrome"",""chrome"":true,""version"":""106.0"",""blink"":true,""windows"":true,""osname"":""Windows"",""osversion"":""10"",""a"":true}","9:13:51","1","4","Test_1","74","j","1","1059.3999999761581","1920 x 1080","1920 x 937","true","1","10","","","","",""
"null","<p style=""font-size: 80px;"">+ 10 points</p>","null","html-keyboard-response","100","1347573","0.0-11.0-2.99","5c28f3efdfe7fc0001cd8b28","qd87lx","SB","32","F","{""name"":""Chrome"",""chrome"":true,""version"":""106.0"",""blink"":true,""windows"":true,""osname"":""Windows"",""osversion"":""10"",""a"":true}","9:13:51","1","4","Test_1","74","j","1","517.3999999761581","1920 x 1080","1920 x 937","true","1","10","","","","",""
"null","<p style=""font-size: 80px;"">+ 10 points</p>","null","html-keyboard-response","101","1350229","0.0-11.0-2.100","5c28f3efdfe7fc0001cd8b28","qd87lx","SB","32","F","{""name"":""Chrome"",""chrome"":true,""version"":""106.0"",""blink"":true,""windows"":true,""osname"":""Windows"",""osversion"":""10"",""a"":true}","9:13:51","1","4","Test_4","70","f","1","648.2000000476837","1920 x 1080","1920 x 937","true","1","10","","","","",""
"null","<p style=""font-size: 80px;"">+ 10 points</p>","null","html-keyboard-response","102","1352907","0.0-11.0-2.101","5c28f3efdfe7fc0001cd8b28","qd87lx","SB","32","F","{""name"":""Chrome"",""chrome"":true,""version"":""106.0"",""blink"":true,""windows"":true,""osname"":""Windows"",""osversion"":""10"",""a"":true}","9:13:51","1","4","Test_3","74","j","1","657.8999999761581","1920 x 1080","1920 x 937","true","1","10","","","","",""
"null","<p style=""font-size: 80px;"">+ 10 points</p>","null","html-keyboard-response","103","1355500","0.0-11.0-2.102","5c28f3efdfe7fc0001cd8b28","qd87lx","SB","32","F","{""name"":""Chrome"",""chrome"":true,""version"":""106.0"",""blink"":true,""windows"":true,""osname"":""Windows"",""osversion"":""10"",""a"":true}","9:13:51","1","4","Test_3","74","j","1","580","1920 x 1080","1920 x 937","true","1","10","","","","",""
"null","<p style=""font-size: 80px;"">+ 10 points</p>","null","html-keyboard-response","104","1359185","0.0-11.0-2.103","5c28f3efdfe7fc0001cd8b28","qd87lx","SB","32","F","{""name"":""Chrome"",""chrome"":true,""version"":""106.0"",""blink"":true,""windows"":true,""osname"":""Windows"",""osversion"":""10"",""a"":true}","9:13:51","1","4","Test_4","70","f","1","1664.3999999761581","1920 x 1080","1920 x 937","true","1","10","","","","",""
"null","<p style=""font-size: 80px; line-height: 1.4em;"">Too late</br> Speed up!</p>","null","html-keyboard-response","105","1368190","0.0-11.0-2.104","5c28f3efdfe7fc0001cd8b28","qd87lx","SB","32","F","{""name"":""Chrome"",""chrome"":true,""version"":""106.0"",""blink"":true,""windows"":true,""osname"":""Windows"",""osversion"":""10"",""a"":true}","9:13:51","1","4","Test_2","null","f","0","null","1920 x 1080","1920 x 937","false","1","0","","","","",""
"null","<p style=""font-size: 80px; line-height: 1.4em;"">Too late</br> Speed up!</p>","null","html-keyboard-response","106","1378204","0.0-11.0-2.105","5c28f3efdfe7fc0001cd8b28","qd87lx","SB","32","F","{""name"":""Chrome"",""chrome"":true,""version"":""106.0"",""blink"":true,""windows"":true,""osname"":""Windows"",""osversion"":""10"",""a"":true}","9:13:51","1","4","Test_1","null","j","0","null","1920 x 1080","1920 x 937","false","1","0","","","","",""
"null","<p style=""font-size: 80px; line-height: 1.4em;"">Too late</br> Speed up!</p>","null","html-keyboard-response","107","1388190","0.0-11.0-2.106","5c28f3efdfe7fc0001cd8b28","qd87lx","SB","32","F","{""name"":""Chrome"",""chrome"":true,""version"":""106.0"",""blink"":true,""windows"":true,""osname"":""Windows"",""osversion"":""10"",""a"":true}","9:13:51","1","4","Test_4","null","f","0","null","1920 x 1080","1920 x 937","false","1","0","","","","",""
"null","<p style=""font-size: 80px; line-height: 1.4em;"">Too late</br> Speed up!</p>","null","html-keyboard-response","108","1398195","0.0-11.0-2.107","5c28f3efdfe7fc0001cd8b28","qd87lx","SB","32","F","{""name"":""Chrome"",""chrome"":true,""version"":""106.0"",""blink"":true,""windows"":true,""osname"":""Windows"",""osversion"":""10"",""a"":true}","9:13:51","1","4","Test_4","null","f","0","null","1920 x 1080","1920 x 937","false","1","0","","","","",""
"null","<p style=""font-size: 80px; line-height: 1.4em;"">Too late</br> Speed up!</p>","null","html-keyboard-response","109","1408190","0.0-11.0-2.108","5c28f3efdfe7fc0001cd8b28","qd87lx","SB","32","F","{""name"":""Chrome"",""chrome"":true,""version"":""106.0"",""blink"":true,""windows"":true,""osname"":""Windows"",""osversion"":""10"",""a"":true}","9:13:51","1","4","Test_1","null","j","0","null","1920 x 1080","1920 x 937","false","1","0","","","","",""
"null","<p style=""font-size: 80px;"">+ 10 points</p>","null","html-keyboard-response","110","1915739","0.0-11.0-2.109","5c28f3efdfe7fc0001cd8b28","qd87lx","SB","32","F","{""name"":""Chrome"",""chrome"":true,""version"":""106.0"",""blink"":true,""windows"":true,""osname"":""Windows"",""osversion"":""10"",""a"":true}","9:13:51","1","4","Test_3","74","j","1","927.7999999523163","1920 x 1080","1920 x 937","true","1","10","","","","",""
"null","<p style=""font-size: 80px;"">+ 0 points</p>","null","html-keyboard-response","111","1918410","0.0-11.0-2.110","5c28f3efdfe7fc0001cd8b28","qd87lx","SB","32","F","{""name"":""Chrome"",""chrome"":true,""version"":""106.0"",""blink"":true,""windows"":true,""osname"":""Windows"",""osversion"":""10"",""a"":true}","9:13:51","1","4","Test_2","74","f","0","664.6000000238419","1920 x 1080","1920 x 937","true","1","0","","","","",""
"null","<p style=""font-size: 80px;"">+ 10 points</p>","null","html-keyboard-response","112","1921006","0.0-11.0-2.111","5c28f3efdfe7fc0001cd8b28","qd87lx","SB","32","F","{""name"":""Chrome"",""chrome"":true,""version"":""106.0"",""blink"":true,""windows"":true,""osname"":""Windows"",""osversion"":""10"",""a"":true}","9:13:51","1","4","Test_3","74","j","1","582.1000000238419","1920 x 1080","1920 x 937","true","1","10","","","","",""
"null","<p style=""font-size: 80px;"">+ 10 points</p>","null","html-keyboard-response","113","1923629","0.0-11.0-2.112","5c28f3efdfe7fc0001cd8b28","qd87lx","SB","32","F","{""name"":""Chrome"",""chrome"":true,""version"":""106.0"",""blink"":true,""windows"":true,""osname"":""Windows"",""osversion"":""10"",""a"":true}","9:13:51","1","4","Test_2","70","f","1","598.1999999284744","1920 x 1080","1920 x 937","true","1","10","","","","",""
"null","<p style=""font-size: 80px;"">+ 10 points</p>","null","html-keyboard-response","114","1926307","0.0-11.0-2.113","5c28f3efdfe7fc0001cd8b28","qd87lx","SB","32","F","{""name"":""Chrome"",""chrome"":true,""version"":""106.0"",""blink"":true,""windows"":true,""osname"":""Windows"",""osversion"":""10"",""a"":true}","9:13:51","1","4","Test_1","74","j","1","643","1920 x 1080","1920 x 937","true","1","10","","","","",""
"null","<p style=""font-size: 80px;"">+ 10 points</p>","null","html-keyboard-response","115","1929212","0.0-11.0-2.114","5c28f3efdfe7fc0001cd8b28","qd87lx","SB","32","F","{""name"":""Chrome"",""chrome"":true,""version"":""106.0"",""blink"":true,""windows"":true,""osname"":""Windows"",""osversion"":""10"",""a"":true}","9:13:51","1","4","Test_4","70","f","1","896.7999999523163","1920 x 1080","1920 x 937","true","1","10","","","","",""
"null","<p style=""font-size: 80px;"">+ 10 points</p>","null","html-keyboard-response","116","1932133","0.0-11.0-2.115","5c28f3efdfe7fc0001cd8b28","qd87lx","SB","32","F","{""name"":""Chrome"",""chrome"":true,""version"":""106.0"",""blink"":true,""windows"":true,""osname"":""Windows"",""osversion"":""10"",""a"":true}","9:13:51","1","4","Test_1","74","j","1","901.7999999523163","1920 x 1080","1920 x 937","true","1","10","","","","",""
"null","<p style=""font-size: 80px;"">+ 10 points</p>","null","html-keyboard-response","117","1935174","0.0-11.0-2.116","5c28f3efdfe7fc0001cd8b28","qd87lx","SB","32","F","{""name"":""Chrome"",""chrome"":true,""version"":""106.0"",""blink"":true,""windows"":true,""osname"":""Windows"",""osversion"":""10"",""a"":true}","9:13:51","1","4","Test_3","74","j","1","1030.8000000715256","1920 x 1080","1920 x 937","true","1","10","","","","",""
"null","<p style=""font-size: 80px;"">+ 0 points</p>","null","html-keyboard-response","118","1938113","0.0-11.0-2.117","5c28f3efdfe7fc0001cd8b28","qd87lx","SB","32","F","{""name"":""Chrome"",""chrome"":true,""version"":""106.0"",""blink"":true,""windows"":true,""osname"":""Windows"",""osversion"":""10"",""a"":true}","9:13:51","1","3","Test_1","74","f","0","917.6000000238419","1920 x 1080","1920 x 937","true","1","0","","","","",""
"null","<p style=""font-size: 80px;"">+ 10 points</p>","null","html-keyboard-response","119","1941152","0.0-11.0-2.118","5c28f3efdfe7fc0001cd8b28","qd87lx","SB","32","F","{""name"":""Chrome"",""chrome"":true,""version"":""106.0"",""blink"":true,""windows"":true,""osname"":""Windows"",""osversion"":""10"",""a"":true}","9:13:51","1","3","Test_2","74","j","1","1014.6000000238419","1920 x 1080","1920 x 937","true","1","10","","","","",""
"null","<p style=""font-size: 80px;"">+ 10 points</p>","null","html-keyboard-response","120","1944163","0.0-11.0-2.119","5c28f3efdfe7fc0001cd8b28","qd87lx","SB","32","F","{""name"":""Chrome"",""chrome"":true,""version"":""106.0"",""blink"":true,""windows"":true,""osname"":""Windows"",""osversion"":""10"",""a"":true}","9:13:51","1","3","Test_4","74","j","1","987.1000000238419","1920 x 1080","1920 x 937","true","1","10","","","","",""
"null","<p style=""font-size: 80px;"">+ 10 points</p>","null","html-keyboard-response","121","1946636","0.0-11.0-2.120","5c28f3efdfe7fc0001cd8b28","qd87lx","SB","32","F","{""name"":""Chrome"",""chrome"":true,""version"":""106.0"",""blink"":true,""windows"":true,""osname"":""Windows"",""osversion"":""10"",""a"":true}","9:13:51","1","3","Test_4","74","j","1","465.2999999523163","1920 x 1080","1920 x 937","true","1","10","","","","",""
"null","<p style=""font-size: 80px;"">+ 10 points</p>","null","html-keyboard-response","122","1949412","0.0-11.0-2.121","5c28f3efdfe7fc0001cd8b28","qd87lx","SB","32","F","{""name"":""Chrome"",""chrome"":true,""version"":""106.0"",""blink"":true,""windows"":true,""osname"":""Windows"",""osversion"":""10"",""a"":true}","9:13:51","1","3","Test_1","70","f","1","755","1920 x 1080","1920 x 937","true","1","10","","","","",""
"null","<p style=""font-size: 80px;"">+ 10 points</p>","null","html-keyboard-response","123","1952808","0.0-11.0-2.122","5c28f3efdfe7fc0001cd8b28","qd87lx","SB","32","F","{""name"":""Chrome"",""chrome"":true,""version"":""106.0"",""blink"":true,""windows"":true,""osname"":""Windows"",""osversion"":""10"",""a"":true}","9:13:51","1","3","Test_3","70","f","1","1385.2000000476837","1920 x 1080","1920 x 937","true","1","10","","","","",""
"null","<p style=""font-size: 80px;"">+ 10 points</p>","null","html-keyboard-response","124","1955332","0.0-11.0-2.123","5c28f3efdfe7fc0001cd8b28","qd87lx","SB","32","F","{""name"":""Chrome"",""chrome"":true,""version"":""106.0"",""blink"":true,""windows"":true,""osname"":""Windows"",""osversion"":""10"",""a"":true}","9:13:51","1","3","Test_4","74","j","1","506.89999997615814","1920 x 1080","1920 x 937","true","1","10","","","","",""
"null","<p style=""font-size: 80px;"">+ 10 points</p>","null","html-keyboard-response","125","1957812","0.0-11.0-2.124","5c28f3efdfe7fc0001cd8b28","qd87lx","SB","32","F","{""name"":""Chrome"",""chrome"":true,""version"":""106.0"",""blink"":true,""windows"":true,""osname"":""Windows"",""osversion"":""10"",""a"":true}","9:13:51","1","3","Test_1","70","f","1","461.7000000476837","1920 x 1080","1920 x 937","true","1","10","","","","",""
"null","<p style=""font-size: 80px;"">+ 10 points</p>","null","html-keyboard-response","126","1960421","0.0-11.0-2.125","5c28f3efdfe7fc0001cd8b28","qd87lx","SB","32","F","{""name"":""Chrome"",""chrome"":true,""version"":""106.0"",""blink"":true,""windows"":true,""osname"":""Windows"",""osversion"":""10"",""a"":true}","9:13:51","1","3","Test_3","70","f","1","600.2000000476837","1920 x 1080","1920 x 937","true","1","10","","","","",""
"null","<p style=""font-size: 80px;"">+ 10 points</p>","null","html-keyboard-response","127","1963332","0.0-11.0-2.126","5c28f3efdfe7fc0001cd8b28","qd87lx","SB","32","F","{""name"":""Chrome"",""chrome"":true,""version"":""106.0"",""blink"":true,""windows"":true,""osname"":""Windows"",""osversion"":""10"",""a"":true}","9:13:51","1","3","Test_2","74","j","1","894.5","1920 x 1080","1920 x 937","true","1","10","","","","",""
"null","<p style=""font-size: 80px;"">+ 10 points</p>","null","html-keyboard-response","128","1966002","0.0-11.0-2.127","5c28f3efdfe7fc0001cd8b28","qd87lx","SB","32","F","{""name"":""Chrome"",""chrome"":true,""version"":""106.0"",""blink"":true,""windows"":true,""osname"":""Windows"",""osversion"":""10"",""a"":true}","9:13:51","1","3","Test_1","70","f","1","639.8999999761581","1920 x 1080","1920 x 937","true","1","10","","","","",""
"null","<p style=""font-size: 80px;"">+ 10 points</p>","null","html-keyboard-response","129","1968608","0.0-11.0-2.128","5c28f3efdfe7fc0001cd8b28","qd87lx","SB","32","F","{""name"":""Chrome"",""chrome"":true,""version"":""106.0"",""blink"":true,""windows"":true,""osname"":""Windows"",""osversion"":""10"",""a"":true}","9:13:51","1","3","Test_2","74","j","1","571.7999999523163","1920 x 1080","1920 x 937","true","1","10","","","","",""
"null","<p style=""font-size: 80px;"">+ 10 points</p>","null","html-keyboard-response","130","1971471","0.0-11.0-2.129","5c28f3efdfe7fc0001cd8b28","qd87lx","SB","32","F","{""name"":""Chrome"",""chrome"":true,""version"":""106.0"",""blink"":true,""windows"":true,""osname"":""Windows"",""osversion"":""10"",""a"":true}","9:13:51","1","3","Test_1","70","f","1","841.6000000238419","1920 x 1080","1920 x 937","true","1","10","","","","",""
"null","<p style=""font-size: 80px;"">+ 10 points</p>","null","html-keyboard-response","131","1974310","0.0-11.0-2.130","5c28f3efdfe7fc0001cd8b28","qd87lx","SB","32","F","{""name"":""Chrome"",""chrome"":true,""version"":""106.0"",""blink"":true,""windows"":true,""osname"":""Windows"",""osversion"":""10"",""a"":true}","9:13:51","1","3","Test_3","70","f","1","821.1000000238419","1920 x 1080","1920 x 937","true","1","10","","","","",""
"null","<p style=""font-size: 80px;"">+ 10 points</p>","null","html-keyboard-response","132","1976941","0.0-11.0-2.131","5c28f3efdfe7fc0001cd8b28","qd87lx","SB","32","F","{""name"":""Chrome"",""chrome"":true,""version"":""106.0"",""blink"":true,""windows"":true,""osname"":""Windows"",""osversion"":""10"",""a"":true}","9:13:51","1","3","Test_4","74","j","1","610.1999999284744","1920 x 1080","1920 x 937","true","1","10","","","","",""
"null","<p style=""font-size: 80px;"">+ 10 points</p>","null","html-keyboard-response","133","1979800","0.0-11.0-2.132","5c28f3efdfe7fc0001cd8b28","qd87lx","SB","32","F","{""name"":""Chrome"",""chrome"":true,""version"":""106.0"",""blink"":true,""windows"":true,""osname"":""Windows"",""osversion"":""10"",""a"":true}","9:13:51","1","3","Test_3","70","f","1","836.1000000238419","1920 x 1080","1920 x 937","true","1","10","","","","",""
"null","<p style=""font-size: 80px;"">+ 10 points</p>","null","html-keyboard-response","134","1982410","0.0-11.0-2.133","5c28f3efdfe7fc0001cd8b28","qd87lx","SB","32","F","{""name"":""Chrome"",""chrome"":true,""version"":""106.0"",""blink"":true,""windows"":true,""osname"":""Windows"",""osversion"":""10"",""a"":true}","9:13:51","1","3","Test_2","74","j","1","595.1999999284744","1920 x 1080","1920 x 937","true","1","10","","","","",""
"null","<p style=""font-size: 80px;"">+ 0 points</p>","null","html-keyboard-response","135","1985049","0.0-11.0-2.134","5c28f3efdfe7fc0001cd8b28","qd87lx","SB","32","F","{""name"":""Chrome"",""chrome"":true,""version"":""106.0"",""blink"":true,""windows"":true,""osname"":""Windows"",""osversion"":""10"",""a"":true}","9:13:51","1","4","Test_1","70","j","0","624.5","1920 x 1080","1920 x 937","true","1","0","","","","",""
"null","<p style=""font-size: 80px;"">+ 10 points</p>","null","html-keyboard-response","136","1988160","0.0-11.0-2.135","5c28f3efdfe7fc0001cd8b28","qd87lx","SB","32","F","{""name"":""Chrome"",""chrome"":true,""version"":""106.0"",""blink"":true,""windows"":true,""osname"":""Windows"",""osversion"":""10"",""a"":true}","9:13:51","1","4","Test_2","70","f","1","1100.5","1920 x 1080","1920 x 937","true","1","10","","","","",""
"null","<p style=""font-size: 80px;"">+ 10 points</p>","null","html-keyboard-response","137","1990909","0.0-11.0-2.136","5c28f3efdfe7fc0001cd8b28","qd87lx","SB","32","F","{""name"":""Chrome"",""chrome"":true,""version"":""106.0"",""blink"":true,""windows"":true,""osname"":""Windows"",""osversion"":""10"",""a"":true}","9:13:51","1","4","Test_3","74","j","1","708.4000000953674","1920 x 1080","1920 x 937","true","1","10","","","","",""
"null","<p style=""font-size: 80px;"">+ 10 points</p>","null","html-keyboard-response","138","1993692","0.0-11.0-2.137","5c28f3efdfe7fc0001cd8b28","qd87lx","SB","32","F","{""name"":""Chrome"",""chrome"":true,""version"":""106.0"",""blink"":true,""windows"":true,""osname"":""Windows"",""osversion"":""10"",""a"":true}","9:13:51","1","4","Test_1","74","j","1","773.2999999523163","1920 x 1080","1920 x 937","true","1","10","","","","",""
"null","<p style=""font-size: 80px;"">+ 10 points</p>","null","html-keyboard-response","139","1996832","0.0-11.0-2.138","5c28f3efdfe7fc0001cd8b28","qd87lx","SB","32","F","{""name"":""Chrome"",""chrome"":true,""version"":""106.0"",""blink"":true,""windows"":true,""osname"":""Windows"",""osversion"":""10"",""a"":true}","9:13:51","1","4","Test_3","74","j","1","1095.5","1920 x 1080","1920 x 937","true","1","10","","","","",""
"null","<p style=""font-size: 80px;"">+ 10 points</p>","null","html-keyboard-response","140","1999628","0.0-11.0-2.139","5c28f3efdfe7fc0001cd8b28","qd87lx","SB","32","F","{""name"":""Chrome"",""chrome"":true,""version"":""106.0"",""blink"":true,""windows"":true,""osname"":""Windows"",""osversion"":""10"",""a"":true}","9:13:51","1","4","Test_2","70","f","1","778","1920 x 1080","1920 x 937","true","1","10","","","","",""
"null","<p style=""font-size: 80px;"">+ 10 points</p>","null","html-keyboard-response","141","2002315","0.0-11.0-2.140","5c28f3efdfe7fc0001cd8b28","qd87lx","SB","32","F","{""name"":""Chrome"",""chrome"":true,""version"":""106.0"",""blink"":true,""windows"":true,""osname"":""Windows"",""osversion"":""10"",""a"":true}","9:13:51","1","4","Test_3","74","j","1","671.9000000953674","1920 x 1080","1920 x 937","true","1","10","","","","",""
"null","<p style=""font-size: 80px;"">+ 10 points</p>","null","html-keyboard-response","142","2005083","0.0-11.0-2.141","5c28f3efdfe7fc0001cd8b28","qd87lx","SB","32","F","{""name"":""Chrome"",""chrome"":true,""version"":""106.0"",""blink"":true,""windows"":true,""osname"":""Windows"",""osversion"":""10"",""a"":true}","9:13:51","1","4","Test_2","70","f","1","753","1920 x 1080","1920 x 937","true","1","10","","","","",""
"null","<p style=""font-size: 80px;"">+ 10 points</p>","null","html-keyboard-response","143","2007785","0.0-11.0-2.142","5c28f3efdfe7fc0001cd8b28","qd87lx","SB","32","F","{""name"":""Chrome"",""chrome"":true,""version"":""106.0"",""blink"":true,""windows"":true,""osname"":""Windows"",""osversion"":""10"",""a"":true}","9:13:51","1","4","Test_1","74","j","1","682.2999999523163","1920 x 1080","1920 x 937","true","1","10","","","","",""
"null","<p style=""font-size: 80px;"">+ 10 points</p>","null","html-keyboard-response","144","2010567","0.0-11.0-2.143","5c28f3efdfe7fc0001cd8b28","qd87lx","SB","32","F","{""name"":""Chrome"",""chrome"":true,""version"":""106.0"",""blink"":true,""windows"":true,""osname"":""Windows"",""osversion"":""10"",""a"":true}","9:13:51","1","4","Test_2","70","f","1","763.2999999523163","1920 x 1080","1920 x 937","true","1","10","","","","",""
"null","<p style=""font-size: 80px;"">+ 10 points</p>","null","html-keyboard-response","145","2013226","0.0-11.0-2.144","5c28f3efdfe7fc0001cd8b28","qd87lx","SB","32","F","{""name"":""Chrome"",""chrome"":true,""version"":""106.0"",""blink"":true,""windows"":true,""osname"":""Windows"",""osversion"":""10"",""a"":true}","9:13:51","1","4","Test_3","74","j","1","625.6000000238419","1920 x 1080","1920 x 937","true","1","10","","","","",""
"null","<p style=""font-size: 80px;"">+ 10 points</p>","null","html-keyboard-response","146","2016021","0.0-11.0-2.145","5c28f3efdfe7fc0001cd8b28","qd87lx","SB","32","F","{""name"":""Chrome"",""chrome"":true,""version"":""106.0"",""blink"":true,""windows"":true,""osname"":""Windows"",""osversion"":""10"",""a"":true}","9:13:51","1","4","Test_4","70","f","1","776.8999999761581","1920 x 1080","1920 x 937","true","1","10","","","","",""
"null","<p style=""font-size: 80px;"">+ 10 points</p>","null","html-keyboard-response","147","2018992","0.0-11.0-2.146","5c28f3efdfe7fc0001cd8b28","qd87lx","SB","32","F","{""name"":""Chrome"",""chrome"":true,""version"":""106.0"",""blink"":true,""windows"":true,""osname"":""Windows"",""osversion"":""10"",""a"":true}","9:13:51","1","4","Test_2","70","f","1","959.7000000476837","1920 x 1080","1920 x 937","true","1","10","","","","",""
"null","<p style=""font-size: 80px;"">+ 0 points</p>","null","html-keyboard-response","148","2021669","0.0-11.0-2.147","5c28f3efdfe7fc0001cd8b28","qd87lx","SB","32","F","{""name"":""Chrome"",""chrome"":true,""version"":""106.0"",""blink"":true,""windows"":true,""osname"":""Windows"",""osversion"":""10"",""a"":true}","9:13:51","1","4","Test_4","74","f","0","659","1920 x 1080","1920 x 937","true","1","0","","","","",""
"null","<p style=""font-size: 80px;"">+ 10 points</p>","null","html-keyboard-response","149","2024347","0.0-11.0-2.148","5c28f3efdfe7fc0001cd8b28","qd87lx","SB","32","F","{""name"":""Chrome"",""chrome"":true,""version"":""106.0"",""blink"":true,""windows"":true,""osname"":""Windows"",""osversion"":""10"",""a"":true}","9:13:51","1","4","Test_4","70","f","1","659.4000000953674","1920 x 1080","1920 x 937","true","1","10","","","","",""
"null","<p style=""font-size: 80px;"">+ 0 points</p>","null","html-keyboard-response","150","2026987","0.0-11.0-2.149","5c28f3efdfe7fc0001cd8b28","qd87lx","SB","32","F","{""name"":""Chrome"",""chrome"":true,""version"":""106.0"",""blink"":true,""windows"":true,""osname"":""Windows"",""osversion"":""10"",""a"":true}","9:13:51","1","4","Test_2","74","f","0","632.2999999523163","1920 x 1080","1920 x 937","true","1","0","","","","",""
"null","<p style=""font-size: 80px;"">+ 10 points</p>","null","html-keyboard-response","151","2029666","0.0-11.0-2.150","5c28f3efdfe7fc0001cd8b28","qd87lx","SB","32","F","{""name"":""Chrome"",""chrome"":true,""version"":""106.0"",""blink"":true,""windows"":true,""osname"":""Windows"",""osversion"":""10"",""a"":true}","9:13:51","1","4","Test_1","74","j","1","651.1000000238419","1920 x 1080","1920 x 937","true","1","10","","","","",""
"null","<p style=""font-size: 80px;"">+ 0 points</p>","null","html-keyboard-response","152","2032360","0.0-11.0-2.151","5c28f3efdfe7fc0001cd8b28","qd87lx","SB","32","F","{""name"":""Chrome"",""chrome"":true,""version"":""106.0"",""blink"":true,""windows"":true,""osname"":""Windows"",""osversion"":""10"",""a"":true}","9:13:51","1","4","Test_3","70","j","0","673.3999999761581","1920 x 1080","1920 x 937","true","1","0","","","","",""
"null","<p style=""font-size: 80px;"">+ 0 points</p>","null","html-keyboard-response","153","2034900","0.0-11.0-2.152","5c28f3efdfe7fc0001cd8b28","qd87lx","SB","32","F","{""name"":""Chrome"",""chrome"":true,""version"":""106.0"",""blink"":true,""windows"":true,""osname"":""Windows"",""osversion"":""10"",""a"":true}","9:13:51","1","4","Test_4","74","f","0","524.1000000238419","1920 x 1080","1920 x 937","true","1","0","","","","",""
"null","<p style=""font-size: 80px;"">+ 10 points</p>","null","html-keyboard-response","154","2037409","0.0-11.0-2.153","5c28f3efdfe7fc0001cd8b28","qd87lx","SB","32","F","{""name"":""Chrome"",""chrome"":true,""version"":""106.0"",""blink"":true,""windows"":true,""osname"":""Windows"",""osversion"":""10"",""a"":true}","9:13:51","1","4","Test_4","70","f","1","487.5","1920 x 1080","1920 x 937","true","1","10","","","","",""
"null","<p style=""font-size: 80px;"">+ 0 points</p>","null","html-keyboard-response","155","2040482","0.0-11.0-2.154","5c28f3efdfe7fc0001cd8b28","qd87lx","SB","32","F","{""name"":""Chrome"",""chrome"":true,""version"":""106.0"",""blink"":true,""windows"":true,""osname"":""Windows"",""osversion"":""10"",""a"":true}","9:13:51","1","4","Test_1","70","j","0","1050.6000000238419","1920 x 1080","1920 x 937","true","1","0","","","","",""
"null","<p style=""font-size: 80px;"">+ 0 points</p>","null","html-keyboard-response","156","2043051","0.0-11.0-2.155","5c28f3efdfe7fc0001cd8b28","qd87lx","SB","32","F","{""name"":""Chrome"",""chrome"":true,""version"":""106.0"",""blink"":true,""windows"":true,""osname"":""Windows"",""osversion"":""10"",""a"":true}","9:13:51","1","3","Test_1","74","f","0","521.7999999523163","1920 x 1080","1920 x 937","true","1","0","","","","",""
"null","<p style=""font-size: 80px;"">+ 0 points</p>","null","html-keyboard-response","157","2045632","0.0-11.0-2.156","5c28f3efdfe7fc0001cd8b28","qd87lx","SB","32","F","{""name"":""Chrome"",""chrome"":true,""version"":""106.0"",""blink"":true,""windows"":true,""osname"":""Windows"",""osversion"":""10"",""a"":true}","9:13:51","1","3","Test_4","70","j","0","556.8000000715256","1920 x 1080","1920 x 937","true","1","0","","","","",""
"null","<p style=""font-size: 80px;"">+ 10 points</p>","null","html-keyboard-response","158","2048087","0.0-11.0-2.157","5c28f3efdfe7fc0001cd8b28","qd87lx","SB","32","F","{""name"":""Chrome"",""chrome"":true,""version"":""106.0"",""blink"":true,""windows"":true,""osname"":""Windows"",""osversion"":""10"",""a"":true}","9:13:51","1","3","Test_4","74","j","1","443.89999997615814","1920 x 1080","1920 x 937","true","1","10","","","","",""
"null","<p style=""font-size: 80px;"">+ 10 points</p>","null","html-keyboard-response","159","2050811","0.0-11.0-2.158","5c28f3efdfe7fc0001cd8b28","qd87lx","SB","32","F","{""name"":""Chrome"",""chrome"":true,""version"":""106.0"",""blink"":true,""windows"":true,""osname"":""Windows"",""osversion"":""10"",""a"":true}","9:13:51","1","3","Test_3","70","f","1","709","1920 x 1080","1920 x 937","true","1","10","","","","",""
"null","<p style=""font-size: 80px;"">+ 10 points</p>","null","html-keyboard-response","160","2053487","0.0-11.0-2.159","5c28f3efdfe7fc0001cd8b28","qd87lx","SB","32","F","{""name"":""Chrome"",""chrome"":true,""version"":""106.0"",""blink"":true,""windows"":true,""osname"":""Windows"",""osversion"":""10"",""a"":true}","9:13:51","1","3","Test_3","70","f","1","655.4000000953674","1920 x 1080","1920 x 937","true","1","10","","","","",""
"null","<p style=""font-size: 80px;"">+ 10 points</p>","null","html-keyboard-response","161","2056674","0.0-11.0-2.160","5c28f3efdfe7fc0001cd8b28","qd87lx","SB","32","F","{""name"":""Chrome"",""chrome"":true,""version"":""106.0"",""blink"":true,""windows"":true,""osname"":""Windows"",""osversion"":""10"",""a"":true}","9:13:51","1","3","Test_2","74","j","1","1159","1920 x 1080","1920 x 937","true","1","10","","","","",""
"null","<p style=""font-size: 80px;"">+ 10 points</p>","null","html-keyboard-response","162","2059716","0.0-11.0-2.161","5c28f3efdfe7fc0001cd8b28","qd87lx","SB","32","F","{""name"":""Chrome"",""chrome"":true,""version"":""106.0"",""blink"":true,""windows"":true,""osname"":""Windows"",""osversion"":""10"",""a"":true}","9:13:51","1","3","Test_1","70","f","1","1032.8999999761581","1920 x 1080","1920 x 937","true","1","10","","","","",""
"null","<p style=""font-size: 80px;"">+ 0 points</p>","null","html-keyboard-response","163","2062796","0.0-11.0-2.162","5c28f3efdfe7fc0001cd8b28","qd87lx","SB","32","F","{""name"":""Chrome"",""chrome"":true,""version"":""106.0"",""blink"":true,""windows"":true,""osname"":""Windows"",""osversion"":""10"",""a"":true}","9:13:51","1","3","Test_1","74","f","0","1072.2000000476837","1920 x 1080","1920 x 937","true","1","0","","","","",""
"null","<p style=""font-size: 80px;"">+ 10 points</p>","null","html-keyboard-response","164","2065491","0.0-11.0-2.163","5c28f3efdfe7fc0001cd8b28","qd87lx","SB","32","F","{""name"":""Chrome"",""chrome"":true,""version"":""106.0"",""blink"":true,""windows"":true,""osname"":""Windows"",""osversion"":""10"",""a"":true}","9:13:51","1","3","Test_4","74","j","1","679.8999999761581","1920 x 1080","1920 x 937","true","1","10","","","","",""
"null","<p style=""font-size: 80px;"">+ 10 points</p>","null","html-keyboard-response","165","2068301","0.0-11.0-2.164","5c28f3efdfe7fc0001cd8b28","qd87lx","SB","32","F","{""name"":""Chrome"",""chrome"":true,""version"":""106.0"",""blink"":true,""windows"":true,""osname"":""Windows"",""osversion"":""10"",""a"":true}","9:13:51","1","3","Test_4","74","j","1","793.2000000476837","1920 x 1080","1920 x 937","true","1","10","","","","",""
"null","<p style=""font-size: 80px;"">+ 10 points</p>","null","html-keyboard-response","166","2071326","0.0-11.0-2.165","5c28f3efdfe7fc0001cd8b28","qd87lx","SB","32","F","{""name"":""Chrome"",""chrome"":true,""version"":""106.0"",""blink"":true,""windows"":true,""osname"":""Windows"",""osversion"":""10"",""a"":true}","9:13:51","1","3","Test_2","74","j","1","1008.2000000476837","1920 x 1080","1920 x 937","true","1","10","","","","",""
"null","<p style=""font-size: 80px;"">+ 0 points</p>","null","html-keyboard-response","167","2074421","0.0-11.0-2.166","5c28f3efdfe7fc0001cd8b28","qd87lx","SB","32","F","{""name"":""Chrome"",""chrome"":true,""version"":""106.0"",""blink"":true,""windows"":true,""osname"":""Windows"",""osversion"":""10"",""a"":true}","9:13:51","1","3","Test_4","70","j","0","1069.5","1920 x 1080","1920 x 937","true","1","0","","","","",""
"null","<p style=""font-size: 80px;"">+ 10 points</p>","null","html-keyboard-response","168","2077160","0.0-11.0-2.167","5c28f3efdfe7fc0001cd8b28","qd87lx","SB","32","F","{""name"":""Chrome"",""chrome"":true,""version"":""106.0"",""blink"":true,""windows"":true,""osname"":""Windows"",""osversion"":""10"",""a"":true}","9:13:51","1","3","Test_4","74","j","1","718.6999999284744","1920 x 1080","1920 x 937","true","1","10","","","","",""
"null","<p style=""font-size: 80px;"">+ 10 points</p>","null","html-keyboard-response","169","2080072","0.0-11.0-2.168","5c28f3efdfe7fc0001cd8b28","qd87lx","SB","32","F","{""name"":""Chrome"",""chrome"":true,""version"":""106.0"",""blink"":true,""windows"":true,""osname"":""Windows"",""osversion"":""10"",""a"":true}","9:13:51","1","3","Test_2","74","j","1","887.0999999046326","1920 x 1080","1920 x 937","true","1","10","","","","",""
"null","<p style=""font-size: 80px;"">+ 0 points</p>","null","html-keyboard-response","170","2083113","0.0-11.0-2.169","5c28f3efdfe7fc0001cd8b28","qd87lx","SB","32","F","{""name"":""Chrome"",""chrome"":true,""version"":""106.0"",""blink"":true,""windows"":true,""osname"":""Windows"",""osversion"":""10"",""a"":true}","9:13:51","1","3","Test_1","74","f","0","1027.3999999761581","1920 x 1080","1920 x 937","true","1","0","","","","",""
"null","<p style=""font-size: 80px;"">+ 10 points</p>","null","html-keyboard-response","171","2085892","0.0-11.0-2.170","5c28f3efdfe7fc0001cd8b28","qd87lx","SB","32","F","{""name"":""Chrome"",""chrome"":true,""version"":""106.0"",""blink"":true,""windows"":true,""osname"":""Windows"",""osversion"":""10"",""a"":true}","9:13:51","1","3","Test_3","70","f","1","749.6999999284744","1920 x 1080","1920 x 937","true","1","10","","","","",""
"null","<p style=""font-size: 80px;"">+ 10 points</p>","null","html-keyboard-response","172","2088848","0.0-11.0-2.171","5c28f3efdfe7fc0001cd8b28","qd87lx","SB","32","F","{""name"":""Chrome"",""chrome"":true,""version"":""106.0"",""blink"":true,""windows"":true,""osname"":""Windows"",""osversion"":""10"",""a"":true}","9:13:51","1","3","Test_3","70","f","1","920","1920 x 1080","1920 x 937","true","1","10","","","","",""
"null","<p style=""font-size: 80px;"">+ 10 points</p>","null","html-keyboard-response","173","2091994","0.0-11.0-2.172","5c28f3efdfe7fc0001cd8b28","qd87lx","SB","32","F","{""name"":""Chrome"",""chrome"":true,""version"":""106.0"",""blink"":true,""windows"":true,""osname"":""Windows"",""osversion"":""10"",""a"":true}","9:13:51","1","3","Test_1","70","f","1","1108.1999999284744","1920 x 1080","1920 x 937","true","1","10","","","","",""
"null","<p style=""font-size: 80px;"">+ 10 points</p>","null","html-keyboard-response","174","2094880","0.0-11.0-2.173","5c28f3efdfe7fc0001cd8b28","qd87lx","SB","32","F","{""name"":""Chrome"",""chrome"":true,""version"":""106.0"",""blink"":true,""windows"":true,""osname"":""Windows"",""osversion"":""10"",""a"":true}","9:13:51","1","3","Test_3","70","f","1","867.3999999761581","1920 x 1080","1920 x 937","true","1","10","","","","",""
"null","<p style=""font-size: 80px;"">+ 10 points</p>","null","html-keyboard-response","175","2097613","0.0-11.0-2.174","5c28f3efdfe7fc0001cd8b28","qd87lx","SB","32","F","{""name"":""Chrome"",""chrome"":true,""version"":""106.0"",""blink"":true,""windows"":true,""osname"":""Windows"",""osversion"":""10"",""a"":true}","9:13:51","1","3","Test_2","74","j","1","712.1999999284744","1920 x 1080","1920 x 937","true","1","10","","","","",""
"null","<p style=""font-size: 80px;"">+ 10 points</p>","null","html-keyboard-response","176","2100174","0.0-11.0-2.175","5c28f3efdfe7fc0001cd8b28","qd87lx","SB","32","F","{""name"":""Chrome"",""chrome"":true,""version"":""106.0"",""blink"":true,""windows"":true,""osname"":""Windows"",""osversion"":""10"",""a"":true}","9:13:51","1","3","Test_3","70","f","1","542.6000000238419","1920 x 1080","1920 x 937","true","1","10","","","","",""
"null","<p style=""font-size: 80px;"">+ 10 points</p>","null","html-keyboard-response","177","2102598","0.0-11.0-2.176","5c28f3efdfe7fc0001cd8b28","qd87lx","SB","32","F","{""name"":""Chrome"",""chrome"":true,""version"":""106.0"",""blink"":true,""windows"":true,""osname"":""Windows"",""osversion"":""10"",""a"":true}","9:13:51","1","3","Test_2","74","j","1","413.2000000476837","1920 x 1080","1920 x 937","true","1","10","","","","",""
"null","<p style=""font-size: 80px;"">+ 10 points</p>","null","html-keyboard-response","178","2105322","0.0-11.0-2.177","5c28f3efdfe7fc0001cd8b28","qd87lx","SB","32","F","{""name"":""Chrome"",""chrome"":true,""version"":""106.0"",""blink"":true,""windows"":true,""osname"":""Windows"",""osversion"":""10"",""a"":true}","9:13:51","1","3","Test_1","70","f","1","708.7999999523163","1920 x 1080","1920 x 937","true","1","10","","","","",""
"null","<p style=""font-size: 80px;"">+ 10 points</p>","null","html-keyboard-response","179","2108097","0.0-11.0-2.178","5c28f3efdfe7fc0001cd8b28","qd87lx","SB","32","F","{""name"":""Chrome"",""chrome"":true,""version"":""106.0"",""blink"":true,""windows"":true,""osname"":""Windows"",""osversion"":""10"",""a"":true}","9:13:51","1","4","Test_3","74","j","1","755.1999999284744","1920 x 1080","1920 x 937","true","1","10","","","","",""
"null","<p style=""font-size: 80px;"">+ 10 points</p>","null","html-keyboard-response","180","2110599","0.0-11.0-2.179","5c28f3efdfe7fc0001cd8b28","qd87lx","SB","32","F","{""name"":""Chrome"",""chrome"":true,""version"":""106.0"",""blink"":true,""windows"":true,""osname"":""Windows"",""osversion"":""10"",""a"":true}","9:13:51","1","4","Test_3","74","j","1","480.7999999523163","1920 x 1080","1920 x 937","true","1","10","","","","",""
"null","<p style=""font-size: 80px;"">+ 10 points</p>","null","html-keyboard-response","181","2113325","0.0-11.0-2.180","5c28f3efdfe7fc0001cd8b28","qd87lx","SB","32","F","{""name"":""Chrome"",""chrome"":true,""version"":""106.0"",""blink"":true,""windows"":true,""osname"":""Windows"",""osversion"":""10"",""a"":true}","9:13:51","1","4","Test_4","70","f","1","707.1999999284744","1920 x 1080","1920 x 937","true","1","10","","","","",""
"null","<p style=""font-size: 80px;"">+ 10 points</p>","null","html-keyboard-response","182","2116270","0.0-11.0-2.181","5c28f3efdfe7fc0001cd8b28","qd87lx","SB","32","F","{""name"":""Chrome"",""chrome"":true,""version"":""106.0"",""blink"":true,""windows"":true,""osname"":""Windows"",""osversion"":""10"",""a"":true}","9:13:51","1","4","Test_4","70","f","1","921.5","1920 x 1080","1920 x 937","true","1","10","","","","",""
"null","<p style=""font-size: 80px;"">+ 10 points</p>","null","html-keyboard-response","183","2118832","0.0-11.0-2.182","5c28f3efdfe7fc0001cd8b28","qd87lx","SB","32","F","{""name"":""Chrome"",""chrome"":true,""version"":""106.0"",""blink"":true,""windows"":true,""osname"":""Windows"",""osversion"":""10"",""a"":true}","9:13:51","1","4","Test_4","70","f","1","541.3999999761581","1920 x 1080","1920 x 937","true","1","10","","","","",""
"null","<p style=""font-size: 80px;"">+ 0 points</p>","null","html-keyboard-response","184","2121874","0.0-11.0-2.183","5c28f3efdfe7fc0001cd8b28","qd87lx","SB","32","F","{""name"":""Chrome"",""chrome"":true,""version"":""106.0"",""blink"":true,""windows"":true,""osname"":""Windows"",""osversion"":""10"",""a"":true}","9:13:51","1","4","Test_2","74","f","0","1020.2999999523163","1920 x 1080","1920 x 937","true","1","0","","","","",""
"null","<p style=""font-size: 80px;"">+ 10 points</p>","null","html-keyboard-response","185","2124553","0.0-11.0-2.184","5c28f3efdfe7fc0001cd8b28","qd87lx","SB","32","F","{""name"":""Chrome"",""chrome"":true,""version"":""106.0"",""blink"":true,""windows"":true,""osname"":""Windows"",""osversion"":""10"",""a"":true}","9:13:51","1","4","Test_2","70","f","1","666","1920 x 1080","1920 x 937","true","1","10","","","","",""
"null","<p style=""font-size: 80px;"">+ 10 points</p>","null","html-keyboard-response","186","2127310","0.0-11.0-2.185","5c28f3efdfe7fc0001cd8b28","qd87lx","SB","32","F","{""name"":""Chrome"",""chrome"":true,""version"":""106.0"",""blink"":true,""windows"":true,""osname"":""Windows"",""osversion"":""10"",""a"":true}","9:13:51","1","4","Test_1","74","j","1","743.0999999046326","1920 x 1080","1920 x 937","true","1","10","","","","",""
"null","<p style=""font-size: 80px;"">+ 10 points</p>","null","html-keyboard-response","187","2130089","0.0-11.0-2.186","5c28f3efdfe7fc0001cd8b28","qd87lx","SB","32","F","{""name"":""Chrome"",""chrome"":true,""version"":""106.0"",""blink"":true,""windows"":true,""osname"":""Windows"",""osversion"":""10"",""a"":true}","9:13:51","1","4","Test_2","70","f","1","765.4000000953674","1920 x 1080","1920 x 937","true","1","10","","","","",""
"null","<p style=""font-size: 80px;"">+ 10 points</p>","null","html-keyboard-response","188","2132713","0.0-11.0-2.187","5c28f3efdfe7fc0001cd8b28","qd87lx","SB","32","F","{""name"":""Chrome"",""chrome"":true,""version"":""106.0"",""blink"":true,""windows"":true,""osname"":""Windows"",""osversion"":""10"",""a"":true}","9:13:51","1","4","Test_3","74","j","1","602.1999999284744","1920 x 1080","1920 x 937","true","1","10","","","","",""
