"rt","stimulus","key_press","trial_type","trial_index","time_elapsed","internal_node_id","Prolific_ID","random_ID","initials","age","gender","pc_info","start_time","Phase","Rule","Stimulus","Response","CorrResp","Accuracy","ResponseTime","screen_resolution","window_resolution","focus","relevant","Points","responses","question_order","rev_check","butterfly_check","passed_practice"
"null","<p style=""font-size: 80px;"">+ 10 points</p>","null","html-keyboard-response","1","369732","0.0-7.0-2.0","60dc3e33a9d79c613fb778a6","kyp6qa","ZJ","45","F","{""name"":""Chrome"",""chrome"":true,""version"":""99.0"",""blink"":true,""mac"":true,""osname"":""macOS"",""osversion"":""10.13.6"",""a"":true}","9:21:45","0","1","Practice_2","74","j","1","2394.599999964237","1680 x 945","1680 x 945","true","1","10","","","","",""
"null","<p style=""font-size: 80px;"">+ 10 points</p>","null","html-keyboard-response","2","374512","0.0-7.0-2.1","60dc3e33a9d79c613fb778a6","kyp6qa","ZJ","45","F","{""name"":""Chrome"",""chrome"":true,""version"":""99.0"",""blink"":true,""mac"":true,""osname"":""macOS"",""osversion"":""10.13.6"",""a"":true}","9:21:45","0","1","Practice_4","74","j","1","2772.5","1680 x 945","1680 x 945","true","1","10","","","","",""
"null","<p style=""font-size: 80px;"">+ 10 points</p>","null","html-keyboard-response","3","377504","0.0-7.0-2.2","60dc3e33a9d79c613fb778a6","kyp6qa","ZJ","45","F","{""name"":""Chrome"",""chrome"":true,""version"":""99.0"",""blink"":true,""mac"":true,""osname"":""macOS"",""osversion"":""10.13.6"",""a"":true}","9:21:45","0","1","Practice_2","74","j","1","984.9000000357628","1680 x 945","1680 x 945","true","1","10","","","","",""
"null","<p style=""font-size: 80px;"">+ 10 points</p>","null","html-keyboard-response","4","380732","0.0-7.0-2.3","60dc3e33a9d79c613fb778a6","kyp6qa","ZJ","45","F","{""name"":""Chrome"",""chrome"":true,""version"":""99.0"",""blink"":true,""mac"":true,""osname"":""macOS"",""osversion"":""10.13.6"",""a"":true}","9:21:45","0","1","Practice_4","74","j","1","1221.5999999642372","1680 x 945","1680 x 945","true","1","10","","","","",""
"null","<p style=""font-size: 80px;"">+ 10 points</p>","null","html-keyboard-response","5","384457","0.0-7.0-2.4","60dc3e33a9d79c613fb778a6","kyp6qa","ZJ","45","F","{""name"":""Chrome"",""chrome"":true,""version"":""99.0"",""blink"":true,""mac"":true,""osname"":""macOS"",""osversion"":""10.13.6"",""a"":true}","9:21:45","0","1","Practice_1","70","f","1","1717.5999999642372","1680 x 945","1680 x 945","true","1","10","","","","",""
"null","<p style=""font-size: 80px;"">+ 10 points</p>","null","html-keyboard-response","6","387617","0.0-7.0-2.5","60dc3e33a9d79c613fb778a6","kyp6qa","ZJ","45","F","{""name"":""Chrome"",""chrome"":true,""version"":""99.0"",""blink"":true,""mac"":true,""osname"":""macOS"",""osversion"":""10.13.6"",""a"":true}","9:21:45","0","1","Practice_4","74","j","1","1153.8999999761581","1680 x 945","1680 x 945","true","1","10","","","","",""
"null","<p style=""font-size: 80px;"">+ 10 points</p>","null","html-keyboard-response","7","390577","0.0-7.0-2.6","60dc3e33a9d79c613fb778a6","kyp6qa","ZJ","45","F","{""name"":""Chrome"",""chrome"":true,""version"":""99.0"",""blink"":true,""mac"":true,""osname"":""macOS"",""osversion"":""10.13.6"",""a"":true}","9:21:45","0","1","Practice_4","74","j","1","952.5","1680 x 945","1680 x 945","true","1","10","","","","",""
"null","<p style=""font-size: 80px;"">+ 10 points</p>","null","html-keyboard-response","8","393389","0.0-7.0-2.7","60dc3e33a9d79c613fb778a6","kyp6qa","ZJ","45","F","{""name"":""Chrome"",""chrome"":true,""version"":""99.0"",""blink"":true,""mac"":true,""osname"":""macOS"",""osversion"":""10.13.6"",""a"":true}","9:21:45","0","1","Practice_2","74","j","1","805.5","1680 x 945","1680 x 945","true","1","10","","","","",""
"null","<p style=""font-size: 80px;"">+ 10 points</p>","null","html-keyboard-response","9","396899","0.0-7.0-2.8","60dc3e33a9d79c613fb778a6","kyp6qa","ZJ","45","F","{""name"":""Chrome"",""chrome"":true,""version"":""99.0"",""blink"":true,""mac"":true,""osname"":""macOS"",""osversion"":""10.13.6"",""a"":true}","9:21:45","0","1","Practice_3","70","f","1","1504.8999999761581","1680 x 945","1680 x 945","true","1","10","","","","",""
"null","<p style=""font-size: 80px;"">+ 10 points</p>","null","html-keyboard-response","10","399802","0.0-7.0-2.9","60dc3e33a9d79c613fb778a6","kyp6qa","ZJ","45","F","{""name"":""Chrome"",""chrome"":true,""version"":""99.0"",""blink"":true,""mac"":true,""osname"":""macOS"",""osversion"":""10.13.6"",""a"":true}","9:21:45","0","1","Practice_4","74","j","1","896.0999999642372","1680 x 945","1680 x 945","true","1","10","","","","",""
"null","<p style=""font-size: 80px;"">+ 10 points</p>","null","html-keyboard-response","11","402975","0.0-7.0-2.10","60dc3e33a9d79c613fb778a6","kyp6qa","ZJ","45","F","{""name"":""Chrome"",""chrome"":true,""version"":""99.0"",""blink"":true,""mac"":true,""osname"":""macOS"",""osversion"":""10.13.6"",""a"":true}","9:21:45","0","1","Practice_1","70","f","1","1165.5","1680 x 945","1680 x 945","true","1","10","","","","",""
"null","<p style=""font-size: 80px;"">+ 10 points</p>","null","html-keyboard-response","12","406225","0.0-7.0-2.11","60dc3e33a9d79c613fb778a6","kyp6qa","ZJ","45","F","{""name"":""Chrome"",""chrome"":true,""version"":""99.0"",""blink"":true,""mac"":true,""osname"":""macOS"",""osversion"":""10.13.6"",""a"":true}","9:21:45","0","1","Practice_3","70","f","1","1244.800000011921","1680 x 945","1680 x 945","true","1","10","","","","",""
"null","<p style=""font-size: 80px;"">+ 10 points</p>","null","html-keyboard-response","13","409454","0.0-7.0-2.12","60dc3e33a9d79c613fb778a6","kyp6qa","ZJ","45","F","{""name"":""Chrome"",""chrome"":true,""version"":""99.0"",""blink"":true,""mac"":true,""osname"":""macOS"",""osversion"":""10.13.6"",""a"":true}","9:21:45","0","1","Practice_3","70","f","1","1222.699999988079","1680 x 945","1680 x 945","true","1","10","","","","",""
"null","<p style=""font-size: 80px;"">+ 10 points</p>","null","html-keyboard-response","14","412694","0.0-7.0-2.13","60dc3e33a9d79c613fb778a6","kyp6qa","ZJ","45","F","{""name"":""Chrome"",""chrome"":true,""version"":""99.0"",""blink"":true,""mac"":true,""osname"":""macOS"",""osversion"":""10.13.6"",""a"":true}","9:21:45","0","1","Practice_1","70","f","1","1234.300000011921","1680 x 945","1680 x 945","true","1","10","","","","",""
"null","<p style=""font-size: 80px;"">+ 10 points</p>","null","html-keyboard-response","15","415665","0.0-7.0-2.14","60dc3e33a9d79c613fb778a6","kyp6qa","ZJ","45","F","{""name"":""Chrome"",""chrome"":true,""version"":""99.0"",""blink"":true,""mac"":true,""osname"":""macOS"",""osversion"":""10.13.6"",""a"":true}","9:21:45","0","1","Practice_1","70","f","1","964.3000000119209","1680 x 945","1680 x 945","true","1","10","","","","",""
"null","<p style=""font-size: 80px;"">+ 10 points</p>","null","html-keyboard-response","16","418623","0.0-7.0-2.15","60dc3e33a9d79c613fb778a6","kyp6qa","ZJ","45","F","{""name"":""Chrome"",""chrome"":true,""version"":""99.0"",""blink"":true,""mac"":true,""osname"":""macOS"",""osversion"":""10.13.6"",""a"":true}","9:21:45","0","1","Practice_3","70","f","1","951.5999999642372","1680 x 945","1680 x 945","true","1","10","","","","",""
"null","<p style=""font-size: 80px;"">+ 10 points</p>","null","html-keyboard-response","17","421672","0.0-7.0-2.16","60dc3e33a9d79c613fb778a6","kyp6qa","ZJ","45","F","{""name"":""Chrome"",""chrome"":true,""version"":""99.0"",""blink"":true,""mac"":true,""osname"":""macOS"",""osversion"":""10.13.6"",""a"":true}","9:21:45","0","1","Practice_2","74","j","1","1042.1000000238419","1680 x 945","1680 x 945","true","1","10","","","","",""
"null","<p style=""font-size: 80px;"">+ 10 points</p>","null","html-keyboard-response","18","424442","0.0-7.0-2.17","60dc3e33a9d79c613fb778a6","kyp6qa","ZJ","45","F","{""name"":""Chrome"",""chrome"":true,""version"":""99.0"",""blink"":true,""mac"":true,""osname"":""macOS"",""osversion"":""10.13.6"",""a"":true}","9:21:45","0","1","Practice_1","70","f","1","761.5","1680 x 945","1680 x 945","true","1","10","","","","",""
"null","<p style=""font-size: 80px;"">+ 10 points</p>","null","html-keyboard-response","19","426938","0.0-7.0-2.18","60dc3e33a9d79c613fb778a6","kyp6qa","ZJ","45","F","{""name"":""Chrome"",""chrome"":true,""version"":""99.0"",""blink"":true,""mac"":true,""osname"":""macOS"",""osversion"":""10.13.6"",""a"":true}","9:21:45","0","1","Practice_2","74","j","1","488.5","1680 x 945","1680 x 945","true","1","10","","","","",""
"null","<p style=""font-size: 80px;"">+ 10 points</p>","null","html-keyboard-response","20","430063","0.0-7.0-2.19","60dc3e33a9d79c613fb778a6","kyp6qa","ZJ","45","F","{""name"":""Chrome"",""chrome"":true,""version"":""99.0"",""blink"":true,""mac"":true,""osname"":""macOS"",""osversion"":""10.13.6"",""a"":true}","9:21:45","0","1","Practice_3","70","f","1","1120.5","1680 x 945","1680 x 945","true","1","10","","","","",""
"null","<p style=""font-size: 80px;"">+ 0 points</p>","null","html-keyboard-response","21","432687","0.0-7.0-2.20","60dc3e33a9d79c613fb778a6","kyp6qa","ZJ","45","F","{""name"":""Chrome"",""chrome"":true,""version"":""99.0"",""blink"":true,""mac"":true,""osname"":""macOS"",""osversion"":""10.13.6"",""a"":true}","9:21:45","0","2","Practice_2","74","f","0","616.7999999523163","1680 x 945","1680 x 945","true","1","0","","","","",""
"null","<p style=""font-size: 80px;"">+ 10 points</p>","null","html-keyboard-response","22","437479","0.0-7.0-2.21","60dc3e33a9d79c613fb778a6","kyp6qa","ZJ","45","F","{""name"":""Chrome"",""chrome"":true,""version"":""99.0"",""blink"":true,""mac"":true,""osname"":""macOS"",""osversion"":""10.13.6"",""a"":true}","9:21:45","0","2","Practice_4","70","f","1","2785.099999964237","1680 x 945","1680 x 945","true","1","10","","","","",""
"null","<p style=""font-size: 80px;"">+ 10 points</p>","null","html-keyboard-response","23","441011","0.0-7.0-2.22","60dc3e33a9d79c613fb778a6","kyp6qa","ZJ","45","F","{""name"":""Chrome"",""chrome"":true,""version"":""99.0"",""blink"":true,""mac"":true,""osname"":""macOS"",""osversion"":""10.13.6"",""a"":true}","9:21:45","0","2","Practice_2","70","f","1","1526.0999999642372","1680 x 945","1680 x 945","true","1","10","","","","",""
"null","<p style=""font-size: 80px;"">+ 10 points</p>","null","html-keyboard-response","24","444725","0.0-7.0-2.23","60dc3e33a9d79c613fb778a6","kyp6qa","ZJ","45","F","{""name"":""Chrome"",""chrome"":true,""version"":""99.0"",""blink"":true,""mac"":true,""osname"":""macOS"",""osversion"":""10.13.6"",""a"":true}","9:21:45","0","2","Practice_3","74","j","1","1706.2999999523163","1680 x 945","1680 x 945","true","1","10","","","","",""
"null","<p style=""font-size: 80px;"">+ 10 points</p>","null","html-keyboard-response","25","447986","0.0-7.0-2.24","60dc3e33a9d79c613fb778a6","kyp6qa","ZJ","45","F","{""name"":""Chrome"",""chrome"":true,""version"":""99.0"",""blink"":true,""mac"":true,""osname"":""macOS"",""osversion"":""10.13.6"",""a"":true}","9:21:45","0","2","Practice_3","74","j","1","1255.300000011921","1680 x 945","1680 x 945","true","1","10","","","","",""
"null","<p style=""font-size: 80px;"">+ 10 points</p>","null","html-keyboard-response","26","451316","0.0-7.0-2.25","60dc3e33a9d79c613fb778a6","kyp6qa","ZJ","45","F","{""name"":""Chrome"",""chrome"":true,""version"":""99.0"",""blink"":true,""mac"":true,""osname"":""macOS"",""osversion"":""10.13.6"",""a"":true}","9:21:45","0","2","Practice_2","70","f","1","1325.7999999523163","1680 x 945","1680 x 945","true","1","10","","","","",""
"null","<p style=""font-size: 80px;"">+ 10 points</p>","null","html-keyboard-response","27","454681","0.0-7.0-2.26","60dc3e33a9d79c613fb778a6","kyp6qa","ZJ","45","F","{""name"":""Chrome"",""chrome"":true,""version"":""99.0"",""blink"":true,""mac"":true,""osname"":""macOS"",""osversion"":""10.13.6"",""a"":true}","9:21:45","0","2","Practice_3","74","j","1","1357.5","1680 x 945","1680 x 945","true","1","10","","","","",""
"null","<p style=""font-size: 80px;"">+ 10 points</p>","null","html-keyboard-response","28","458303","0.0-7.0-2.27","60dc3e33a9d79c613fb778a6","kyp6qa","ZJ","45","F","{""name"":""Chrome"",""chrome"":true,""version"":""99.0"",""blink"":true,""mac"":true,""osname"":""macOS"",""osversion"":""10.13.6"",""a"":true}","9:21:45","0","2","Practice_2","70","f","1","1615.5","1680 x 945","1680 x 945","true","1","10","","","","",""
"null","<p style=""font-size: 80px;"">+ 10 points</p>","null","html-keyboard-response","29","461475","0.0-7.0-2.28","60dc3e33a9d79c613fb778a6","kyp6qa","ZJ","45","F","{""name"":""Chrome"",""chrome"":true,""version"":""99.0"",""blink"":true,""mac"":true,""osname"":""macOS"",""osversion"":""10.13.6"",""a"":true}","9:21:45","0","2","Practice_1","74","j","1","1165.8999999761581","1680 x 945","1680 x 945","true","1","10","","","","",""
"null","<p style=""font-size: 80px;"">+ 10 points</p>","null","html-keyboard-response","30","464108","0.0-7.0-2.29","60dc3e33a9d79c613fb778a6","kyp6qa","ZJ","45","F","{""name"":""Chrome"",""chrome"":true,""version"":""99.0"",""blink"":true,""mac"":true,""osname"":""macOS"",""osversion"":""10.13.6"",""a"":true}","9:21:45","0","2","Practice_1","74","j","1","626.4000000357628","1680 x 945","1680 x 945","true","1","10","","","","",""
"null","<p style=""font-size: 80px;"">+ 10 points</p>","null","html-keyboard-response","31","468382","0.0-7.0-2.30","60dc3e33a9d79c613fb778a6","kyp6qa","ZJ","45","F","{""name"":""Chrome"",""chrome"":true,""version"":""99.0"",""blink"":true,""mac"":true,""osname"":""macOS"",""osversion"":""10.13.6"",""a"":true}","9:21:45","0","2","Practice_1","74","j","1","2270","1680 x 945","1680 x 945","true","1","10","","","","",""
"null","<p style=""font-size: 80px;"">+ 0 points</p>","null","html-keyboard-response","32","471118","0.0-7.0-2.31","60dc3e33a9d79c613fb778a6","kyp6qa","ZJ","45","F","{""name"":""Chrome"",""chrome"":true,""version"":""99.0"",""blink"":true,""mac"":true,""osname"":""macOS"",""osversion"":""10.13.6"",""a"":true}","9:21:45","0","2","Practice_4","74","f","0","728.6000000238419","1680 x 945","1680 x 945","true","1","0","","","","",""
"null","<p style=""font-size: 80px;"">+ 10 points</p>","null","html-keyboard-response","33","474571","0.0-7.0-2.32","60dc3e33a9d79c613fb778a6","kyp6qa","ZJ","45","F","{""name"":""Chrome"",""chrome"":true,""version"":""99.0"",""blink"":true,""mac"":true,""osname"":""macOS"",""osversion"":""10.13.6"",""a"":true}","9:21:45","0","2","Practice_4","70","f","1","1446.699999988079","1680 x 945","1680 x 945","true","1","10","","","","",""
"null","<p style=""font-size: 80px;"">+ 10 points</p>","null","html-keyboard-response","34","478948","0.0-7.0-2.33","60dc3e33a9d79c613fb778a6","kyp6qa","ZJ","45","F","{""name"":""Chrome"",""chrome"":true,""version"":""99.0"",""blink"":true,""mac"":true,""osname"":""macOS"",""osversion"":""10.13.6"",""a"":true}","9:21:45","0","2","Practice_2","70","f","1","2370.100000023842","1680 x 945","1680 x 945","true","1","10","","","","",""
"null","<p style=""font-size: 80px;"">+ 10 points</p>","null","html-keyboard-response","35","482558","0.0-7.0-2.34","60dc3e33a9d79c613fb778a6","kyp6qa","ZJ","45","F","{""name"":""Chrome"",""chrome"":true,""version"":""99.0"",""blink"":true,""mac"":true,""osname"":""macOS"",""osversion"":""10.13.6"",""a"":true}","9:21:45","0","2","Practice_1","74","j","1","1603.800000011921","1680 x 945","1680 x 945","true","1","10","","","","",""
"null","<p style=""font-size: 80px;"">+ 10 points</p>","null","html-keyboard-response","36","485686","0.0-7.0-2.35","60dc3e33a9d79c613fb778a6","kyp6qa","ZJ","45","F","{""name"":""Chrome"",""chrome"":true,""version"":""99.0"",""blink"":true,""mac"":true,""osname"":""macOS"",""osversion"":""10.13.6"",""a"":true}","9:21:45","0","2","Practice_1","74","j","1","1121.5999999642372","1680 x 945","1680 x 945","true","1","10","","","","",""
"null","<p style=""font-size: 80px;"">+ 10 points</p>","null","html-keyboard-response","37","489206","0.0-7.0-2.36","60dc3e33a9d79c613fb778a6","kyp6qa","ZJ","45","F","{""name"":""Chrome"",""chrome"":true,""version"":""99.0"",""blink"":true,""mac"":true,""osname"":""macOS"",""osversion"":""10.13.6"",""a"":true}","9:21:45","0","2","Practice_3","74","j","1","1514.5999999642372","1680 x 945","1680 x 945","true","1","10","","","","",""
"null","<p style=""font-size: 80px;"">+ 10 points</p>","null","html-keyboard-response","38","491964","0.0-7.0-2.37","60dc3e33a9d79c613fb778a6","kyp6qa","ZJ","45","F","{""name"":""Chrome"",""chrome"":true,""version"":""99.0"",""blink"":true,""mac"":true,""osname"":""macOS"",""osversion"":""10.13.6"",""a"":true}","9:21:45","0","2","Practice_3","74","j","1","750.8999999761581","1680 x 945","1680 x 945","true","1","10","","","","",""
"null","<p style=""font-size: 80px;"">+ 10 points</p>","null","html-keyboard-response","39","495079","0.0-7.0-2.38","60dc3e33a9d79c613fb778a6","kyp6qa","ZJ","45","F","{""name"":""Chrome"",""chrome"":true,""version"":""99.0"",""blink"":true,""mac"":true,""osname"":""macOS"",""osversion"":""10.13.6"",""a"":true}","9:21:45","0","2","Practice_4","70","f","1","1109.1000000238419","1680 x 945","1680 x 945","true","1","10","","","","",""
"null","<p style=""font-size: 80px;"">+ 10 points</p>","null","html-keyboard-response","40","498320","0.0-7.0-2.39","60dc3e33a9d79c613fb778a6","kyp6qa","ZJ","45","F","{""name"":""Chrome"",""chrome"":true,""version"":""99.0"",""blink"":true,""mac"":true,""osname"":""macOS"",""osversion"":""10.13.6"",""a"":true}","9:21:45","0","2","Practice_4","70","f","1","1236.3999999761581","1680 x 945","1680 x 945","true","1","10","","","","",""
"28798.899999976158","","","survey-multi-choice","127","527120","0.0-8.0","60dc3e33a9d79c613fb778a6","kyp6qa","ZJ","45","F","{""name"":""Chrome"",""chrome"":true,""version"":""99.0"",""blink"":true,""mac"":true,""osname"":""macOS"",""osversion"":""10.13.6"",""a"":true}","9:21:45","","","","","","","","","","","1","","{""Q0"":""The green one"",""Q1"":""5""}","[0,1]","5","The green one","0"
"null","<p style=""font-size: 80px;"">+ 10 points</p>","null","html-keyboard-response","1","550387","0.0-9.0-1.0-2.0","60dc3e33a9d79c613fb778a6","kyp6qa","ZJ","45","F","{""name"":""Chrome"",""chrome"":true,""version"":""99.0"",""blink"":true,""mac"":true,""osname"":""macOS"",""osversion"":""10.13.6"",""a"":true}","9:21:45","0","1","Practice_2","74","j","1","3718.899999976158","1680 x 945","1680 x 945","true","1","10","","","","",""
"null","<p style=""font-size: 80px;"">+ 10 points</p>","null","html-keyboard-response","2","553638","0.0-9.0-1.0-2.1","60dc3e33a9d79c613fb778a6","kyp6qa","ZJ","45","F","{""name"":""Chrome"",""chrome"":true,""version"":""99.0"",""blink"":true,""mac"":true,""osname"":""macOS"",""osversion"":""10.13.6"",""a"":true}","9:21:45","0","1","Practice_4","74","j","1","1243.5","1680 x 945","1680 x 945","true","1","10","","","","",""
"null","<p style=""font-size: 80px;"">+ 10 points</p>","null","html-keyboard-response","3","556664","0.0-9.0-1.0-2.2","60dc3e33a9d79c613fb778a6","kyp6qa","ZJ","45","F","{""name"":""Chrome"",""chrome"":true,""version"":""99.0"",""blink"":true,""mac"":true,""osname"":""macOS"",""osversion"":""10.13.6"",""a"":true}","9:21:45","0","1","Practice_2","74","j","1","1019.3999999761581","1680 x 945","1680 x 945","true","1","10","","","","",""
"null","<p style=""font-size: 80px;"">+ 10 points</p>","null","html-keyboard-response","4","559837","0.0-9.0-1.0-2.3","60dc3e33a9d79c613fb778a6","kyp6qa","ZJ","45","F","{""name"":""Chrome"",""chrome"":true,""version"":""99.0"",""blink"":true,""mac"":true,""osname"":""macOS"",""osversion"":""10.13.6"",""a"":true}","9:21:45","0","1","Practice_4","74","j","1","1166.300000011921","1680 x 945","1680 x 945","true","1","10","","","","",""
"null","<p style=""font-size: 80px;"">+ 10 points</p>","null","html-keyboard-response","5","563898","0.0-9.0-1.0-2.4","60dc3e33a9d79c613fb778a6","kyp6qa","ZJ","45","F","{""name"":""Chrome"",""chrome"":true,""version"":""99.0"",""blink"":true,""mac"":true,""osname"":""macOS"",""osversion"":""10.13.6"",""a"":true}","9:21:45","0","1","Practice_1","70","f","1","2054.699999988079","1680 x 945","1680 x 945","true","1","10","","","","",""
"null","<p style=""font-size: 80px;"">+ 10 points</p>","null","html-keyboard-response","6","566868","0.0-9.0-1.0-2.5","60dc3e33a9d79c613fb778a6","kyp6qa","ZJ","45","F","{""name"":""Chrome"",""chrome"":true,""version"":""99.0"",""blink"":true,""mac"":true,""osname"":""macOS"",""osversion"":""10.13.6"",""a"":true}","9:21:45","0","1","Practice_4","74","j","1","963.1000000238419","1680 x 945","1680 x 945","true","1","10","","","","",""
"null","<p style=""font-size: 80px;"">+ 10 points</p>","null","html-keyboard-response","7","570637","0.0-9.0-1.0-2.6","60dc3e33a9d79c613fb778a6","kyp6qa","ZJ","45","F","{""name"":""Chrome"",""chrome"":true,""version"":""99.0"",""blink"":true,""mac"":true,""osname"":""macOS"",""osversion"":""10.13.6"",""a"":true}","9:21:45","0","1","Practice_4","74","j","1","1761.8999999761581","1680 x 945","1680 x 945","true","1","10","","","","",""
"null","<p style=""font-size: 80px;"">+ 10 points</p>","null","html-keyboard-response","8","573854","0.0-9.0-1.0-2.7","60dc3e33a9d79c613fb778a6","kyp6qa","ZJ","45","F","{""name"":""Chrome"",""chrome"":true,""version"":""99.0"",""blink"":true,""mac"":true,""osname"":""macOS"",""osversion"":""10.13.6"",""a"":true}","9:21:45","0","1","Practice_2","74","j","1","1211.1000000238419","1680 x 945","1680 x 945","true","1","10","","","","",""
"null","<p style=""font-size: 80px;"">+ 10 points</p>","null","html-keyboard-response","9","577489","0.0-9.0-1.0-2.8","60dc3e33a9d79c613fb778a6","kyp6qa","ZJ","45","F","{""name"":""Chrome"",""chrome"":true,""version"":""99.0"",""blink"":true,""mac"":true,""osname"":""macOS"",""osversion"":""10.13.6"",""a"":true}","9:21:45","0","1","Practice_3","70","f","1","1627.5","1680 x 945","1680 x 945","true","1","10","","","","",""
"null","<p style=""font-size: 80px;"">+ 10 points</p>","null","html-keyboard-response","10","582002","0.0-9.0-1.0-2.9","60dc3e33a9d79c613fb778a6","kyp6qa","ZJ","45","F","{""name"":""Chrome"",""chrome"":true,""version"":""99.0"",""blink"":true,""mac"":true,""osname"":""macOS"",""osversion"":""10.13.6"",""a"":true}","9:21:45","0","1","Practice_4","74","j","1","2503.900000035763","1680 x 945","1680 x 945","true","1","10","","","","",""
"null","<p style=""font-size: 80px;"">+ 10 points</p>","null","html-keyboard-response","11","585116","0.0-9.0-1.0-2.10","60dc3e33a9d79c613fb778a6","kyp6qa","ZJ","45","F","{""name"":""Chrome"",""chrome"":true,""version"":""99.0"",""blink"":true,""mac"":true,""osname"":""macOS"",""osversion"":""10.13.6"",""a"":true}","9:21:45","0","1","Practice_1","70","f","1","1107.800000011921","1680 x 945","1680 x 945","true","1","10","","","","",""
"null","<p style=""font-size: 80px;"">+ 10 points</p>","null","html-keyboard-response","12","587873","0.0-9.0-1.0-2.11","60dc3e33a9d79c613fb778a6","kyp6qa","ZJ","45","F","{""name"":""Chrome"",""chrome"":true,""version"":""99.0"",""blink"":true,""mac"":true,""osname"":""macOS"",""osversion"":""10.13.6"",""a"":true}","9:21:45","0","1","Practice_3","70","f","1","750.1000000238419","1680 x 945","1680 x 945","true","1","10","","","","",""
"null","<p style=""font-size: 80px;"">+ 10 points</p>","null","html-keyboard-response","13","590516","0.0-9.0-1.0-2.12","60dc3e33a9d79c613fb778a6","kyp6qa","ZJ","45","F","{""name"":""Chrome"",""chrome"":true,""version"":""99.0"",""blink"":true,""mac"":true,""osname"":""macOS"",""osversion"":""10.13.6"",""a"":true}","9:21:45","0","1","Practice_3","70","f","1","636.5999999642372","1680 x 945","1680 x 945","true","1","10","","","","",""
"null","<p style=""font-size: 80px;"">+ 10 points</p>","null","html-keyboard-response","14","594510","0.0-9.0-1.0-2.13","60dc3e33a9d79c613fb778a6","kyp6qa","ZJ","45","F","{""name"":""Chrome"",""chrome"":true,""version"":""99.0"",""blink"":true,""mac"":true,""osname"":""macOS"",""osversion"":""10.13.6"",""a"":true}","9:21:45","0","1","Practice_1","70","f","1","1986.9000000357628","1680 x 945","1680 x 945","true","1","10","","","","",""
"null","<p style=""font-size: 80px;"">+ 10 points</p>","null","html-keyboard-response","15","597705","0.0-9.0-1.0-2.14","60dc3e33a9d79c613fb778a6","kyp6qa","ZJ","45","F","{""name"":""Chrome"",""chrome"":true,""version"":""99.0"",""blink"":true,""mac"":true,""osname"":""macOS"",""osversion"":""10.13.6"",""a"":true}","9:21:45","0","1","Practice_1","70","f","1","1187.7000000476837","1680 x 945","1680 x 945","true","1","10","","","","",""
"null","<p style=""font-size: 80px;"">+ 10 points</p>","null","html-keyboard-response","16","601283","0.0-9.0-1.0-2.15","60dc3e33a9d79c613fb778a6","kyp6qa","ZJ","45","F","{""name"":""Chrome"",""chrome"":true,""version"":""99.0"",""blink"":true,""mac"":true,""osname"":""macOS"",""osversion"":""10.13.6"",""a"":true}","9:21:45","0","1","Practice_3","70","f","1","1571.3999999761581","1680 x 945","1680 x 945","true","1","10","","","","",""
"null","<p style=""font-size: 80px;"">+ 10 points</p>","null","html-keyboard-response","17","604927","0.0-9.0-1.0-2.16","60dc3e33a9d79c613fb778a6","kyp6qa","ZJ","45","F","{""name"":""Chrome"",""chrome"":true,""version"":""99.0"",""blink"":true,""mac"":true,""osname"":""macOS"",""osversion"":""10.13.6"",""a"":true}","9:21:45","0","1","Practice_2","74","j","1","1638.0999999642372","1680 x 945","1680 x 945","true","1","10","","","","",""
"null","<p style=""font-size: 80px;"">+ 10 points</p>","null","html-keyboard-response","18","608708","0.0-9.0-1.0-2.17","60dc3e33a9d79c613fb778a6","kyp6qa","ZJ","45","F","{""name"":""Chrome"",""chrome"":true,""version"":""99.0"",""blink"":true,""mac"":true,""osname"":""macOS"",""osversion"":""10.13.6"",""a"":true}","9:21:45","0","1","Practice_1","70","f","1","1775.5","1680 x 945","1680 x 945","true","1","10","","","","",""
"null","<p style=""font-size: 80px;"">+ 10 points</p>","null","html-keyboard-response","19","612082","0.0-9.0-1.0-2.18","60dc3e33a9d79c613fb778a6","kyp6qa","ZJ","45","F","{""name"":""Chrome"",""chrome"":true,""version"":""99.0"",""blink"":true,""mac"":true,""osname"":""macOS"",""osversion"":""10.13.6"",""a"":true}","9:21:45","0","1","Practice_2","74","j","1","1368.699999988079","1680 x 945","1680 x 945","true","1","10","","","","",""
"null","<p style=""font-size: 80px;"">+ 10 points</p>","null","html-keyboard-response","20","615143","0.0-9.0-1.0-2.19","60dc3e33a9d79c613fb778a6","kyp6qa","ZJ","45","F","{""name"":""Chrome"",""chrome"":true,""version"":""99.0"",""blink"":true,""mac"":true,""osname"":""macOS"",""osversion"":""10.13.6"",""a"":true}","9:21:45","0","1","Practice_3","70","f","1","1054.199999988079","1680 x 945","1680 x 945","true","1","10","","","","",""
"null","<p style=""font-size: 80px;"">+ 0 points</p>","null","html-keyboard-response","21","619103","0.0-9.0-1.0-2.20","60dc3e33a9d79c613fb778a6","kyp6qa","ZJ","45","F","{""name"":""Chrome"",""chrome"":true,""version"":""99.0"",""blink"":true,""mac"":true,""osname"":""macOS"",""osversion"":""10.13.6"",""a"":true}","9:21:45","0","2","Practice_2","74","f","0","1953.5","1680 x 945","1680 x 945","true","1","0","","","","",""
"null","<p style=""font-size: 80px;"">+ 10 points</p>","null","html-keyboard-response","22","623108","0.0-9.0-1.0-2.21","60dc3e33a9d79c613fb778a6","kyp6qa","ZJ","45","F","{""name"":""Chrome"",""chrome"":true,""version"":""99.0"",""blink"":true,""mac"":true,""osname"":""macOS"",""osversion"":""10.13.6"",""a"":true}","9:21:45","0","2","Practice_4","70","f","1","1999","1680 x 945","1680 x 945","true","1","10","","","","",""
"null","<p style=""font-size: 80px;"">+ 10 points</p>","null","html-keyboard-response","23","628397","0.0-9.0-1.0-2.22","60dc3e33a9d79c613fb778a6","kyp6qa","ZJ","45","F","{""name"":""Chrome"",""chrome"":true,""version"":""99.0"",""blink"":true,""mac"":true,""osname"":""macOS"",""osversion"":""10.13.6"",""a"":true}","9:21:45","0","2","Practice_2","70","f","1","3280.899999976158","1680 x 945","1680 x 945","true","1","10","","","","",""
"null","<p style=""font-size: 80px;"">+ 10 points</p>","null","html-keyboard-response","24","632096","0.0-9.0-1.0-2.23","60dc3e33a9d79c613fb778a6","kyp6qa","ZJ","45","F","{""name"":""Chrome"",""chrome"":true,""version"":""99.0"",""blink"":true,""mac"":true,""osname"":""macOS"",""osversion"":""10.13.6"",""a"":true}","9:21:45","0","2","Practice_3","74","j","1","1693.2999999523163","1680 x 945","1680 x 945","true","1","10","","","","",""
"null","<p style=""font-size: 80px;"">+ 10 points</p>","null","html-keyboard-response","25","636373","0.0-9.0-1.0-2.24","60dc3e33a9d79c613fb778a6","kyp6qa","ZJ","45","F","{""name"":""Chrome"",""chrome"":true,""version"":""99.0"",""blink"":true,""mac"":true,""osname"":""macOS"",""osversion"":""10.13.6"",""a"":true}","9:21:45","0","2","Practice_3","74","j","1","2269","1680 x 945","1680 x 945","true","1","10","","","","",""
"null","<p style=""font-size: 80px;"">+ 10 points</p>","null","html-keyboard-response","26","640794","0.0-9.0-1.0-2.25","60dc3e33a9d79c613fb778a6","kyp6qa","ZJ","45","F","{""name"":""Chrome"",""chrome"":true,""version"":""99.0"",""blink"":true,""mac"":true,""osname"":""macOS"",""osversion"":""10.13.6"",""a"":true}","9:21:45","0","2","Practice_2","70","f","1","2413.699999988079","1680 x 945","1680 x 945","true","1","10","","","","",""
"null","<p style=""font-size: 80px;"">+ 10 points</p>","null","html-keyboard-response","27","644270","0.0-9.0-1.0-2.26","60dc3e33a9d79c613fb778a6","kyp6qa","ZJ","45","F","{""name"":""Chrome"",""chrome"":true,""version"":""99.0"",""blink"":true,""mac"":true,""osname"":""macOS"",""osversion"":""10.13.6"",""a"":true}","9:21:45","0","2","Practice_3","74","j","1","1469.0999999642372","1680 x 945","1680 x 945","true","1","10","","","","",""
"null","<p style=""font-size: 80px;"">+ 10 points</p>","null","html-keyboard-response","28","647724","0.0-9.0-1.0-2.27","60dc3e33a9d79c613fb778a6","kyp6qa","ZJ","45","F","{""name"":""Chrome"",""chrome"":true,""version"":""99.0"",""blink"":true,""mac"":true,""osname"":""macOS"",""osversion"":""10.13.6"",""a"":true}","9:21:45","0","2","Practice_2","70","f","1","1447.199999988079","1680 x 945","1680 x 945","true","1","10","","","","",""
"null","<p style=""font-size: 80px;"">+ 10 points</p>","null","html-keyboard-response","29","650986","0.0-9.0-1.0-2.28","60dc3e33a9d79c613fb778a6","kyp6qa","ZJ","45","F","{""name"":""Chrome"",""chrome"":true,""version"":""99.0"",""blink"":true,""mac"":true,""osname"":""macOS"",""osversion"":""10.13.6"",""a"":true}","9:21:45","0","2","Practice_1","74","j","1","1255.4000000357628","1680 x 945","1680 x 945","true","1","10","","","","",""
"null","<p style=""font-size: 80px;"">+ 10 points</p>","null","html-keyboard-response","30","654327","0.0-9.0-1.0-2.29","60dc3e33a9d79c613fb778a6","kyp6qa","ZJ","45","F","{""name"":""Chrome"",""chrome"":true,""version"":""99.0"",""blink"":true,""mac"":true,""osname"":""macOS"",""osversion"":""10.13.6"",""a"":true}","9:21:45","0","2","Practice_1","74","j","1","1334.5","1680 x 945","1680 x 945","true","1","10","","","","",""
"null","<p style=""font-size: 80px;"">+ 10 points</p>","null","html-keyboard-response","31","659391","0.0-9.0-1.0-2.30","60dc3e33a9d79c613fb778a6","kyp6qa","ZJ","45","F","{""name"":""Chrome"",""chrome"":true,""version"":""99.0"",""blink"":true,""mac"":true,""osname"":""macOS"",""osversion"":""10.13.6"",""a"":true}","9:21:45","0","2","Practice_1","74","j","1","3056.199999988079","1680 x 945","1680 x 945","true","1","10","","","","",""
"null","<p style=""font-size: 80px;"">+ 10 points</p>","null","html-keyboard-response","32","664240","0.0-9.0-1.0-2.31","60dc3e33a9d79c613fb778a6","kyp6qa","ZJ","45","F","{""name"":""Chrome"",""chrome"":true,""version"":""99.0"",""blink"":true,""mac"":true,""osname"":""macOS"",""osversion"":""10.13.6"",""a"":true}","9:21:45","0","2","Practice_4","70","f","1","2841.300000011921","1680 x 945","1680 x 945","true","1","10","","","","",""
"null","<p style=""font-size: 80px;"">+ 10 points</p>","null","html-keyboard-response","33","668324","0.0-9.0-1.0-2.32","60dc3e33a9d79c613fb778a6","kyp6qa","ZJ","45","F","{""name"":""Chrome"",""chrome"":true,""version"":""99.0"",""blink"":true,""mac"":true,""osname"":""macOS"",""osversion"":""10.13.6"",""a"":true}","9:21:45","0","2","Practice_4","70","f","1","2076.599999964237","1680 x 945","1680 x 945","true","1","10","","","","",""
"null","<p style=""font-size: 80px;"">+ 10 points</p>","null","html-keyboard-response","34","672509","0.0-9.0-1.0-2.33","60dc3e33a9d79c613fb778a6","kyp6qa","ZJ","45","F","{""name"":""Chrome"",""chrome"":true,""version"":""99.0"",""blink"":true,""mac"":true,""osname"":""macOS"",""osversion"":""10.13.6"",""a"":true}","9:21:45","0","2","Practice_2","70","f","1","2177.699999988079","1680 x 945","1680 x 945","true","1","10","","","","",""
"null","<p style=""font-size: 80px;"">+ 10 points</p>","null","html-keyboard-response","35","675647","0.0-9.0-1.0-2.34","60dc3e33a9d79c613fb778a6","kyp6qa","ZJ","45","F","{""name"":""Chrome"",""chrome"":true,""version"":""99.0"",""blink"":true,""mac"":true,""osname"":""macOS"",""osversion"":""10.13.6"",""a"":true}","9:21:45","0","2","Practice_1","74","j","1","1130.800000011921","1680 x 945","1680 x 945","true","1","10","","","","",""
"null","<p style=""font-size: 80px;"">+ 10 points</p>","null","html-keyboard-response","36","678583","0.0-9.0-1.0-2.35","60dc3e33a9d79c613fb778a6","kyp6qa","ZJ","45","F","{""name"":""Chrome"",""chrome"":true,""version"":""99.0"",""blink"":true,""mac"":true,""osname"":""macOS"",""osversion"":""10.13.6"",""a"":true}","9:21:45","0","2","Practice_1","74","j","1","929.4000000357628","1680 x 945","1680 x 945","true","1","10","","","","",""
"null","<p style=""font-size: 80px;"">+ 10 points</p>","null","html-keyboard-response","37","682069","0.0-9.0-1.0-2.36","60dc3e33a9d79c613fb778a6","kyp6qa","ZJ","45","F","{""name"":""Chrome"",""chrome"":true,""version"":""99.0"",""blink"":true,""mac"":true,""osname"":""macOS"",""osversion"":""10.13.6"",""a"":true}","9:21:45","0","2","Practice_3","74","j","1","1480.800000011921","1680 x 945","1680 x 945","true","1","10","","","","",""
"null","<p style=""font-size: 80px;"">+ 10 points</p>","null","html-keyboard-response","38","685795","0.0-9.0-1.0-2.37","60dc3e33a9d79c613fb778a6","kyp6qa","ZJ","45","F","{""name"":""Chrome"",""chrome"":true,""version"":""99.0"",""blink"":true,""mac"":true,""osname"":""macOS"",""osversion"":""10.13.6"",""a"":true}","9:21:45","0","2","Practice_3","74","j","1","1719.5","1680 x 945","1680 x 945","true","1","10","","","","",""
"null","<p style=""font-size: 80px;"">+ 10 points</p>","null","html-keyboard-response","39","689351","0.0-9.0-1.0-2.38","60dc3e33a9d79c613fb778a6","kyp6qa","ZJ","45","F","{""name"":""Chrome"",""chrome"":true,""version"":""99.0"",""blink"":true,""mac"":true,""osname"":""macOS"",""osversion"":""10.13.6"",""a"":true}","9:21:45","0","2","Practice_4","70","f","1","1547.5","1680 x 945","1680 x 945","true","1","10","","","","",""
"null","<p style=""font-size: 80px;"">+ 10 points</p>","null","html-keyboard-response","40","692815","0.0-9.0-1.0-2.39","60dc3e33a9d79c613fb778a6","kyp6qa","ZJ","45","F","{""name"":""Chrome"",""chrome"":true,""version"":""99.0"",""blink"":true,""mac"":true,""osname"":""macOS"",""osversion"":""10.13.6"",""a"":true}","9:21:45","0","2","Practice_4","70","f","1","1457.699999988079","1680 x 945","1680 x 945","true","1","10","","","","",""
"12328.300000011921","","","survey-multi-choice","249","705144","0.0-9.0-2.0","60dc3e33a9d79c613fb778a6","kyp6qa","ZJ","45","F","{""name"":""Chrome"",""chrome"":true,""version"":""99.0"",""blink"":true,""mac"":true,""osname"":""macOS"",""osversion"":""10.13.6"",""a"":true}","9:21:45","","","","","","","","","","","1","","{""Q0"":""The green one"",""Q1"":""1""}","[0,1]","1","The green one","1"
"null","<p style=""font-size: 80px;"">+ 0 points</p>","null","html-keyboard-response","1","730537","0.0-11.0-2.0","60dc3e33a9d79c613fb778a6","kyp6qa","ZJ","45","F","{""name"":""Chrome"",""chrome"":true,""version"":""99.0"",""blink"":true,""mac"":true,""osname"":""macOS"",""osversion"":""10.13.6"",""a"":true}","9:21:45","1","4","Test_4","74","f","0","2471.400000035763","1680 x 945","1680 x 945","true","1","0","","","","",""
"null","<p style=""font-size: 80px;"">+ 10 points</p>","null","html-keyboard-response","2","735747","0.0-11.0-2.1","60dc3e33a9d79c613fb778a6","kyp6qa","ZJ","45","F","{""name"":""Chrome"",""chrome"":true,""version"":""99.0"",""blink"":true,""mac"":true,""osname"":""macOS"",""osversion"":""10.13.6"",""a"":true}","9:21:45","1","4","Test_2","70","f","1","3199.600000023842","1680 x 945","1680 x 945","true","1","10","","","","",""
"null","<p style=""font-size: 80px;"">+ 10 points</p>","null","html-keyboard-response","3","739458","0.0-11.0-2.2","60dc3e33a9d79c613fb778a6","kyp6qa","ZJ","45","F","{""name"":""Chrome"",""chrome"":true,""version"":""99.0"",""blink"":true,""mac"":true,""osname"":""macOS"",""osversion"":""10.13.6"",""a"":true}","9:21:45","1","4","Test_1","74","j","1","1704.4000000357628","1680 x 945","1680 x 945","true","1","10","","","","",""
"null","<p style=""font-size: 80px;"">+ 10 points</p>","null","html-keyboard-response","4","743566","0.0-11.0-2.3","60dc3e33a9d79c613fb778a6","kyp6qa","ZJ","45","F","{""name"":""Chrome"",""chrome"":true,""version"":""99.0"",""blink"":true,""mac"":true,""osname"":""macOS"",""osversion"":""10.13.6"",""a"":true}","9:21:45","1","4","Test_3","74","j","1","2099.599999964237","1680 x 945","1680 x 945","true","1","10","","","","",""
"null","<p style=""font-size: 80px;"">+ 10 points</p>","null","html-keyboard-response","5","746557","0.0-11.0-2.4","60dc3e33a9d79c613fb778a6","kyp6qa","ZJ","45","F","{""name"":""Chrome"",""chrome"":true,""version"":""99.0"",""blink"":true,""mac"":true,""osname"":""macOS"",""osversion"":""10.13.6"",""a"":true}","9:21:45","1","4","Test_1","74","j","1","984.6999999880791","1680 x 945","1680 x 945","true","1","10","","","","",""
"null","<p style=""font-size: 80px;"">+ 10 points</p>","null","html-keyboard-response","6","750056","0.0-11.0-2.5","60dc3e33a9d79c613fb778a6","kyp6qa","ZJ","45","F","{""name"":""Chrome"",""chrome"":true,""version"":""99.0"",""blink"":true,""mac"":true,""osname"":""macOS"",""osversion"":""10.13.6"",""a"":true}","9:21:45","1","4","Test_2","70","f","1","1492.199999988079","1680 x 945","1680 x 945","true","1","10","","","","",""
"null","<p style=""font-size: 80px;"">+ 10 points</p>","null","html-keyboard-response","7","753476","0.0-11.0-2.6","60dc3e33a9d79c613fb778a6","kyp6qa","ZJ","45","F","{""name"":""Chrome"",""chrome"":true,""version"":""99.0"",""blink"":true,""mac"":true,""osname"":""macOS"",""osversion"":""10.13.6"",""a"":true}","9:21:45","1","4","Test_3","74","j","1","1413.199999988079","1680 x 945","1680 x 945","true","1","10","","","","",""
"null","<p style=""font-size: 80px;"">+ 10 points</p>","null","html-keyboard-response","8","757594","0.0-11.0-2.7","60dc3e33a9d79c613fb778a6","kyp6qa","ZJ","45","F","{""name"":""Chrome"",""chrome"":true,""version"":""99.0"",""blink"":true,""mac"":true,""osname"":""macOS"",""osversion"":""10.13.6"",""a"":true}","9:21:45","1","4","Test_4","70","f","1","2110.599999964237","1680 x 945","1680 x 945","true","1","10","","","","",""
"null","<p style=""font-size: 80px;"">+ 10 points</p>","null","html-keyboard-response","9","760407","0.0-11.0-2.8","60dc3e33a9d79c613fb778a6","kyp6qa","ZJ","45","F","{""name"":""Chrome"",""chrome"":true,""version"":""99.0"",""blink"":true,""mac"":true,""osname"":""macOS"",""osversion"":""10.13.6"",""a"":true}","9:21:45","1","4","Test_4","70","f","1","805.4000000357628","1680 x 945","1680 x 945","true","1","10","","","","",""
"null","<p style=""font-size: 80px;"">+ 10 points</p>","null","html-keyboard-response","10","763567","0.0-11.0-2.9","60dc3e33a9d79c613fb778a6","kyp6qa","ZJ","45","F","{""name"":""Chrome"",""chrome"":true,""version"":""99.0"",""blink"":true,""mac"":true,""osname"":""macOS"",""osversion"":""10.13.6"",""a"":true}","9:21:45","1","4","Test_1","74","j","1","1154.0999999642372","1680 x 945","1680 x 945","true","1","10","","","","",""
"null","<p style=""font-size: 80px;"">+ 10 points</p>","null","html-keyboard-response","11","766607","0.0-11.0-2.10","60dc3e33a9d79c613fb778a6","kyp6qa","ZJ","45","F","{""name"":""Chrome"",""chrome"":true,""version"":""99.0"",""blink"":true,""mac"":true,""osname"":""macOS"",""osversion"":""10.13.6"",""a"":true}","9:21:45","1","4","Test_3","74","j","1","1030.8999999761581","1680 x 945","1680 x 945","true","1","10","","","","",""
"null","<p style=""font-size: 80px;"">+ 10 points</p>","null","html-keyboard-response","12","769846","0.0-11.0-2.11","60dc3e33a9d79c613fb778a6","kyp6qa","ZJ","45","F","{""name"":""Chrome"",""chrome"":true,""version"":""99.0"",""blink"":true,""mac"":true,""osname"":""macOS"",""osversion"":""10.13.6"",""a"":true}","9:21:45","1","4","Test_2","70","f","1","1229","1680 x 945","1680 x 945","true","1","10","","","","",""
"null","<p style=""font-size: 80px;"">+ 10 points</p>","null","html-keyboard-response","13","772894","0.0-11.0-2.12","60dc3e33a9d79c613fb778a6","kyp6qa","ZJ","45","F","{""name"":""Chrome"",""chrome"":true,""version"":""99.0"",""blink"":true,""mac"":true,""osname"":""macOS"",""osversion"":""10.13.6"",""a"":true}","9:21:45","1","4","Test_3","74","j","1","1041.8999999761581","1680 x 945","1680 x 945","true","1","10","","","","",""
"null","<p style=""font-size: 80px;"">+ 10 points</p>","null","html-keyboard-response","14","776058","0.0-11.0-2.13","60dc3e33a9d79c613fb778a6","kyp6qa","ZJ","45","F","{""name"":""Chrome"",""chrome"":true,""version"":""99.0"",""blink"":true,""mac"":true,""osname"":""macOS"",""osversion"":""10.13.6"",""a"":true}","9:21:45","1","4","Test_1","74","j","1","1154.5","1680 x 945","1680 x 945","true","1","10","","","","",""
"null","<p style=""font-size: 80px;"">+ 10 points</p>","null","html-keyboard-response","15","779712","0.0-11.0-2.14","60dc3e33a9d79c613fb778a6","kyp6qa","ZJ","45","F","{""name"":""Chrome"",""chrome"":true,""version"":""99.0"",""blink"":true,""mac"":true,""osname"":""macOS"",""osversion"":""10.13.6"",""a"":true}","9:21:45","1","4","Test_2","70","f","1","1645.699999988079","1680 x 945","1680 x 945","true","1","10","","","","",""
"null","<p style=""font-size: 80px;"">+ 10 points</p>","null","html-keyboard-response","16","784899","0.0-11.0-2.15","60dc3e33a9d79c613fb778a6","kyp6qa","ZJ","45","F","{""name"":""Chrome"",""chrome"":true,""version"":""99.0"",""blink"":true,""mac"":true,""osname"":""macOS"",""osversion"":""10.13.6"",""a"":true}","9:21:45","1","4","Test_4","70","f","1","3179.300000011921","1680 x 945","1680 x 945","true","1","10","","","","",""
"null","<p style=""font-size: 80px;"">+ 0 points</p>","null","html-keyboard-response","17","788408","0.0-11.0-2.16","60dc3e33a9d79c613fb778a6","kyp6qa","ZJ","45","F","{""name"":""Chrome"",""chrome"":true,""version"":""99.0"",""blink"":true,""mac"":true,""osname"":""macOS"",""osversion"":""10.13.6"",""a"":true}","9:21:45","1","3","Test_1","74","f","0","1502.300000011921","1680 x 945","1680 x 945","true","1","0","","","","",""
"null","<p style=""font-size: 80px;"">+ 10 points</p>","null","html-keyboard-response","18","794000","0.0-11.0-2.17","60dc3e33a9d79c613fb778a6","kyp6qa","ZJ","45","F","{""name"":""Chrome"",""chrome"":true,""version"":""99.0"",""blink"":true,""mac"":true,""osname"":""macOS"",""osversion"":""10.13.6"",""a"":true}","9:21:45","1","3","Test_4","74","j","1","3584.800000011921","1680 x 945","1680 x 945","true","1","10","","","","",""
"null","<p style=""font-size: 80px;"">+ 10 points</p>","null","html-keyboard-response","19","796781","0.0-11.0-2.18","60dc3e33a9d79c613fb778a6","kyp6qa","ZJ","45","F","{""name"":""Chrome"",""chrome"":true,""version"":""99.0"",""blink"":true,""mac"":true,""osname"":""macOS"",""osversion"":""10.13.6"",""a"":true}","9:21:45","1","3","Test_4","74","j","1","771.1999999880791","1680 x 945","1680 x 945","true","1","10","","","","",""
"null","<p style=""font-size: 80px;"">+ 10 points</p>","null","html-keyboard-response","20","800323","0.0-11.0-2.19","60dc3e33a9d79c613fb778a6","kyp6qa","ZJ","45","F","{""name"":""Chrome"",""chrome"":true,""version"":""99.0"",""blink"":true,""mac"":true,""osname"":""macOS"",""osversion"":""10.13.6"",""a"":true}","9:21:45","1","3","Test_2","74","j","1","1534.699999988079","1680 x 945","1680 x 945","true","1","10","","","","",""
"null","<p style=""font-size: 80px;"">+ 0 points</p>","null","html-keyboard-response","21","803585","0.0-11.0-2.20","60dc3e33a9d79c613fb778a6","kyp6qa","ZJ","45","F","{""name"":""Chrome"",""chrome"":true,""version"":""99.0"",""blink"":true,""mac"":true,""osname"":""macOS"",""osversion"":""10.13.6"",""a"":true}","9:21:45","1","3","Test_1","74","f","0","1255","1680 x 945","1680 x 945","true","1","0","","","","",""
"null","<p style=""font-size: 80px;"">+ 10 points</p>","null","html-keyboard-response","22","806892","0.0-11.0-2.21","60dc3e33a9d79c613fb778a6","kyp6qa","ZJ","45","F","{""name"":""Chrome"",""chrome"":true,""version"":""99.0"",""blink"":true,""mac"":true,""osname"":""macOS"",""osversion"":""10.13.6"",""a"":true}","9:21:45","1","3","Test_2","74","j","1","1300.2999999523163","1680 x 945","1680 x 945","true","1","10","","","","",""
"null","<p style=""font-size: 80px;"">+ 10 points</p>","null","html-keyboard-response","23","810988","0.0-11.0-2.22","60dc3e33a9d79c613fb778a6","kyp6qa","ZJ","45","F","{""name"":""Chrome"",""chrome"":true,""version"":""99.0"",""blink"":true,""mac"":true,""osname"":""macOS"",""osversion"":""10.13.6"",""a"":true}","9:21:45","1","3","Test_2","74","j","1","2088.2999999523163","1680 x 945","1680 x 945","true","1","10","","","","",""
"null","<p style=""font-size: 80px;"">+ 10 points</p>","null","html-keyboard-response","24","814758","0.0-11.0-2.23","60dc3e33a9d79c613fb778a6","kyp6qa","ZJ","45","F","{""name"":""Chrome"",""chrome"":true,""version"":""99.0"",""blink"":true,""mac"":true,""osname"":""macOS"",""osversion"":""10.13.6"",""a"":true}","9:21:45","1","3","Test_4","74","j","1","1761.199999988079","1680 x 945","1680 x 945","true","1","10","","","","",""
"null","<p style=""font-size: 80px;"">+ 10 points</p>","null","html-keyboard-response","25","817434","0.0-11.0-2.24","60dc3e33a9d79c613fb778a6","kyp6qa","ZJ","45","F","{""name"":""Chrome"",""chrome"":true,""version"":""99.0"",""blink"":true,""mac"":true,""osname"":""macOS"",""osversion"":""10.13.6"",""a"":true}","9:21:45","1","3","Test_4","74","j","1","669.1000000238419","1680 x 945","1680 x 945","true","1","10","","","","",""
"null","<p style=""font-size: 80px;"">+ 10 points</p>","null","html-keyboard-response","26","820730","0.0-11.0-2.25","60dc3e33a9d79c613fb778a6","kyp6qa","ZJ","45","F","{""name"":""Chrome"",""chrome"":true,""version"":""99.0"",""blink"":true,""mac"":true,""osname"":""macOS"",""osversion"":""10.13.6"",""a"":true}","9:21:45","1","3","Test_3","70","f","1","1289.5","1680 x 945","1680 x 945","true","1","10","","","","",""
"null","<p style=""font-size: 80px;"">+ 10 points</p>","null","html-keyboard-response","27","824601","0.0-11.0-2.26","60dc3e33a9d79c613fb778a6","kyp6qa","ZJ","45","F","{""name"":""Chrome"",""chrome"":true,""version"":""99.0"",""blink"":true,""mac"":true,""osname"":""macOS"",""osversion"":""10.13.6"",""a"":true}","9:21:45","1","3","Test_2","74","j","1","1864.2999999523163","1680 x 945","1680 x 945","true","1","10","","","","",""
"null","<p style=""font-size: 80px;"">+ 10 points</p>","null","html-keyboard-response","28","828189","0.0-11.0-2.27","60dc3e33a9d79c613fb778a6","kyp6qa","ZJ","45","F","{""name"":""Chrome"",""chrome"":true,""version"":""99.0"",""blink"":true,""mac"":true,""osname"":""macOS"",""osversion"":""10.13.6"",""a"":true}","9:21:45","1","3","Test_3","70","f","1","1581.300000011921","1680 x 945","1680 x 945","true","1","10","","","","",""
"null","<p style=""font-size: 80px;"">+ 10 points</p>","null","html-keyboard-response","29","832025","0.0-11.0-2.28","60dc3e33a9d79c613fb778a6","kyp6qa","ZJ","45","F","{""name"":""Chrome"",""chrome"":true,""version"":""99.0"",""blink"":true,""mac"":true,""osname"":""macOS"",""osversion"":""10.13.6"",""a"":true}","9:21:45","1","3","Test_2","74","j","1","1830.300000011921","1680 x 945","1680 x 945","true","1","10","","","","",""
"null","<p style=""font-size: 80px;"">+ 10 points</p>","null","html-keyboard-response","30","835345","0.0-11.0-2.29","60dc3e33a9d79c613fb778a6","kyp6qa","ZJ","45","F","{""name"":""Chrome"",""chrome"":true,""version"":""99.0"",""blink"":true,""mac"":true,""osname"":""macOS"",""osversion"":""10.13.6"",""a"":true}","9:21:45","1","3","Test_4","74","j","1","1312.8999999761581","1680 x 945","1680 x 945","true","1","10","","","","",""
"null","<p style=""font-size: 80px;"">+ 10 points</p>","null","html-keyboard-response","31","838482","0.0-11.0-2.30","60dc3e33a9d79c613fb778a6","kyp6qa","ZJ","45","F","{""name"":""Chrome"",""chrome"":true,""version"":""99.0"",""blink"":true,""mac"":true,""osname"":""macOS"",""osversion"":""10.13.6"",""a"":true}","9:21:45","1","3","Test_4","74","j","1","1131.6000000238419","1680 x 945","1680 x 945","true","1","10","","","","",""
"null","<p style=""font-size: 80px;"">+ 10 points</p>","null","html-keyboard-response","32","841554","0.0-11.0-2.31","60dc3e33a9d79c613fb778a6","kyp6qa","ZJ","45","F","{""name"":""Chrome"",""chrome"":true,""version"":""99.0"",""blink"":true,""mac"":true,""osname"":""macOS"",""osversion"":""10.13.6"",""a"":true}","9:21:45","1","3","Test_3","70","f","1","1064.9000000357628","1680 x 945","1680 x 945","true","1","10","","","","",""
"null","<p style=""font-size: 80px;"">+ 10 points</p>","null","html-keyboard-response","33","845685","0.0-11.0-2.32","60dc3e33a9d79c613fb778a6","kyp6qa","ZJ","45","F","{""name"":""Chrome"",""chrome"":true,""version"":""99.0"",""blink"":true,""mac"":true,""osname"":""macOS"",""osversion"":""10.13.6"",""a"":true}","9:21:45","1","3","Test_1","70","f","1","2122.899999976158","1680 x 945","1680 x 945","true","1","10","","","","",""
"null","<p style=""font-size: 80px;"">+ 10 points</p>","null","html-keyboard-response","34","849204","0.0-11.0-2.33","60dc3e33a9d79c613fb778a6","kyp6qa","ZJ","45","F","{""name"":""Chrome"",""chrome"":true,""version"":""99.0"",""blink"":true,""mac"":true,""osname"":""macOS"",""osversion"":""10.13.6"",""a"":true}","9:21:45","1","3","Test_3","70","f","1","1512.7999999523163","1680 x 945","1680 x 945","true","1","10","","","","",""
"null","<p style=""font-size: 80px;"">+ 10 points</p>","null","html-keyboard-response","35","852659","0.0-11.0-2.34","60dc3e33a9d79c613fb778a6","kyp6qa","ZJ","45","F","{""name"":""Chrome"",""chrome"":true,""version"":""99.0"",""blink"":true,""mac"":true,""osname"":""macOS"",""osversion"":""10.13.6"",""a"":true}","9:21:45","1","3","Test_1","70","f","1","1448.2000000476837","1680 x 945","1680 x 945","true","1","10","","","","",""
"null","<p style=""font-size: 80px;"">+ 10 points</p>","null","html-keyboard-response","36","856528","0.0-11.0-2.35","60dc3e33a9d79c613fb778a6","kyp6qa","ZJ","45","F","{""name"":""Chrome"",""chrome"":true,""version"":""99.0"",""blink"":true,""mac"":true,""osname"":""macOS"",""osversion"":""10.13.6"",""a"":true}","9:21:45","1","3","Test_3","70","f","1","1863.199999988079","1680 x 945","1680 x 945","true","1","10","","","","",""
"null","<p style=""font-size: 80px;"">+ 10 points</p>","null","html-keyboard-response","37","860670","0.0-11.0-2.36","60dc3e33a9d79c613fb778a6","kyp6qa","ZJ","45","F","{""name"":""Chrome"",""chrome"":true,""version"":""99.0"",""blink"":true,""mac"":true,""osname"":""macOS"",""osversion"":""10.13.6"",""a"":true}","9:21:45","1","3","Test_1","70","f","1","2133.800000011921","1680 x 945","1680 x 945","true","1","10","","","","",""
"null","<p style=""font-size: 80px;"">+ 10 points</p>","null","html-keyboard-response","38","864257","0.0-11.0-2.37","60dc3e33a9d79c613fb778a6","kyp6qa","ZJ","45","F","{""name"":""Chrome"",""chrome"":true,""version"":""99.0"",""blink"":true,""mac"":true,""osname"":""macOS"",""osversion"":""10.13.6"",""a"":true}","9:21:45","1","3","Test_2","74","j","1","1580.8999999761581","1680 x 945","1680 x 945","true","1","10","","","","",""
"null","<p style=""font-size: 80px;"">+ 10 points</p>","null","html-keyboard-response","39","868297","0.0-11.0-2.38","60dc3e33a9d79c613fb778a6","kyp6qa","ZJ","45","F","{""name"":""Chrome"",""chrome"":true,""version"":""99.0"",""blink"":true,""mac"":true,""osname"":""macOS"",""osversion"":""10.13.6"",""a"":true}","9:21:45","1","3","Test_1","70","f","1","2032.6000000238419","1680 x 945","1680 x 945","true","1","10","","","","",""
"null","<p style=""font-size: 80px;"">+ 10 points</p>","null","html-keyboard-response","40","871468","0.0-11.0-2.39","60dc3e33a9d79c613fb778a6","kyp6qa","ZJ","45","F","{""name"":""Chrome"",""chrome"":true,""version"":""99.0"",""blink"":true,""mac"":true,""osname"":""macOS"",""osversion"":""10.13.6"",""a"":true}","9:21:45","1","3","Test_3","70","f","1","1165.3999999761581","1680 x 945","1680 x 945","true","1","10","","","","",""
"null","<p style=""font-size: 80px;"">+ 0 points</p>","null","html-keyboard-response","41","875002","0.0-11.0-2.40","60dc3e33a9d79c613fb778a6","kyp6qa","ZJ","45","F","{""name"":""Chrome"",""chrome"":true,""version"":""99.0"",""blink"":true,""mac"":true,""osname"":""macOS"",""osversion"":""10.13.6"",""a"":true}","9:21:45","1","4","Test_2","74","f","0","1526.2999999523163","1680 x 945","1680 x 945","true","1","0","","","","",""
"null","<p style=""font-size: 80px;"">+ 0 points</p>","null","html-keyboard-response","42","881529","0.0-11.0-2.41","60dc3e33a9d79c613fb778a6","kyp6qa","ZJ","45","F","{""name"":""Chrome"",""chrome"":true,""version"":""99.0"",""blink"":true,""mac"":true,""osname"":""macOS"",""osversion"":""10.13.6"",""a"":true}","9:21:45","1","4","Test_4","74","f","0","4518.199999988079","1680 x 945","1680 x 945","true","1","0","","","","",""
"null","<p style=""font-size: 80px;"">+ 10 points</p>","null","html-keyboard-response","43","884756","0.0-11.0-2.42","60dc3e33a9d79c613fb778a6","kyp6qa","ZJ","45","F","{""name"":""Chrome"",""chrome"":true,""version"":""99.0"",""blink"":true,""mac"":true,""osname"":""macOS"",""osversion"":""10.13.6"",""a"":true}","9:21:45","1","4","Test_2","70","f","1","1220","1680 x 945","1680 x 945","true","1","10","","","","",""
"null","<p style=""font-size: 80px;"">+ 10 points</p>","null","html-keyboard-response","44","888691","0.0-11.0-2.43","60dc3e33a9d79c613fb778a6","kyp6qa","ZJ","45","F","{""name"":""Chrome"",""chrome"":true,""version"":""99.0"",""blink"":true,""mac"":true,""osname"":""macOS"",""osversion"":""10.13.6"",""a"":true}","9:21:45","1","4","Test_2","70","f","1","1930.699999988079","1680 x 945","1680 x 945","true","1","10","","","","",""
"null","<p style=""font-size: 80px;"">+ 10 points</p>","null","html-keyboard-response","45","892000","0.0-11.0-2.44","60dc3e33a9d79c613fb778a6","kyp6qa","ZJ","45","F","{""name"":""Chrome"",""chrome"":true,""version"":""99.0"",""blink"":true,""mac"":true,""osname"":""macOS"",""osversion"":""10.13.6"",""a"":true}","9:21:45","1","4","Test_3","74","j","1","1300.0999999642372","1680 x 945","1680 x 945","true","1","10","","","","",""
"null","<p style=""font-size: 80px;"">+ 10 points</p>","null","html-keyboard-response","46","896097","0.0-11.0-2.45","60dc3e33a9d79c613fb778a6","kyp6qa","ZJ","45","F","{""name"":""Chrome"",""chrome"":true,""version"":""99.0"",""blink"":true,""mac"":true,""osname"":""macOS"",""osversion"":""10.13.6"",""a"":true}","9:21:45","1","4","Test_4","70","f","1","2088.699999988079","1680 x 945","1680 x 945","true","1","10","","","","",""
"null","<p style=""font-size: 80px;"">+ 10 points</p>","null","html-keyboard-response","47","899653","0.0-11.0-2.46","60dc3e33a9d79c613fb778a6","kyp6qa","ZJ","45","F","{""name"":""Chrome"",""chrome"":true,""version"":""99.0"",""blink"":true,""mac"":true,""osname"":""macOS"",""osversion"":""10.13.6"",""a"":true}","9:21:45","1","4","Test_1","74","j","1","1549.199999988079","1680 x 945","1680 x 945","true","1","10","","","","",""
"null","<p style=""font-size: 80px;"">+ 10 points</p>","null","html-keyboard-response","48","903746","0.0-11.0-2.47","60dc3e33a9d79c613fb778a6","kyp6qa","ZJ","45","F","{""name"":""Chrome"",""chrome"":true,""version"":""99.0"",""blink"":true,""mac"":true,""osname"":""macOS"",""osversion"":""10.13.6"",""a"":true}","9:21:45","1","4","Test_3","74","j","1","2086.7999999523163","1680 x 945","1680 x 945","true","1","10","","","","",""
"null","<p style=""font-size: 80px;"">+ 10 points</p>","null","html-keyboard-response","49","906963","0.0-11.0-2.48","60dc3e33a9d79c613fb778a6","kyp6qa","ZJ","45","F","{""name"":""Chrome"",""chrome"":true,""version"":""99.0"",""blink"":true,""mac"":true,""osname"":""macOS"",""osversion"":""10.13.6"",""a"":true}","9:21:45","1","4","Test_3","74","j","1","1211.1000000238419","1680 x 945","1680 x 945","true","1","10","","","","",""
"null","<p style=""font-size: 80px;"">+ 10 points</p>","null","html-keyboard-response","50","909821","0.0-11.0-2.49","60dc3e33a9d79c613fb778a6","kyp6qa","ZJ","45","F","{""name"":""Chrome"",""chrome"":true,""version"":""99.0"",""blink"":true,""mac"":true,""osname"":""macOS"",""osversion"":""10.13.6"",""a"":true}","9:21:45","1","4","Test_3","74","j","1","851.3000000119209","1680 x 945","1680 x 945","true","1","10","","","","",""
"null","<p style=""font-size: 80px;"">+ 10 points</p>","null","html-keyboard-response","51","912993","0.0-11.0-2.50","60dc3e33a9d79c613fb778a6","kyp6qa","ZJ","45","F","{""name"":""Chrome"",""chrome"":true,""version"":""99.0"",""blink"":true,""mac"":true,""osname"":""macOS"",""osversion"":""10.13.6"",""a"":true}","9:21:45","1","4","Test_4","70","f","1","1165.7000000476837","1680 x 945","1680 x 945","true","1","10","","","","",""
"null","<p style=""font-size: 80px;"">+ 10 points</p>","null","html-keyboard-response","52","915728","0.0-11.0-2.51","60dc3e33a9d79c613fb778a6","kyp6qa","ZJ","45","F","{""name"":""Chrome"",""chrome"":true,""version"":""99.0"",""blink"":true,""mac"":true,""osname"":""macOS"",""osversion"":""10.13.6"",""a"":true}","9:21:45","1","4","Test_4","70","f","1","727.8000000119209","1680 x 945","1680 x 945","true","1","10","","","","",""
"null","<p style=""font-size: 80px;"">+ 10 points</p>","null","html-keyboard-response","53","918675","0.0-11.0-2.52","60dc3e33a9d79c613fb778a6","kyp6qa","ZJ","45","F","{""name"":""Chrome"",""chrome"":true,""version"":""99.0"",""blink"":true,""mac"":true,""osname"":""macOS"",""osversion"":""10.13.6"",""a"":true}","9:21:45","1","4","Test_2","70","f","1","940.6999999880791","1680 x 945","1680 x 945","true","1","10","","","","",""
"null","<p style=""font-size: 80px;"">+ 10 points</p>","null","html-keyboard-response","54","921712","0.0-11.0-2.53","60dc3e33a9d79c613fb778a6","kyp6qa","ZJ","45","F","{""name"":""Chrome"",""chrome"":true,""version"":""99.0"",""blink"":true,""mac"":true,""osname"":""macOS"",""osversion"":""10.13.6"",""a"":true}","9:21:45","1","4","Test_1","74","j","1","1030.699999988079","1680 x 945","1680 x 945","true","1","10","","","","",""
"null","<p style=""font-size: 80px;"">+ 10 points</p>","null","html-keyboard-response","55","925312","0.0-11.0-2.54","60dc3e33a9d79c613fb778a6","kyp6qa","ZJ","45","F","{""name"":""Chrome"",""chrome"":true,""version"":""99.0"",""blink"":true,""mac"":true,""osname"":""macOS"",""osversion"":""10.13.6"",""a"":true}","9:21:45","1","4","Test_1","74","j","1","1593.800000011921","1680 x 945","1680 x 945","true","1","10","","","","",""
"null","<p style=""font-size: 80px;"">+ 10 points</p>","null","html-keyboard-response","56","929690","0.0-11.0-2.55","60dc3e33a9d79c613fb778a6","kyp6qa","ZJ","45","F","{""name"":""Chrome"",""chrome"":true,""version"":""99.0"",""blink"":true,""mac"":true,""osname"":""macOS"",""osversion"":""10.13.6"",""a"":true}","9:21:45","1","4","Test_4","70","f","1","2370.100000023842","1680 x 945","1680 x 945","true","1","10","","","","",""
"null","<p style=""font-size: 80px;"">+ 10 points</p>","null","html-keyboard-response","57","932996","0.0-11.0-2.56","60dc3e33a9d79c613fb778a6","kyp6qa","ZJ","45","F","{""name"":""Chrome"",""chrome"":true,""version"":""99.0"",""blink"":true,""mac"":true,""osname"":""macOS"",""osversion"":""10.13.6"",""a"":true}","9:21:45","1","4","Test_1","74","j","1","1300.3999999761581","1680 x 945","1680 x 945","true","1","10","","","","",""
"null","<p style=""font-size: 80px;"">+ 10 points</p>","null","html-keyboard-response","58","935956","0.0-11.0-2.57","60dc3e33a9d79c613fb778a6","kyp6qa","ZJ","45","F","{""name"":""Chrome"",""chrome"":true,""version"":""99.0"",""blink"":true,""mac"":true,""osname"":""macOS"",""osversion"":""10.13.6"",""a"":true}","9:21:45","1","4","Test_1","74","j","1","951.1999999880791","1680 x 945","1680 x 945","true","1","10","","","","",""
"null","<p style=""font-size: 80px;"">+ 10 points</p>","null","html-keyboard-response","59","939883","0.0-11.0-2.58","60dc3e33a9d79c613fb778a6","kyp6qa","ZJ","45","F","{""name"":""Chrome"",""chrome"":true,""version"":""99.0"",""blink"":true,""mac"":true,""osname"":""macOS"",""osversion"":""10.13.6"",""a"":true}","9:21:45","1","4","Test_3","74","j","1","1919.6000000238419","1680 x 945","1680 x 945","true","1","10","","","","",""
"null","<p style=""font-size: 80px;"">+ 10 points</p>","null","html-keyboard-response","60","942784","0.0-11.0-2.59","60dc3e33a9d79c613fb778a6","kyp6qa","ZJ","45","F","{""name"":""Chrome"",""chrome"":true,""version"":""99.0"",""blink"":true,""mac"":true,""osname"":""macOS"",""osversion"":""10.13.6"",""a"":true}","9:21:45","1","4","Test_2","70","f","1","894.7999999523163","1680 x 945","1680 x 945","true","1","10","","","","",""
"null","<p style=""font-size: 80px;"">+ 0 points</p>","null","html-keyboard-response","61","945889","0.0-11.0-2.60","60dc3e33a9d79c613fb778a6","kyp6qa","ZJ","45","F","{""name"":""Chrome"",""chrome"":true,""version"":""99.0"",""blink"":true,""mac"":true,""osname"":""macOS"",""osversion"":""10.13.6"",""a"":true}","9:21:45","1","3","Test_3","74","f","0","1098.2000000476837","1680 x 945","1680 x 945","true","1","0","","","","",""
"null","<p style=""font-size: 80px;"">+ 10 points</p>","null","html-keyboard-response","62","949793","0.0-11.0-2.61","60dc3e33a9d79c613fb778a6","kyp6qa","ZJ","45","F","{""name"":""Chrome"",""chrome"":true,""version"":""99.0"",""blink"":true,""mac"":true,""osname"":""macOS"",""osversion"":""10.13.6"",""a"":true}","9:21:45","1","3","Test_1","70","f","1","1895.800000011921","1680 x 945","1680 x 945","true","1","10","","","","",""
"null","<p style=""font-size: 80px;"">+ 10 points</p>","null","html-keyboard-response","63","954093","0.0-11.0-2.62","60dc3e33a9d79c613fb778a6","kyp6qa","ZJ","45","F","{""name"":""Chrome"",""chrome"":true,""version"":""99.0"",""blink"":true,""mac"":true,""osname"":""macOS"",""osversion"":""10.13.6"",""a"":true}","9:21:45","1","3","Test_3","70","f","1","2291.300000011921","1680 x 945","1680 x 945","true","1","10","","","","",""
"null","<p style=""font-size: 80px;"">+ 10 points</p>","null","html-keyboard-response","64","957074","0.0-11.0-2.63","60dc3e33a9d79c613fb778a6","kyp6qa","ZJ","45","F","{""name"":""Chrome"",""chrome"":true,""version"":""99.0"",""blink"":true,""mac"":true,""osname"":""macOS"",""osversion"":""10.13.6"",""a"":true}","9:21:45","1","3","Test_4","74","j","1","972.6999999880791","1680 x 945","1680 x 945","true","1","10","","","","",""
"null","<p style=""font-size: 80px;"">+ 10 points</p>","null","html-keyboard-response","65","960853","0.0-11.0-2.64","60dc3e33a9d79c613fb778a6","kyp6qa","ZJ","45","F","{""name"":""Chrome"",""chrome"":true,""version"":""99.0"",""blink"":true,""mac"":true,""osname"":""macOS"",""osversion"":""10.13.6"",""a"":true}","9:21:45","1","3","Test_1","70","f","1","1771.8999999761581","1680 x 945","1680 x 945","true","1","10","","","","",""
"null","<p style=""font-size: 80px;"">+ 10 points</p>","null","html-keyboard-response","66","964508","0.0-11.0-2.65","60dc3e33a9d79c613fb778a6","kyp6qa","ZJ","45","F","{""name"":""Chrome"",""chrome"":true,""version"":""99.0"",""blink"":true,""mac"":true,""osname"":""macOS"",""osversion"":""10.13.6"",""a"":true}","9:21:45","1","3","Test_2","74","j","1","1649","1680 x 945","1680 x 945","true","1","10","","","","",""
"null","<p style=""font-size: 80px;"">+ 10 points</p>","null","html-keyboard-response","67","968278","0.0-11.0-2.66","60dc3e33a9d79c613fb778a6","kyp6qa","ZJ","45","F","{""name"":""Chrome"",""chrome"":true,""version"":""99.0"",""blink"":true,""mac"":true,""osname"":""macOS"",""osversion"":""10.13.6"",""a"":true}","9:21:45","1","3","Test_2","74","j","1","1762.300000011921","1680 x 945","1680 x 945","true","1","10","","","","",""
"null","<p style=""font-size: 80px;"">+ 10 points</p>","null","html-keyboard-response","68","971629","0.0-11.0-2.67","60dc3e33a9d79c613fb778a6","kyp6qa","ZJ","45","F","{""name"":""Chrome"",""chrome"":true,""version"":""99.0"",""blink"":true,""mac"":true,""osname"":""macOS"",""osversion"":""10.13.6"",""a"":true}","9:21:45","1","3","Test_3","70","f","1","1345.4000000357628","1680 x 945","1680 x 945","true","1","10","","","","",""
"null","<p style=""font-size: 80px;"">+ 10 points</p>","null","html-keyboard-response","69","976288","0.0-11.0-2.68","60dc3e33a9d79c613fb778a6","kyp6qa","ZJ","45","F","{""name"":""Chrome"",""chrome"":true,""version"":""99.0"",""blink"":true,""mac"":true,""osname"":""macOS"",""osversion"":""10.13.6"",""a"":true}","9:21:45","1","3","Test_1","70","f","1","2651.300000011921","1680 x 945","1680 x 945","true","1","10","","","","",""
"null","<p style=""font-size: 80px;"">+ 10 points</p>","null","html-keyboard-response","70","979685","0.0-11.0-2.69","60dc3e33a9d79c613fb778a6","kyp6qa","ZJ","45","F","{""name"":""Chrome"",""chrome"":true,""version"":""99.0"",""blink"":true,""mac"":true,""osname"":""macOS"",""osversion"":""10.13.6"",""a"":true}","9:21:45","1","3","Test_1","70","f","1","1390.1000000238419","1680 x 945","1680 x 945","true","1","10","","","","",""
"null","<p style=""font-size: 80px;"">+ 10 points</p>","null","html-keyboard-response","71","982666","0.0-11.0-2.70","60dc3e33a9d79c613fb778a6","kyp6qa","ZJ","45","F","{""name"":""Chrome"",""chrome"":true,""version"":""99.0"",""blink"":true,""mac"":true,""osname"":""macOS"",""osversion"":""10.13.6"",""a"":true}","9:21:45","1","3","Test_4","74","j","1","974.2999999523163","1680 x 945","1680 x 945","true","1","10","","","","",""
"null","<p style=""font-size: 80px;"">+ 10 points</p>","null","html-keyboard-response","72","986571","0.0-11.0-2.71","60dc3e33a9d79c613fb778a6","kyp6qa","ZJ","45","F","{""name"":""Chrome"",""chrome"":true,""version"":""99.0"",""blink"":true,""mac"":true,""osname"":""macOS"",""osversion"":""10.13.6"",""a"":true}","9:21:45","1","3","Test_2","74","j","1","1897.0999999642372","1680 x 945","1680 x 945","true","1","10","","","","",""
"null","<p style=""font-size: 80px;"">+ 10 points</p>","null","html-keyboard-response","73","993277","0.0-11.0-2.72","60dc3e33a9d79c613fb778a6","kyp6qa","ZJ","45","F","{""name"":""Chrome"",""chrome"":true,""version"":""99.0"",""blink"":true,""mac"":true,""osname"":""macOS"",""osversion"":""10.13.6"",""a"":true}","9:21:45","1","3","Test_4","74","j","1","4697.399999976158","1680 x 945","1680 x 945","true","1","10","","","","",""
"null","<p style=""font-size: 80px;"">+ 10 points</p>","null","html-keyboard-response","74","997010","0.0-11.0-2.73","60dc3e33a9d79c613fb778a6","kyp6qa","ZJ","45","F","{""name"":""Chrome"",""chrome"":true,""version"":""99.0"",""blink"":true,""mac"":true,""osname"":""macOS"",""osversion"":""10.13.6"",""a"":true}","9:21:45","1","3","Test_2","74","j","1","1726.6000000238419","1680 x 945","1680 x 945","true","1","10","","","","",""
"null","<p style=""font-size: 80px;"">+ 10 points</p>","null","html-keyboard-response","75","1000431","0.0-11.0-2.74","60dc3e33a9d79c613fb778a6","kyp6qa","ZJ","45","F","{""name"":""Chrome"",""chrome"":true,""version"":""99.0"",""blink"":true,""mac"":true,""osname"":""macOS"",""osversion"":""10.13.6"",""a"":true}","9:21:45","1","3","Test_3","70","f","1","1413.699999988079","1680 x 945","1680 x 945","true","1","10","","","","",""
"null","<p style=""font-size: 80px;"">+ 10 points</p>","null","html-keyboard-response","76","1003580","0.0-11.0-2.75","60dc3e33a9d79c613fb778a6","kyp6qa","ZJ","45","F","{""name"":""Chrome"",""chrome"":true,""version"":""99.0"",""blink"":true,""mac"":true,""osname"":""macOS"",""osversion"":""10.13.6"",""a"":true}","9:21:45","1","3","Test_2","74","j","1","1143","1680 x 945","1680 x 945","true","1","10","","","","",""
"null","<p style=""font-size: 80px;"">+ 0 points</p>","null","html-keyboard-response","77","1010497","0.0-11.0-2.76","60dc3e33a9d79c613fb778a6","kyp6qa","ZJ","45","F","{""name"":""Chrome"",""chrome"":true,""version"":""99.0"",""blink"":true,""mac"":true,""osname"":""macOS"",""osversion"":""10.13.6"",""a"":true}","9:21:45","1","3","Test_3","74","f","0","4913.100000023842","1680 x 945","1680 x 945","true","1","0","","","","",""
"null","<p style=""font-size: 80px;"">+ 10 points</p>","null","html-keyboard-response","78","1014359","0.0-11.0-2.77","60dc3e33a9d79c613fb778a6","kyp6qa","ZJ","45","F","{""name"":""Chrome"",""chrome"":true,""version"":""99.0"",""blink"":true,""mac"":true,""osname"":""macOS"",""osversion"":""10.13.6"",""a"":true}","9:21:45","1","3","Test_4","74","j","1","1853.7000000476837","1680 x 945","1680 x 945","true","1","10","","","","",""
"null","<p style=""font-size: 80px;"">+ 0 points</p>","null","html-keyboard-response","79","1018285","0.0-11.0-2.78","60dc3e33a9d79c613fb778a6","kyp6qa","ZJ","45","F","{""name"":""Chrome"",""chrome"":true,""version"":""99.0"",""blink"":true,""mac"":true,""osname"":""macOS"",""osversion"":""10.13.6"",""a"":true}","9:21:45","1","3","Test_2","70","j","0","1919.8999999761581","1680 x 945","1680 x 945","true","1","0","","","","",""
"null","<p style=""font-size: 80px;"">+ 10 points</p>","null","html-keyboard-response","80","1023089","0.0-11.0-2.79","60dc3e33a9d79c613fb778a6","kyp6qa","ZJ","45","F","{""name"":""Chrome"",""chrome"":true,""version"":""99.0"",""blink"":true,""mac"":true,""osname"":""macOS"",""osversion"":""10.13.6"",""a"":true}","9:21:45","1","3","Test_4","74","j","1","2796.800000011921","1680 x 945","1680 x 945","true","1","10","","","","",""
"null","<p style=""font-size: 80px;"">+ 10 points</p>","null","html-keyboard-response","81","1026780","0.0-11.0-2.80","60dc3e33a9d79c613fb778a6","kyp6qa","ZJ","45","F","{""name"":""Chrome"",""chrome"":true,""version"":""99.0"",""blink"":true,""mac"":true,""osname"":""macOS"",""osversion"":""10.13.6"",""a"":true}","9:21:45","1","3","Test_3","70","f","1","1682.7000000476837","1680 x 945","1680 x 945","true","1","10","","","","",""
"null","<p style=""font-size: 80px;"">+ 10 points</p>","null","html-keyboard-response","82","1030086","0.0-11.0-2.81","60dc3e33a9d79c613fb778a6","kyp6qa","ZJ","45","F","{""name"":""Chrome"",""chrome"":true,""version"":""99.0"",""blink"":true,""mac"":true,""osname"":""macOS"",""osversion"":""10.13.6"",""a"":true}","9:21:45","1","3","Test_1","70","f","1","1299.5","1680 x 945","1680 x 945","true","1","10","","","","",""
"null","<p style=""font-size: 80px;"">+ 10 points</p>","null","html-keyboard-response","83","1033157","0.0-11.0-2.82","60dc3e33a9d79c613fb778a6","kyp6qa","ZJ","45","F","{""name"":""Chrome"",""chrome"":true,""version"":""99.0"",""blink"":true,""mac"":true,""osname"":""macOS"",""osversion"":""10.13.6"",""a"":true}","9:21:45","1","3","Test_1","70","f","1","1064.800000011921","1680 x 945","1680 x 945","true","1","10","","","","",""
"null","<p style=""font-size: 80px;"">+ 10 points</p>","null","html-keyboard-response","84","1036555","0.0-11.0-2.83","60dc3e33a9d79c613fb778a6","kyp6qa","ZJ","45","F","{""name"":""Chrome"",""chrome"":true,""version"":""99.0"",""blink"":true,""mac"":true,""osname"":""macOS"",""osversion"":""10.13.6"",""a"":true}","9:21:45","1","3","Test_4","74","j","1","1392.699999988079","1680 x 945","1680 x 945","true","1","10","","","","",""
"null","<p style=""font-size: 80px;"">+ 0 points</p>","null","html-keyboard-response","85","1040742","0.0-11.0-2.84","60dc3e33a9d79c613fb778a6","kyp6qa","ZJ","45","F","{""name"":""Chrome"",""chrome"":true,""version"":""99.0"",""blink"":true,""mac"":true,""osname"":""macOS"",""osversion"":""10.13.6"",""a"":true}","9:21:45","1","4","Test_2","74","f","0","2178.899999976158","1680 x 945","1680 x 945","true","1","0","","","","",""
"null","<p style=""font-size: 80px;"">+ 0 points</p>","null","html-keyboard-response","86","1046576","0.0-11.0-2.85","60dc3e33a9d79c613fb778a6","kyp6qa","ZJ","45","F","{""name"":""Chrome"",""chrome"":true,""version"":""99.0"",""blink"":true,""mac"":true,""osname"":""macOS"",""osversion"":""10.13.6"",""a"":true}","9:21:45","1","4","Test_1","70","j","0","3830.199999988079","1680 x 945","1680 x 945","true","1","0","","","","",""
"null","<p style=""font-size: 80px;"">+ 10 points</p>","null","html-keyboard-response","87","1051755","0.0-11.0-2.86","60dc3e33a9d79c613fb778a6","kyp6qa","ZJ","45","F","{""name"":""Chrome"",""chrome"":true,""version"":""99.0"",""blink"":true,""mac"":true,""osname"":""macOS"",""osversion"":""10.13.6"",""a"":true}","9:21:45","1","4","Test_4","70","f","1","3170.800000011921","1680 x 945","1680 x 945","true","1","10","","","","",""
"null","<p style=""font-size: 80px;"">+ 10 points</p>","null","html-keyboard-response","88","1054670","0.0-11.0-2.87","60dc3e33a9d79c613fb778a6","kyp6qa","ZJ","45","F","{""name"":""Chrome"",""chrome"":true,""version"":""99.0"",""blink"":true,""mac"":true,""osname"":""macOS"",""osversion"":""10.13.6"",""a"":true}","9:21:45","1","4","Test_3","74","j","1","906.3999999761581","1680 x 945","1680 x 945","true","1","10","","","","",""
"null","<p style=""font-size: 80px;"">+ 10 points</p>","null","html-keyboard-response","89","1057582","0.0-11.0-2.88","60dc3e33a9d79c613fb778a6","kyp6qa","ZJ","45","F","{""name"":""Chrome"",""chrome"":true,""version"":""99.0"",""blink"":true,""mac"":true,""osname"":""macOS"",""osversion"":""10.13.6"",""a"":true}","9:21:45","1","4","Test_3","74","j","1","905.0999999642372","1680 x 945","1680 x 945","true","1","10","","","","",""
"null","<p style=""font-size: 80px;"">+ 10 points</p>","null","html-keyboard-response","90","1060339","0.0-11.0-2.89","60dc3e33a9d79c613fb778a6","kyp6qa","ZJ","45","F","{""name"":""Chrome"",""chrome"":true,""version"":""99.0"",""blink"":true,""mac"":true,""osname"":""macOS"",""osversion"":""10.13.6"",""a"":true}","9:21:45","1","4","Test_4","70","f","1","749.5","1680 x 945","1680 x 945","true","1","10","","","","",""
"null","<p style=""font-size: 80px;"">+ 10 points</p>","null","html-keyboard-response","91","1063185","0.0-11.0-2.90","60dc3e33a9d79c613fb778a6","kyp6qa","ZJ","45","F","{""name"":""Chrome"",""chrome"":true,""version"":""99.0"",""blink"":true,""mac"":true,""osname"":""macOS"",""osversion"":""10.13.6"",""a"":true}","9:21:45","1","4","Test_1","74","j","1","839.1999999880791","1680 x 945","1680 x 945","true","1","10","","","","",""
"null","<p style=""font-size: 80px;"">+ 10 points</p>","null","html-keyboard-response","92","1066762","0.0-11.0-2.91","60dc3e33a9d79c613fb778a6","kyp6qa","ZJ","45","F","{""name"":""Chrome"",""chrome"":true,""version"":""99.0"",""blink"":true,""mac"":true,""osname"":""macOS"",""osversion"":""10.13.6"",""a"":true}","9:21:45","1","4","Test_3","74","j","1","1567.8999999761581","1680 x 945","1680 x 945","true","1","10","","","","",""
"null","<p style=""font-size: 80px;"">+ 10 points</p>","null","html-keyboard-response","93","1069699","0.0-11.0-2.92","60dc3e33a9d79c613fb778a6","kyp6qa","ZJ","45","F","{""name"":""Chrome"",""chrome"":true,""version"":""99.0"",""blink"":true,""mac"":true,""osname"":""macOS"",""osversion"":""10.13.6"",""a"":true}","9:21:45","1","4","Test_2","70","f","1","929.5","1680 x 945","1680 x 945","true","1","10","","","","",""
"null","<p style=""font-size: 80px;"">+ 10 points</p>","null","html-keyboard-response","94","1072916","0.0-11.0-2.93","60dc3e33a9d79c613fb778a6","kyp6qa","ZJ","45","F","{""name"":""Chrome"",""chrome"":true,""version"":""99.0"",""blink"":true,""mac"":true,""osname"":""macOS"",""osversion"":""10.13.6"",""a"":true}","9:21:45","1","4","Test_1","74","j","1","1210.1000000238419","1680 x 945","1680 x 945","true","1","10","","","","",""
"null","<p style=""font-size: 80px;"">+ 10 points</p>","null","html-keyboard-response","95","1075704","0.0-11.0-2.94","60dc3e33a9d79c613fb778a6","kyp6qa","ZJ","45","F","{""name"":""Chrome"",""chrome"":true,""version"":""99.0"",""blink"":true,""mac"":true,""osname"":""macOS"",""osversion"":""10.13.6"",""a"":true}","9:21:45","1","4","Test_2","70","f","1","783.8999999761581","1680 x 945","1680 x 945","true","1","10","","","","",""
"null","<p style=""font-size: 80px;"">+ 10 points</p>","null","html-keyboard-response","96","1078856","0.0-11.0-2.95","60dc3e33a9d79c613fb778a6","kyp6qa","ZJ","45","F","{""name"":""Chrome"",""chrome"":true,""version"":""99.0"",""blink"":true,""mac"":true,""osname"":""macOS"",""osversion"":""10.13.6"",""a"":true}","9:21:45","1","4","Test_2","70","f","1","1145.699999988079","1680 x 945","1680 x 945","true","1","10","","","","",""
"null","<p style=""font-size: 80px;"">+ 10 points</p>","null","html-keyboard-response","97","1082367","0.0-11.0-2.96","60dc3e33a9d79c613fb778a6","kyp6qa","ZJ","45","F","{""name"":""Chrome"",""chrome"":true,""version"":""99.0"",""blink"":true,""mac"":true,""osname"":""macOS"",""osversion"":""10.13.6"",""a"":true}","9:21:45","1","4","Test_4","70","f","1","1500.6000000238419","1680 x 945","1680 x 945","true","1","10","","","","",""
"null","<p style=""font-size: 80px;"">+ 10 points</p>","null","html-keyboard-response","98","1085089","0.0-11.0-2.97","60dc3e33a9d79c613fb778a6","kyp6qa","ZJ","45","F","{""name"":""Chrome"",""chrome"":true,""version"":""99.0"",""blink"":true,""mac"":true,""osname"":""macOS"",""osversion"":""10.13.6"",""a"":true}","9:21:45","1","4","Test_1","74","j","1","715.1999999880791","1680 x 945","1680 x 945","true","1","10","","","","",""
"null","<p style=""font-size: 80px;"">+ 10 points</p>","null","html-keyboard-response","99","1088610","0.0-11.0-2.98","60dc3e33a9d79c613fb778a6","kyp6qa","ZJ","45","F","{""name"":""Chrome"",""chrome"":true,""version"":""99.0"",""blink"":true,""mac"":true,""osname"":""macOS"",""osversion"":""10.13.6"",""a"":true}","9:21:45","1","4","Test_1","74","j","1","1514.4000000357628","1680 x 945","1680 x 945","true","1","10","","","","",""
"null","<p style=""font-size: 80px;"">+ 10 points</p>","null","html-keyboard-response","100","1093291","0.0-11.0-2.99","60dc3e33a9d79c613fb778a6","kyp6qa","ZJ","45","F","{""name"":""Chrome"",""chrome"":true,""version"":""99.0"",""blink"":true,""mac"":true,""osname"":""macOS"",""osversion"":""10.13.6"",""a"":true}","9:21:45","1","4","Test_3","74","j","1","2671.5","1680 x 945","1680 x 945","true","1","10","","","","",""
"null","<p style=""font-size: 80px;"">+ 10 points</p>","null","html-keyboard-response","101","1096564","0.0-11.0-2.100","60dc3e33a9d79c613fb778a6","kyp6qa","ZJ","45","F","{""name"":""Chrome"",""chrome"":true,""version"":""99.0"",""blink"":true,""mac"":true,""osname"":""macOS"",""osversion"":""10.13.6"",""a"":true}","9:21:45","1","4","Test_4","70","f","1","1266.300000011921","1680 x 945","1680 x 945","true","1","10","","","","",""
"null","<p style=""font-size: 80px;"">+ 10 points</p>","null","html-keyboard-response","102","1099726","0.0-11.0-2.101","60dc3e33a9d79c613fb778a6","kyp6qa","ZJ","45","F","{""name"":""Chrome"",""chrome"":true,""version"":""99.0"",""blink"":true,""mac"":true,""osname"":""macOS"",""osversion"":""10.13.6"",""a"":true}","9:21:45","1","4","Test_3","74","j","1","1154.6000000238419","1680 x 945","1680 x 945","true","1","10","","","","",""
"null","<p style=""font-size: 80px;"">+ 10 points</p>","null","html-keyboard-response","103","1102696","0.0-11.0-2.102","60dc3e33a9d79c613fb778a6","kyp6qa","ZJ","45","F","{""name"":""Chrome"",""chrome"":true,""version"":""99.0"",""blink"":true,""mac"":true,""osname"":""macOS"",""osversion"":""10.13.6"",""a"":true}","9:21:45","1","4","Test_2","70","f","1","963","1680 x 945","1680 x 945","true","1","10","","","","",""
"null","<p style=""font-size: 80px;"">+ 10 points</p>","null","html-keyboard-response","104","1105779","0.0-11.0-2.103","60dc3e33a9d79c613fb778a6","kyp6qa","ZJ","45","F","{""name"":""Chrome"",""chrome"":true,""version"":""99.0"",""blink"":true,""mac"":true,""osname"":""macOS"",""osversion"":""10.13.6"",""a"":true}","9:21:45","1","4","Test_1","74","j","1","1075.699999988079","1680 x 945","1680 x 945","true","1","10","","","","",""
"null","<p style=""font-size: 80px;"">+ 10 points</p>","null","html-keyboard-response","105","1109085","0.0-11.0-2.104","60dc3e33a9d79c613fb778a6","kyp6qa","ZJ","45","F","{""name"":""Chrome"",""chrome"":true,""version"":""99.0"",""blink"":true,""mac"":true,""osname"":""macOS"",""osversion"":""10.13.6"",""a"":true}","9:21:45","1","4","Test_3","74","j","1","1300.2999999523163","1680 x 945","1680 x 945","true","1","10","","","","",""
"null","<p style=""font-size: 80px;"">+ 0 points</p>","null","html-keyboard-response","106","1111673","0.0-11.0-2.105","60dc3e33a9d79c613fb778a6","kyp6qa","ZJ","45","F","{""name"":""Chrome"",""chrome"":true,""version"":""99.0"",""blink"":true,""mac"":true,""osname"":""macOS"",""osversion"":""10.13.6"",""a"":true}","9:21:45","1","3","Test_3","74","f","0","581.2999999523163","1680 x 945","1680 x 945","true","1","0","","","","",""
"null","<p style=""font-size: 80px;"">+ 10 points</p>","null","html-keyboard-response","107","1114981","0.0-11.0-2.106","60dc3e33a9d79c613fb778a6","kyp6qa","ZJ","45","F","{""name"":""Chrome"",""chrome"":true,""version"":""99.0"",""blink"":true,""mac"":true,""osname"":""macOS"",""osversion"":""10.13.6"",""a"":true}","9:21:45","1","3","Test_2","74","j","1","1300.5","1680 x 945","1680 x 945","true","1","10","","","","",""
"null","<p style=""font-size: 80px;"">+ 10 points</p>","null","html-keyboard-response","108","1117659","0.0-11.0-2.107","60dc3e33a9d79c613fb778a6","kyp6qa","ZJ","45","F","{""name"":""Chrome"",""chrome"":true,""version"":""99.0"",""blink"":true,""mac"":true,""osname"":""macOS"",""osversion"":""10.13.6"",""a"":true}","9:21:45","1","3","Test_2","74","j","1","670.1000000238419","1680 x 945","1680 x 945","true","1","10","","","","",""
"null","<p style=""font-size: 80px;"">+ 10 points</p>","null","html-keyboard-response","109","1121011","0.0-11.0-2.108","60dc3e33a9d79c613fb778a6","kyp6qa","ZJ","45","F","{""name"":""Chrome"",""chrome"":true,""version"":""99.0"",""blink"":true,""mac"":true,""osname"":""macOS"",""osversion"":""10.13.6"",""a"":true}","9:21:45","1","3","Test_1","70","f","1","1345.300000011921","1680 x 945","1680 x 945","true","1","10","","","","",""
"null","<p style=""font-size: 80px;"">+ 0 points</p>","null","html-keyboard-response","110","1224964","0.0-11.0-2.109","60dc3e33a9d79c613fb778a6","kyp6qa","ZJ","45","F","{""name"":""Chrome"",""chrome"":true,""version"":""99.0"",""blink"":true,""mac"":true,""osname"":""macOS"",""osversion"":""10.13.6"",""a"":true}","9:21:45","1","3","Test_3","74","f","0","4498.300000011921","1680 x 945","1680 x 945","true","1","0","","","","",""
"null","<p style=""font-size: 80px;"">+ 10 points</p>","null","html-keyboard-response","111","1231421","0.0-11.0-2.110","60dc3e33a9d79c613fb778a6","kyp6qa","ZJ","45","F","{""name"":""Chrome"",""chrome"":true,""version"":""99.0"",""blink"":true,""mac"":true,""osname"":""macOS"",""osversion"":""10.13.6"",""a"":true}","9:21:45","1","3","Test_4","74","j","1","4450.199999988079","1680 x 945","1680 x 945","true","1","10","","","","",""
"null","<p style=""font-size: 80px;"">+ 10 points</p>","null","html-keyboard-response","112","1234133","0.0-11.0-2.111","60dc3e33a9d79c613fb778a6","kyp6qa","ZJ","45","F","{""name"":""Chrome"",""chrome"":true,""version"":""99.0"",""blink"":true,""mac"":true,""osname"":""macOS"",""osversion"":""10.13.6"",""a"":true}","9:21:45","1","3","Test_4","74","j","1","704.1999999880791","1680 x 945","1680 x 945","true","1","10","","","","",""
"null","<p style=""font-size: 80px;"">+ 10 points</p>","null","html-keyboard-response","113","1236664","0.0-11.0-2.112","60dc3e33a9d79c613fb778a6","kyp6qa","ZJ","45","F","{""name"":""Chrome"",""chrome"":true,""version"":""99.0"",""blink"":true,""mac"":true,""osname"":""macOS"",""osversion"":""10.13.6"",""a"":true}","9:21:45","1","3","Test_4","74","j","1","523.9000000357628","1680 x 945","1680 x 945","true","1","10","","","","",""
"null","<p style=""font-size: 80px;"">+ 10 points</p>","null","html-keyboard-response","114","1240018","0.0-11.0-2.113","60dc3e33a9d79c613fb778a6","kyp6qa","ZJ","45","F","{""name"":""Chrome"",""chrome"":true,""version"":""99.0"",""blink"":true,""mac"":true,""osname"":""macOS"",""osversion"":""10.13.6"",""a"":true}","9:21:45","1","3","Test_1","70","f","1","1345.6000000238419","1680 x 945","1680 x 945","true","1","10","","","","",""
"null","<p style=""font-size: 80px;"">+ 10 points</p>","null","html-keyboard-response","115","1243414","0.0-11.0-2.114","60dc3e33a9d79c613fb778a6","kyp6qa","ZJ","45","F","{""name"":""Chrome"",""chrome"":true,""version"":""99.0"",""blink"":true,""mac"":true,""osname"":""macOS"",""osversion"":""10.13.6"",""a"":true}","9:21:45","1","3","Test_3","70","f","1","1389.699999988079","1680 x 945","1680 x 945","true","1","10","","","","",""
"null","<p style=""font-size: 80px;"">+ 10 points</p>","null","html-keyboard-response","116","1246015","0.0-11.0-2.115","60dc3e33a9d79c613fb778a6","kyp6qa","ZJ","45","F","{""name"":""Chrome"",""chrome"":true,""version"":""99.0"",""blink"":true,""mac"":true,""osname"":""macOS"",""osversion"":""10.13.6"",""a"":true}","9:21:45","1","3","Test_3","70","f","1","589.9000000357628","1680 x 945","1680 x 945","true","1","10","","","","",""
"null","<p style=""font-size: 80px;"">+ 10 points</p>","null","html-keyboard-response","117","1249050","0.0-11.0-2.116","60dc3e33a9d79c613fb778a6","kyp6qa","ZJ","45","F","{""name"":""Chrome"",""chrome"":true,""version"":""99.0"",""blink"":true,""mac"":true,""osname"":""macOS"",""osversion"":""10.13.6"",""a"":true}","9:21:45","1","3","Test_1","70","f","1","1028.6000000238419","1680 x 945","1680 x 945","true","1","10","","","","",""
"null","<p style=""font-size: 80px;"">+ 10 points</p>","null","html-keyboard-response","118","1251975","0.0-11.0-2.117","60dc3e33a9d79c613fb778a6","kyp6qa","ZJ","45","F","{""name"":""Chrome"",""chrome"":true,""version"":""99.0"",""blink"":true,""mac"":true,""osname"":""macOS"",""osversion"":""10.13.6"",""a"":true}","9:21:45","1","3","Test_2","74","j","1","918.6999999880791","1680 x 945","1680 x 945","true","1","10","","","","",""
"null","<p style=""font-size: 80px;"">+ 10 points</p>","null","html-keyboard-response","119","1255125","0.0-11.0-2.118","60dc3e33a9d79c613fb778a6","kyp6qa","ZJ","45","F","{""name"":""Chrome"",""chrome"":true,""version"":""99.0"",""blink"":true,""mac"":true,""osname"":""macOS"",""osversion"":""10.13.6"",""a"":true}","9:21:45","1","3","Test_1","70","f","1","1143.7000000476837","1680 x 945","1680 x 945","true","1","10","","","","",""
"null","<p style=""font-size: 80px;"">+ 10 points</p>","null","html-keyboard-response","120","1258838","0.0-11.0-2.119","60dc3e33a9d79c613fb778a6","kyp6qa","ZJ","45","F","{""name"":""Chrome"",""chrome"":true,""version"":""99.0"",""blink"":true,""mac"":true,""osname"":""macOS"",""osversion"":""10.13.6"",""a"":true}","9:21:45","1","3","Test_3","70","f","1","1706","1680 x 945","1680 x 945","true","1","10","","","","",""
"null","<p style=""font-size: 80px;"">+ 10 points</p>","null","html-keyboard-response","121","1261875","0.0-11.0-2.120","60dc3e33a9d79c613fb778a6","kyp6qa","ZJ","45","F","{""name"":""Chrome"",""chrome"":true,""version"":""99.0"",""blink"":true,""mac"":true,""osname"":""macOS"",""osversion"":""10.13.6"",""a"":true}","9:21:45","1","3","Test_2","74","j","1","1028.5999999642372","1680 x 945","1680 x 945","true","1","10","","","","",""
"null","<p style=""font-size: 80px;"">+ 10 points</p>","null","html-keyboard-response","122","1266354","0.0-11.0-2.121","60dc3e33a9d79c613fb778a6","kyp6qa","ZJ","45","F","{""name"":""Chrome"",""chrome"":true,""version"":""99.0"",""blink"":true,""mac"":true,""osname"":""macOS"",""osversion"":""10.13.6"",""a"":true}","9:21:45","1","3","Test_4","74","j","1","2471.399999976158","1680 x 945","1680 x 945","true","1","10","","","","",""
"null","<p style=""font-size: 80px;"">+ 10 points</p>","null","html-keyboard-response","123","1269491","0.0-11.0-2.122","60dc3e33a9d79c613fb778a6","kyp6qa","ZJ","45","F","{""name"":""Chrome"",""chrome"":true,""version"":""99.0"",""blink"":true,""mac"":true,""osname"":""macOS"",""osversion"":""10.13.6"",""a"":true}","9:21:45","1","3","Test_3","70","f","1","1131","1680 x 945","1680 x 945","true","1","10","","","","",""
"null","<p style=""font-size: 80px;"">+ 10 points</p>","null","html-keyboard-response","124","1273824","0.0-11.0-2.123","60dc3e33a9d79c613fb778a6","kyp6qa","ZJ","45","F","{""name"":""Chrome"",""chrome"":true,""version"":""99.0"",""blink"":true,""mac"":true,""osname"":""macOS"",""osversion"":""10.13.6"",""a"":true}","9:21:45","1","3","Test_2","74","j","1","2325.199999988079","1680 x 945","1680 x 945","true","1","10","","","","",""
"null","<p style=""font-size: 80px;"">+ 10 points</p>","null","html-keyboard-response","125","1277705","0.0-11.0-2.124","60dc3e33a9d79c613fb778a6","kyp6qa","ZJ","45","F","{""name"":""Chrome"",""chrome"":true,""version"":""99.0"",""blink"":true,""mac"":true,""osname"":""macOS"",""osversion"":""10.13.6"",""a"":true}","9:21:45","1","3","Test_1","70","f","1","1874.2000000476837","1680 x 945","1680 x 945","true","1","10","","","","",""
"null","<p style=""font-size: 80px;"">+ 10 points</p>","null","html-keyboard-response","126","1281282","0.0-11.0-2.125","60dc3e33a9d79c613fb778a6","kyp6qa","ZJ","45","F","{""name"":""Chrome"",""chrome"":true,""version"":""99.0"",""blink"":true,""mac"":true,""osname"":""macOS"",""osversion"":""10.13.6"",""a"":true}","9:21:45","1","3","Test_4","74","j","1","1570.199999988079","1680 x 945","1680 x 945","true","1","10","","","","",""
"null","<p style=""font-size: 80px;"">+ 10 points</p>","null","html-keyboard-response","127","1283960","0.0-11.0-2.126","60dc3e33a9d79c613fb778a6","kyp6qa","ZJ","45","F","{""name"":""Chrome"",""chrome"":true,""version"":""99.0"",""blink"":true,""mac"":true,""osname"":""macOS"",""osversion"":""10.13.6"",""a"":true}","9:21:45","1","3","Test_1","70","f","1","671.3999999761581","1680 x 945","1680 x 945","true","1","10","","","","",""
"null","<p style=""font-size: 80px;"">+ 10 points</p>","null","html-keyboard-response","128","1287019","0.0-11.0-2.127","60dc3e33a9d79c613fb778a6","kyp6qa","ZJ","45","F","{""name"":""Chrome"",""chrome"":true,""version"":""99.0"",""blink"":true,""mac"":true,""osname"":""macOS"",""osversion"":""10.13.6"",""a"":true}","9:21:45","1","3","Test_4","74","j","1","1053.699999988079","1680 x 945","1680 x 945","true","1","10","","","","",""
"null","<p style=""font-size: 80px;"">+ 10 points</p>","null","html-keyboard-response","129","1290991","0.0-11.0-2.128","60dc3e33a9d79c613fb778a6","kyp6qa","ZJ","45","F","{""name"":""Chrome"",""chrome"":true,""version"":""99.0"",""blink"":true,""mac"":true,""osname"":""macOS"",""osversion"":""10.13.6"",""a"":true}","9:21:45","1","3","Test_2","74","j","1","1966","1680 x 945","1680 x 945","true","1","10","","","","",""
"null","<p style=""font-size: 80px;"">+ 0 points</p>","null","html-keyboard-response","130","1293995","0.0-11.0-2.129","60dc3e33a9d79c613fb778a6","kyp6qa","ZJ","45","F","{""name"":""Chrome"",""chrome"":true,""version"":""99.0"",""blink"":true,""mac"":true,""osname"":""macOS"",""osversion"":""10.13.6"",""a"":true}","9:21:45","1","4","Test_3","70","j","0","997.1999999880791","1680 x 945","1680 x 945","true","1","0","","","","",""
"null","<p style=""font-size: 80px;"">+ 10 points</p>","null","html-keyboard-response","131","1296954","0.0-11.0-2.130","60dc3e33a9d79c613fb778a6","kyp6qa","ZJ","45","F","{""name"":""Chrome"",""chrome"":true,""version"":""99.0"",""blink"":true,""mac"":true,""osname"":""macOS"",""osversion"":""10.13.6"",""a"":true}","9:21:45","1","4","Test_1","74","j","1","951.3999999761581","1680 x 945","1680 x 945","true","1","10","","","","",""
"null","<p style=""font-size: 80px;"">+ 10 points</p>","null","html-keyboard-response","132","1299868","0.0-11.0-2.131","60dc3e33a9d79c613fb778a6","kyp6qa","ZJ","45","F","{""name"":""Chrome"",""chrome"":true,""version"":""99.0"",""blink"":true,""mac"":true,""osname"":""macOS"",""osversion"":""10.13.6"",""a"":true}","9:21:45","1","4","Test_1","74","j","1","906.8999999761581","1680 x 945","1680 x 945","true","1","10","","","","",""
"null","<p style=""font-size: 80px;"">+ 10 points</p>","null","html-keyboard-response","133","1303040","0.0-11.0-2.132","60dc3e33a9d79c613fb778a6","kyp6qa","ZJ","45","F","{""name"":""Chrome"",""chrome"":true,""version"":""99.0"",""blink"":true,""mac"":true,""osname"":""macOS"",""osversion"":""10.13.6"",""a"":true}","9:21:45","1","4","Test_3","74","j","1","1165.800000011921","1680 x 945","1680 x 945","true","1","10","","","","",""
"null","<p style=""font-size: 80px;"">+ 10 points</p>","null","html-keyboard-response","134","1306257","0.0-11.0-2.133","60dc3e33a9d79c613fb778a6","kyp6qa","ZJ","45","F","{""name"":""Chrome"",""chrome"":true,""version"":""99.0"",""blink"":true,""mac"":true,""osname"":""macOS"",""osversion"":""10.13.6"",""a"":true}","9:21:45","1","4","Test_4","70","f","1","1210.699999988079","1680 x 945","1680 x 945","true","1","10","","","","",""
"null","<p style=""font-size: 80px;"">+ 10 points</p>","null","html-keyboard-response","135","1309113","0.0-11.0-2.134","60dc3e33a9d79c613fb778a6","kyp6qa","ZJ","45","F","{""name"":""Chrome"",""chrome"":true,""version"":""99.0"",""blink"":true,""mac"":true,""osname"":""macOS"",""osversion"":""10.13.6"",""a"":true}","9:21:45","1","4","Test_3","74","j","1","851.1999999880791","1680 x 945","1680 x 945","true","1","10","","","","",""
"null","<p style=""font-size: 80px;"">+ 10 points</p>","null","html-keyboard-response","136","1312546","0.0-11.0-2.135","60dc3e33a9d79c613fb778a6","kyp6qa","ZJ","45","F","{""name"":""Chrome"",""chrome"":true,""version"":""99.0"",""blink"":true,""mac"":true,""osname"":""macOS"",""osversion"":""10.13.6"",""a"":true}","9:21:45","1","4","Test_4","70","f","1","1426.5","1680 x 945","1680 x 945","true","1","10","","","","",""
"null","<p style=""font-size: 80px;"">+ 10 points</p>","null","html-keyboard-response","137","1317055","0.0-11.0-2.136","60dc3e33a9d79c613fb778a6","kyp6qa","ZJ","45","F","{""name"":""Chrome"",""chrome"":true,""version"":""99.0"",""blink"":true,""mac"":true,""osname"":""macOS"",""osversion"":""10.13.6"",""a"":true}","9:21:45","1","4","Test_4","70","f","1","2505.300000011921","1680 x 945","1680 x 945","true","1","10","","","","",""
"null","<p style=""font-size: 80px;"">+ 10 points</p>","null","html-keyboard-response","138","1319983","0.0-11.0-2.137","60dc3e33a9d79c613fb778a6","kyp6qa","ZJ","45","F","{""name"":""Chrome"",""chrome"":true,""version"":""99.0"",""blink"":true,""mac"":true,""osname"":""macOS"",""osversion"":""10.13.6"",""a"":true}","9:21:45","1","4","Test_1","74","j","1","920.3999999761581","1680 x 945","1680 x 945","true","1","10","","","","",""
"null","<p style=""font-size: 80px;"">+ 10 points</p>","null","html-keyboard-response","139","1323009","0.0-11.0-2.138","60dc3e33a9d79c613fb778a6","kyp6qa","ZJ","45","F","{""name"":""Chrome"",""chrome"":true,""version"":""99.0"",""blink"":true,""mac"":true,""osname"":""macOS"",""osversion"":""10.13.6"",""a"":true}","9:21:45","1","4","Test_2","70","f","1","1019.0999999642372","1680 x 945","1680 x 945","true","1","10","","","","",""
"null","<p style=""font-size: 80px;"">+ 10 points</p>","null","html-keyboard-response","140","1325856","0.0-11.0-2.139","60dc3e33a9d79c613fb778a6","kyp6qa","ZJ","45","F","{""name"":""Chrome"",""chrome"":true,""version"":""99.0"",""blink"":true,""mac"":true,""osname"":""macOS"",""osversion"":""10.13.6"",""a"":true}","9:21:45","1","4","Test_2","70","f","1","839.8999999761581","1680 x 945","1680 x 945","true","1","10","","","","",""
"null","<p style=""font-size: 80px;"">+ 10 points</p>","null","html-keyboard-response","141","1328714","0.0-11.0-2.140","60dc3e33a9d79c613fb778a6","kyp6qa","ZJ","45","F","{""name"":""Chrome"",""chrome"":true,""version"":""99.0"",""blink"":true,""mac"":true,""osname"":""macOS"",""osversion"":""10.13.6"",""a"":true}","9:21:45","1","4","Test_2","70","f","1","850.6999999880791","1680 x 945","1680 x 945","true","1","10","","","","",""
"null","<p style=""font-size: 80px;"">+ 10 points</p>","null","html-keyboard-response","142","1331616","0.0-11.0-2.141","60dc3e33a9d79c613fb778a6","kyp6qa","ZJ","45","F","{""name"":""Chrome"",""chrome"":true,""version"":""99.0"",""blink"":true,""mac"":true,""osname"":""macOS"",""osversion"":""10.13.6"",""a"":true}","9:21:45","1","4","Test_3","74","j","1","895.5","1680 x 945","1680 x 945","true","1","10","","","","",""
"null","<p style=""font-size: 80px;"">+ 10 points</p>","null","html-keyboard-response","143","1334699","0.0-11.0-2.142","60dc3e33a9d79c613fb778a6","kyp6qa","ZJ","45","F","{""name"":""Chrome"",""chrome"":true,""version"":""99.0"",""blink"":true,""mac"":true,""osname"":""macOS"",""osversion"":""10.13.6"",""a"":true}","9:21:45","1","4","Test_2","70","f","1","1076.2999999523163","1680 x 945","1680 x 945","true","1","10","","","","",""
"null","<p style=""font-size: 80px;"">+ 10 points</p>","null","html-keyboard-response","144","1337365","0.0-11.0-2.143","60dc3e33a9d79c613fb778a6","kyp6qa","ZJ","45","F","{""name"":""Chrome"",""chrome"":true,""version"":""99.0"",""blink"":true,""mac"":true,""osname"":""macOS"",""osversion"":""10.13.6"",""a"":true}","9:21:45","1","4","Test_4","70","f","1","660.4000000357628","1680 x 945","1680 x 945","true","1","10","","","","",""
"null","<p style=""font-size: 80px;"">+ 10 points</p>","null","html-keyboard-response","145","1343126","0.0-11.0-2.144","60dc3e33a9d79c613fb778a6","kyp6qa","ZJ","45","F","{""name"":""Chrome"",""chrome"":true,""version"":""99.0"",""blink"":true,""mac"":true,""osname"":""macOS"",""osversion"":""10.13.6"",""a"":true}","9:21:45","1","4","Test_1","74","j","1","3753.199999988079","1680 x 945","1680 x 945","true","1","10","","","","",""
"null","<p style=""font-size: 80px;"">+ 0 points</p>","null","html-keyboard-response","146","1346184","0.0-11.0-2.145","60dc3e33a9d79c613fb778a6","kyp6qa","ZJ","45","F","{""name"":""Chrome"",""chrome"":true,""version"":""99.0"",""blink"":true,""mac"":true,""osname"":""macOS"",""osversion"":""10.13.6"",""a"":true}","9:21:45","1","3","Test_4","70","j","0","1052.300000011921","1680 x 945","1680 x 945","true","1","0","","","","",""
"null","<p style=""font-size: 80px;"">+ 10 points</p>","null","html-keyboard-response","147","1349211","0.0-11.0-2.146","60dc3e33a9d79c613fb778a6","kyp6qa","ZJ","45","F","{""name"":""Chrome"",""chrome"":true,""version"":""99.0"",""blink"":true,""mac"":true,""osname"":""macOS"",""osversion"":""10.13.6"",""a"":true}","9:21:45","1","3","Test_1","70","f","1","1019.8999999761581","1680 x 945","1680 x 945","true","1","10","","","","",""
"null","<p style=""font-size: 80px;"">+ 10 points</p>","null","html-keyboard-response","148","1352282","0.0-11.0-2.147","60dc3e33a9d79c613fb778a6","kyp6qa","ZJ","45","F","{""name"":""Chrome"",""chrome"":true,""version"":""99.0"",""blink"":true,""mac"":true,""osname"":""macOS"",""osversion"":""10.13.6"",""a"":true}","9:21:45","1","3","Test_3","70","f","1","1065.9000000357628","1680 x 945","1680 x 945","true","1","10","","","","",""
