"rt","stimulus","key_press","trial_type","trial_index","time_elapsed","internal_node_id","Prolific_ID","random_ID","initials","age","gender","pc_info","start_time","Phase","Rule","Stimulus","Response","CorrResp","Accuracy","ResponseTime","screen_resolution","window_resolution","focus","relevant","Points","responses","question_order","rev_check","butterfly_check","passed_practice"
"null","<p style=""font-size: 80px;"">+ 0 points</p>","null","html-keyboard-response","1","73346","0.0-7.0-2.0","5c6e7cc242fe6b000190936a","tqw4od","AT","22","F","{""name"":""Safari"",""safari"":true,""version"":""15.6"",""webkit"":true,""mac"":true,""osname"":""macOS"",""osversion"":""10.15.7"",""a"":true}","9:14:13","0","1","Practice_4","70","j","0","1444.9999999999854","1680 x 1050","1680 x 1050","true","1","0","","","","",""
"null","<p style=""font-size: 80px;"">+ 10 points</p>","null","html-keyboard-response","2","76354","0.0-7.0-2.1","5c6e7cc242fe6b000190936a","tqw4od","AT","22","F","{""name"":""Safari"",""safari"":true,""version"":""15.6"",""webkit"":true,""mac"":true,""osname"":""macOS"",""osversion"":""10.15.7"",""a"":true}","9:14:13","0","1","Practice_4","74","j","1","1003","1680 x 1050","1680 x 1050","true","1","10","","","","",""
"null","<p style=""font-size: 80px;"">+ 10 points</p>","null","html-keyboard-response","3","80490","0.0-7.0-2.2","5c6e7cc242fe6b000190936a","tqw4od","AT","22","F","{""name"":""Safari"",""safari"":true,""version"":""15.6"",""webkit"":true,""mac"":true,""osname"":""macOS"",""osversion"":""10.15.7"",""a"":true}","9:14:13","0","1","Practice_2","74","j","1","2131","1680 x 1050","1680 x 1050","true","1","10","","","","",""
"null","<p style=""font-size: 80px;"">+ 10 points</p>","null","html-keyboard-response","4","84657","0.0-7.0-2.3","5c6e7cc242fe6b000190936a","tqw4od","AT","22","F","{""name"":""Safari"",""safari"":true,""version"":""15.6"",""webkit"":true,""mac"":true,""osname"":""macOS"",""osversion"":""10.15.7"",""a"":true}","9:14:13","0","1","Practice_3","70","f","1","2161.0000000000146","1680 x 1050","1680 x 1050","true","1","10","","","","",""
"null","<p style=""font-size: 80px;"">+ 10 points</p>","null","html-keyboard-response","5","88377","0.0-7.0-2.4","5c6e7cc242fe6b000190936a","tqw4od","AT","22","F","{""name"":""Safari"",""safari"":true,""version"":""15.6"",""webkit"":true,""mac"":true,""osname"":""macOS"",""osversion"":""10.15.7"",""a"":true}","9:14:13","0","1","Practice_1","70","f","1","1717","1680 x 1050","1680 x 1050","true","1","10","","","","",""
"null","<p style=""font-size: 80px;"">+ 10 points</p>","null","html-keyboard-response","6","91300","0.0-7.0-2.5","5c6e7cc242fe6b000190936a","tqw4od","AT","22","F","{""name"":""Safari"",""safari"":true,""version"":""15.6"",""webkit"":true,""mac"":true,""osname"":""macOS"",""osversion"":""10.15.7"",""a"":true}","9:14:13","0","1","Practice_3","70","f","1","917.9999999999854","1680 x 1050","1680 x 1050","true","1","10","","","","",""
"null","<p style=""font-size: 80px;"">+ 10 points</p>","null","html-keyboard-response","7","94281","0.0-7.0-2.6","5c6e7cc242fe6b000190936a","tqw4od","AT","22","F","{""name"":""Safari"",""safari"":true,""version"":""15.6"",""webkit"":true,""mac"":true,""osname"":""macOS"",""osversion"":""10.15.7"",""a"":true}","9:14:13","0","1","Practice_1","70","f","1","977","1680 x 1050","1680 x 1050","true","1","10","","","","",""
"null","<p style=""font-size: 80px;"">+ 10 points</p>","null","html-keyboard-response","8","97620","0.0-7.0-2.7","5c6e7cc242fe6b000190936a","tqw4od","AT","22","F","{""name"":""Safari"",""safari"":true,""version"":""15.6"",""webkit"":true,""mac"":true,""osname"":""macOS"",""osversion"":""10.15.7"",""a"":true}","9:14:13","0","1","Practice_4","74","j","1","1335","1680 x 1050","1680 x 1050","true","1","10","","","","",""
"null","<p style=""font-size: 80px;"">+ 10 points</p>","null","html-keyboard-response","9","100436","0.0-7.0-2.8","5c6e7cc242fe6b000190936a","tqw4od","AT","22","F","{""name"":""Safari"",""safari"":true,""version"":""15.6"",""webkit"":true,""mac"":true,""osname"":""macOS"",""osversion"":""10.15.7"",""a"":true}","9:14:13","0","1","Practice_2","74","j","1","812","1680 x 1050","1680 x 1050","true","1","10","","","","",""
"null","<p style=""font-size: 80px;"">+ 10 points</p>","null","html-keyboard-response","10","103544","0.0-7.0-2.9","5c6e7cc242fe6b000190936a","tqw4od","AT","22","F","{""name"":""Safari"",""safari"":true,""version"":""15.6"",""webkit"":true,""mac"":true,""osname"":""macOS"",""osversion"":""10.15.7"",""a"":true}","9:14:13","0","1","Practice_4","74","j","1","1104","1680 x 1050","1680 x 1050","true","1","10","","","","",""
"null","<p style=""font-size: 80px;"">+ 10 points</p>","null","html-keyboard-response","11","107388","0.0-7.0-2.10","5c6e7cc242fe6b000190936a","tqw4od","AT","22","F","{""name"":""Safari"",""safari"":true,""version"":""15.6"",""webkit"":true,""mac"":true,""osname"":""macOS"",""osversion"":""10.15.7"",""a"":true}","9:14:13","0","1","Practice_3","70","f","1","1839","1680 x 1050","1680 x 1050","true","1","10","","","","",""
"null","<p style=""font-size: 80px;"">+ 10 points</p>","null","html-keyboard-response","12","110280","0.0-7.0-2.11","5c6e7cc242fe6b000190936a","tqw4od","AT","22","F","{""name"":""Safari"",""safari"":true,""version"":""15.6"",""webkit"":true,""mac"":true,""osname"":""macOS"",""osversion"":""10.15.7"",""a"":true}","9:14:13","0","1","Practice_2","74","j","1","887","1680 x 1050","1680 x 1050","true","1","10","","","","",""
"null","<p style=""font-size: 80px;"">+ 10 points</p>","null","html-keyboard-response","13","113169","0.0-7.0-2.12","5c6e7cc242fe6b000190936a","tqw4od","AT","22","F","{""name"":""Safari"",""safari"":true,""version"":""15.6"",""webkit"":true,""mac"":true,""osname"":""macOS"",""osversion"":""10.15.7"",""a"":true}","9:14:13","0","1","Practice_1","70","f","1","884.9999999999854","1680 x 1050","1680 x 1050","true","1","10","","","","",""
"null","<p style=""font-size: 80px;"">+ 10 points</p>","null","html-keyboard-response","14","115717","0.0-7.0-2.13","5c6e7cc242fe6b000190936a","tqw4od","AT","22","F","{""name"":""Safari"",""safari"":true,""version"":""15.6"",""webkit"":true,""mac"":true,""osname"":""macOS"",""osversion"":""10.15.7"",""a"":true}","9:14:13","0","1","Practice_3","70","f","1","544","1680 x 1050","1680 x 1050","true","1","10","","","","",""
"null","<p style=""font-size: 80px;"">+ 10 points</p>","null","html-keyboard-response","15","118609","0.0-7.0-2.14","5c6e7cc242fe6b000190936a","tqw4od","AT","22","F","{""name"":""Safari"",""safari"":true,""version"":""15.6"",""webkit"":true,""mac"":true,""osname"":""macOS"",""osversion"":""10.15.7"",""a"":true}","9:14:13","0","1","Practice_1","70","f","1","887","1680 x 1050","1680 x 1050","true","1","10","","","","",""
"null","<p style=""font-size: 80px;"">+ 10 points</p>","null","html-keyboard-response","16","121791","0.0-7.0-2.15","5c6e7cc242fe6b000190936a","tqw4od","AT","22","F","{""name"":""Safari"",""safari"":true,""version"":""15.6"",""webkit"":true,""mac"":true,""osname"":""macOS"",""osversion"":""10.15.7"",""a"":true}","9:14:13","0","1","Practice_4","74","j","1","1174.0000000000146","1680 x 1050","1680 x 1050","true","1","10","","","","",""
"null","<p style=""font-size: 80px;"">+ 10 points</p>","null","html-keyboard-response","17","124549","0.0-7.0-2.16","5c6e7cc242fe6b000190936a","tqw4od","AT","22","F","{""name"":""Safari"",""safari"":true,""version"":""15.6"",""webkit"":true,""mac"":true,""osname"":""macOS"",""osversion"":""10.15.7"",""a"":true}","9:14:13","0","1","Practice_3","70","f","1","753","1680 x 1050","1680 x 1050","true","1","10","","","","",""
"null","<p style=""font-size: 80px;"">+ 10 points</p>","null","html-keyboard-response","18","127372","0.0-7.0-2.17","5c6e7cc242fe6b000190936a","tqw4od","AT","22","F","{""name"":""Safari"",""safari"":true,""version"":""15.6"",""webkit"":true,""mac"":true,""osname"":""macOS"",""osversion"":""10.15.7"",""a"":true}","9:14:13","0","1","Practice_1","70","f","1","818.0000000000146","1680 x 1050","1680 x 1050","true","1","10","","","","",""
"null","<p style=""font-size: 80px;"">+ 10 points</p>","null","html-keyboard-response","19","129860","0.0-7.0-2.18","5c6e7cc242fe6b000190936a","tqw4od","AT","22","F","{""name"":""Safari"",""safari"":true,""version"":""15.6"",""webkit"":true,""mac"":true,""osname"":""macOS"",""osversion"":""10.15.7"",""a"":true}","9:14:13","0","1","Practice_2","74","j","1","483.0000000000291","1680 x 1050","1680 x 1050","true","1","10","","","","",""
"null","<p style=""font-size: 80px;"">+ 10 points</p>","null","html-keyboard-response","20","132400","0.0-7.0-2.19","5c6e7cc242fe6b000190936a","tqw4od","AT","22","F","{""name"":""Safari"",""safari"":true,""version"":""15.6"",""webkit"":true,""mac"":true,""osname"":""macOS"",""osversion"":""10.15.7"",""a"":true}","9:14:13","0","1","Practice_2","74","j","1","537","1680 x 1050","1680 x 1050","true","1","10","","","","",""
"null","<p style=""font-size: 80px;"">+ 0 points</p>","null","html-keyboard-response","21","134883","0.0-7.0-2.20","5c6e7cc242fe6b000190936a","tqw4od","AT","22","F","{""name"":""Safari"",""safari"":true,""version"":""15.6"",""webkit"":true,""mac"":true,""osname"":""macOS"",""osversion"":""10.15.7"",""a"":true}","9:14:13","0","2","Practice_3","70","j","0","479","1680 x 1050","1680 x 1050","true","1","0","","","","",""
"null","<p style=""font-size: 80px;"">+ 10 points</p>","null","html-keyboard-response","22","138568","0.0-7.0-2.21","5c6e7cc242fe6b000190936a","tqw4od","AT","22","F","{""name"":""Safari"",""safari"":true,""version"":""15.6"",""webkit"":true,""mac"":true,""osname"":""macOS"",""osversion"":""10.15.7"",""a"":true}","9:14:13","0","2","Practice_2","70","f","1","1678","1680 x 1050","1680 x 1050","true","1","10","","","","",""
"null","<p style=""font-size: 80px;"">+ 10 points</p>","null","html-keyboard-response","23","141249","0.0-7.0-2.22","5c6e7cc242fe6b000190936a","tqw4od","AT","22","F","{""name"":""Safari"",""safari"":true,""version"":""15.6"",""webkit"":true,""mac"":true,""osname"":""macOS"",""osversion"":""10.15.7"",""a"":true}","9:14:13","0","2","Practice_3","74","j","1","674","1680 x 1050","1680 x 1050","true","1","10","","","","",""
"null","<p style=""font-size: 80px;"">+ 10 points</p>","null","html-keyboard-response","24","144369","0.0-7.0-2.23","5c6e7cc242fe6b000190936a","tqw4od","AT","22","F","{""name"":""Safari"",""safari"":true,""version"":""15.6"",""webkit"":true,""mac"":true,""osname"":""macOS"",""osversion"":""10.15.7"",""a"":true}","9:14:13","0","2","Practice_4","70","f","1","1115.999999999971","1680 x 1050","1680 x 1050","true","1","10","","","","",""
"null","<p style=""font-size: 80px;"">+ 10 points</p>","null","html-keyboard-response","25","147333","0.0-7.0-2.24","5c6e7cc242fe6b000190936a","tqw4od","AT","22","F","{""name"":""Safari"",""safari"":true,""version"":""15.6"",""webkit"":true,""mac"":true,""osname"":""macOS"",""osversion"":""10.15.7"",""a"":true}","9:14:13","0","2","Practice_1","74","j","1","958","1680 x 1050","1680 x 1050","true","1","10","","","","",""
"null","<p style=""font-size: 80px;"">+ 10 points</p>","null","html-keyboard-response","26","150650","0.0-7.0-2.25","5c6e7cc242fe6b000190936a","tqw4od","AT","22","F","{""name"":""Safari"",""safari"":true,""version"":""15.6"",""webkit"":true,""mac"":true,""osname"":""macOS"",""osversion"":""10.15.7"",""a"":true}","9:14:13","0","2","Practice_3","74","j","1","1313","1680 x 1050","1680 x 1050","true","1","10","","","","",""
"null","<p style=""font-size: 80px;"">+ 10 points</p>","null","html-keyboard-response","27","153894","0.0-7.0-2.26","5c6e7cc242fe6b000190936a","tqw4od","AT","22","F","{""name"":""Safari"",""safari"":true,""version"":""15.6"",""webkit"":true,""mac"":true,""osname"":""macOS"",""osversion"":""10.15.7"",""a"":true}","9:14:13","0","2","Practice_2","70","f","1","1240","1680 x 1050","1680 x 1050","true","1","10","","","","",""
"null","<p style=""font-size: 80px;"">+ 10 points</p>","null","html-keyboard-response","28","157639","0.0-7.0-2.27","5c6e7cc242fe6b000190936a","tqw4od","AT","22","F","{""name"":""Safari"",""safari"":true,""version"":""15.6"",""webkit"":true,""mac"":true,""osname"":""macOS"",""osversion"":""10.15.7"",""a"":true}","9:14:13","0","2","Practice_2","70","f","1","1741.000000000029","1680 x 1050","1680 x 1050","true","1","10","","","","",""
"null","<p style=""font-size: 80px;"">+ 10 points</p>","null","html-keyboard-response","29","160733","0.0-7.0-2.28","5c6e7cc242fe6b000190936a","tqw4od","AT","22","F","{""name"":""Safari"",""safari"":true,""version"":""15.6"",""webkit"":true,""mac"":true,""osname"":""macOS"",""osversion"":""10.15.7"",""a"":true}","9:14:13","0","2","Practice_4","70","f","1","1090","1680 x 1050","1680 x 1050","true","1","10","","","","",""
"null","<p style=""font-size: 80px;"">+ 10 points</p>","null","html-keyboard-response","30","163781","0.0-7.0-2.29","5c6e7cc242fe6b000190936a","tqw4od","AT","22","F","{""name"":""Safari"",""safari"":true,""version"":""15.6"",""webkit"":true,""mac"":true,""osname"":""macOS"",""osversion"":""10.15.7"",""a"":true}","9:14:13","0","2","Practice_1","74","j","1","1044","1680 x 1050","1680 x 1050","true","1","10","","","","",""
"null","<p style=""font-size: 80px;"">+ 10 points</p>","null","html-keyboard-response","31","166945","0.0-7.0-2.30","5c6e7cc242fe6b000190936a","tqw4od","AT","22","F","{""name"":""Safari"",""safari"":true,""version"":""15.6"",""webkit"":true,""mac"":true,""osname"":""macOS"",""osversion"":""10.15.7"",""a"":true}","9:14:13","0","2","Practice_4","70","f","1","1161","1680 x 1050","1680 x 1050","true","1","10","","","","",""
"null","<p style=""font-size: 80px;"">+ 10 points</p>","null","html-keyboard-response","32","169953","0.0-7.0-2.31","5c6e7cc242fe6b000190936a","tqw4od","AT","22","F","{""name"":""Safari"",""safari"":true,""version"":""15.6"",""webkit"":true,""mac"":true,""osname"":""macOS"",""osversion"":""10.15.7"",""a"":true}","9:14:13","0","2","Practice_1","74","j","1","1004","1680 x 1050","1680 x 1050","true","1","10","","","","",""
"null","<p style=""font-size: 80px;"">+ 10 points</p>","null","html-keyboard-response","33","172929","0.0-7.0-2.32","5c6e7cc242fe6b000190936a","tqw4od","AT","22","F","{""name"":""Safari"",""safari"":true,""version"":""15.6"",""webkit"":true,""mac"":true,""osname"":""macOS"",""osversion"":""10.15.7"",""a"":true}","9:14:13","0","2","Practice_4","70","f","1","972","1680 x 1050","1680 x 1050","true","1","10","","","","",""
"null","<p style=""font-size: 80px;"">+ 10 points</p>","null","html-keyboard-response","34","176202","0.0-7.0-2.33","5c6e7cc242fe6b000190936a","tqw4od","AT","22","F","{""name"":""Safari"",""safari"":true,""version"":""15.6"",""webkit"":true,""mac"":true,""osname"":""macOS"",""osversion"":""10.15.7"",""a"":true}","9:14:13","0","2","Practice_3","74","j","1","1264","1680 x 1050","1680 x 1050","true","1","10","","","","",""
"null","<p style=""font-size: 80px;"">+ 10 points</p>","null","html-keyboard-response","35","179286","0.0-7.0-2.34","5c6e7cc242fe6b000190936a","tqw4od","AT","22","F","{""name"":""Safari"",""safari"":true,""version"":""15.6"",""webkit"":true,""mac"":true,""osname"":""macOS"",""osversion"":""10.15.7"",""a"":true}","9:14:13","0","2","Practice_1","74","j","1","1079","1680 x 1050","1680 x 1050","true","1","10","","","","",""
"null","<p style=""font-size: 80px;"">+ 10 points</p>","null","html-keyboard-response","36","182913","0.0-7.0-2.35","5c6e7cc242fe6b000190936a","tqw4od","AT","22","F","{""name"":""Safari"",""safari"":true,""version"":""15.6"",""webkit"":true,""mac"":true,""osname"":""macOS"",""osversion"":""10.15.7"",""a"":true}","9:14:13","0","2","Practice_4","70","f","1","1622","1680 x 1050","1680 x 1050","true","1","10","","","","",""
"null","<p style=""font-size: 80px;"">+ 10 points</p>","null","html-keyboard-response","37","186535","0.0-7.0-2.36","5c6e7cc242fe6b000190936a","tqw4od","AT","22","F","{""name"":""Safari"",""safari"":true,""version"":""15.6"",""webkit"":true,""mac"":true,""osname"":""macOS"",""osversion"":""10.15.7"",""a"":true}","9:14:13","0","2","Practice_2","70","f","1","1617","1680 x 1050","1680 x 1050","true","1","10","","","","",""
"null","<p style=""font-size: 80px;"">+ 10 points</p>","null","html-keyboard-response","38","189810","0.0-7.0-2.37","5c6e7cc242fe6b000190936a","tqw4od","AT","22","F","{""name"":""Safari"",""safari"":true,""version"":""15.6"",""webkit"":true,""mac"":true,""osname"":""macOS"",""osversion"":""10.15.7"",""a"":true}","9:14:13","0","2","Practice_1","74","j","1","1270","1680 x 1050","1680 x 1050","true","1","10","","","","",""
"null","<p style=""font-size: 80px;"">+ 10 points</p>","null","html-keyboard-response","39","193764","0.0-7.0-2.38","5c6e7cc242fe6b000190936a","tqw4od","AT","22","F","{""name"":""Safari"",""safari"":true,""version"":""15.6"",""webkit"":true,""mac"":true,""osname"":""macOS"",""osversion"":""10.15.7"",""a"":true}","9:14:13","0","2","Practice_2","70","f","1","1949.000000000029","1680 x 1050","1680 x 1050","true","1","10","","","","",""
"null","<p style=""font-size: 80px;"">+ 0 points</p>","null","html-keyboard-response","40","197262","0.0-7.0-2.39","5c6e7cc242fe6b000190936a","tqw4od","AT","22","F","{""name"":""Safari"",""safari"":true,""version"":""15.6"",""webkit"":true,""mac"":true,""osname"":""macOS"",""osversion"":""10.15.7"",""a"":true}","9:14:13","0","2","Practice_3","70","j","0","1494","1680 x 1050","1680 x 1050","true","1","0","","","","",""
"10787","","","survey-multi-choice","127","208050","0.0-8.0","5c6e7cc242fe6b000190936a","tqw4od","AT","22","F","{""name"":""Safari"",""safari"":true,""version"":""15.6"",""webkit"":true,""mac"":true,""osname"":""macOS"",""osversion"":""10.15.7"",""a"":true}","9:14:13","","","","","","","","","","","1","","{""Q0"":""The red one"",""Q1"":""1""}","[0,1]","1","The red one","2"
"null","<p style=""font-size: 80px;"">+ 0 points</p>","null","html-keyboard-response","1","218732","0.0-11.0-2.0","5c6e7cc242fe6b000190936a","tqw4od","AT","22","F","{""name"":""Safari"",""safari"":true,""version"":""15.6"",""webkit"":true,""mac"":true,""osname"":""macOS"",""osversion"":""10.15.7"",""a"":true}","9:14:13","1","4","Test_1","70","j","0","1424","1680 x 1050","1680 x 1050","true","1","0","","","","",""
"null","<p style=""font-size: 80px;"">+ 10 points</p>","null","html-keyboard-response","2","222180","0.0-11.0-2.1","5c6e7cc242fe6b000190936a","tqw4od","AT","22","F","{""name"":""Safari"",""safari"":true,""version"":""15.6"",""webkit"":true,""mac"":true,""osname"":""macOS"",""osversion"":""10.15.7"",""a"":true}","9:14:13","1","4","Test_2","70","f","1","1439","1680 x 1050","1680 x 1050","true","1","10","","","","",""
"null","<p style=""font-size: 80px;"">+ 10 points</p>","null","html-keyboard-response","3","225333","0.0-11.0-2.2","5c6e7cc242fe6b000190936a","tqw4od","AT","22","F","{""name"":""Safari"",""safari"":true,""version"":""15.6"",""webkit"":true,""mac"":true,""osname"":""macOS"",""osversion"":""10.15.7"",""a"":true}","9:14:13","1","4","Test_3","74","j","1","1149","1680 x 1050","1680 x 1050","true","1","10","","","","",""
"null","<p style=""font-size: 80px;"">+ 10 points</p>","null","html-keyboard-response","4","228409","0.0-11.0-2.3","5c6e7cc242fe6b000190936a","tqw4od","AT","22","F","{""name"":""Safari"",""safari"":true,""version"":""15.6"",""webkit"":true,""mac"":true,""osname"":""macOS"",""osversion"":""10.15.7"",""a"":true}","9:14:13","1","4","Test_1","74","j","1","1071","1680 x 1050","1680 x 1050","true","1","10","","","","",""
"null","<p style=""font-size: 80px;"">+ 10 points</p>","null","html-keyboard-response","5","231094","0.0-11.0-2.4","5c6e7cc242fe6b000190936a","tqw4od","AT","22","F","{""name"":""Safari"",""safari"":true,""version"":""15.6"",""webkit"":true,""mac"":true,""osname"":""macOS"",""osversion"":""10.15.7"",""a"":true}","9:14:13","1","4","Test_3","74","j","1","679","1680 x 1050","1680 x 1050","true","1","10","","","","",""
"null","<p style=""font-size: 80px;"">+ 10 points</p>","null","html-keyboard-response","6","234020","0.0-11.0-2.5","5c6e7cc242fe6b000190936a","tqw4od","AT","22","F","{""name"":""Safari"",""safari"":true,""version"":""15.6"",""webkit"":true,""mac"":true,""osname"":""macOS"",""osversion"":""10.15.7"",""a"":true}","9:14:13","1","4","Test_4","70","f","1","921","1680 x 1050","1680 x 1050","true","1","10","","","","",""
"null","<p style=""font-size: 80px;"">+ 10 points</p>","null","html-keyboard-response","7","236828","0.0-11.0-2.6","5c6e7cc242fe6b000190936a","tqw4od","AT","22","F","{""name"":""Safari"",""safari"":true,""version"":""15.6"",""webkit"":true,""mac"":true,""osname"":""macOS"",""osversion"":""10.15.7"",""a"":true}","9:14:13","1","4","Test_2","70","f","1","803","1680 x 1050","1680 x 1050","true","1","10","","","","",""
"null","<p style=""font-size: 80px;"">+ 10 points</p>","null","html-keyboard-response","8","239796","0.0-11.0-2.7","5c6e7cc242fe6b000190936a","tqw4od","AT","22","F","{""name"":""Safari"",""safari"":true,""version"":""15.6"",""webkit"":true,""mac"":true,""osname"":""macOS"",""osversion"":""10.15.7"",""a"":true}","9:14:13","1","4","Test_4","70","f","1","963","1680 x 1050","1680 x 1050","true","1","10","","","","",""
"null","<p style=""font-size: 80px;"">+ 10 points</p>","null","html-keyboard-response","9","242605","0.0-11.0-2.8","5c6e7cc242fe6b000190936a","tqw4od","AT","22","F","{""name"":""Safari"",""safari"":true,""version"":""15.6"",""webkit"":true,""mac"":true,""osname"":""macOS"",""osversion"":""10.15.7"",""a"":true}","9:14:13","1","4","Test_1","74","j","1","804.9999999999709","1680 x 1050","1680 x 1050","true","1","10","","","","",""
"null","<p style=""font-size: 80px;"">+ 10 points</p>","null","html-keyboard-response","10","245375","0.0-11.0-2.9","5c6e7cc242fe6b000190936a","tqw4od","AT","22","F","{""name"":""Safari"",""safari"":true,""version"":""15.6"",""webkit"":true,""mac"":true,""osname"":""macOS"",""osversion"":""10.15.7"",""a"":true}","9:14:13","1","4","Test_4","70","f","1","765.9999999999709","1680 x 1050","1680 x 1050","true","1","10","","","","",""
"null","<p style=""font-size: 80px;"">+ 10 points</p>","null","html-keyboard-response","11","247949","0.0-11.0-2.10","5c6e7cc242fe6b000190936a","tqw4od","AT","22","F","{""name"":""Safari"",""safari"":true,""version"":""15.6"",""webkit"":true,""mac"":true,""osname"":""macOS"",""osversion"":""10.15.7"",""a"":true}","9:14:13","1","4","Test_4","70","f","1","571","1680 x 1050","1680 x 1050","true","1","10","","","","",""
"null","<p style=""font-size: 80px;"">+ 10 points</p>","null","html-keyboard-response","12","251039","0.0-11.0-2.11","5c6e7cc242fe6b000190936a","tqw4od","AT","22","F","{""name"":""Safari"",""safari"":true,""version"":""15.6"",""webkit"":true,""mac"":true,""osname"":""macOS"",""osversion"":""10.15.7"",""a"":true}","9:14:13","1","4","Test_2","70","f","1","1086","1680 x 1050","1680 x 1050","true","1","10","","","","",""
"null","<p style=""font-size: 80px;"">+ 10 points</p>","null","html-keyboard-response","13","253888","0.0-11.0-2.12","5c6e7cc242fe6b000190936a","tqw4od","AT","22","F","{""name"":""Safari"",""safari"":true,""version"":""15.6"",""webkit"":true,""mac"":true,""osname"":""macOS"",""osversion"":""10.15.7"",""a"":true}","9:14:13","1","4","Test_4","70","f","1","843","1680 x 1050","1680 x 1050","true","1","10","","","","",""
"null","<p style=""font-size: 80px;"">+ 10 points</p>","null","html-keyboard-response","14","257192","0.0-11.0-2.13","5c6e7cc242fe6b000190936a","tqw4od","AT","22","F","{""name"":""Safari"",""safari"":true,""version"":""15.6"",""webkit"":true,""mac"":true,""osname"":""macOS"",""osversion"":""10.15.7"",""a"":true}","9:14:13","1","4","Test_1","74","j","1","1299","1680 x 1050","1680 x 1050","true","1","10","","","","",""
"null","<p style=""font-size: 80px;"">+ 10 points</p>","null","html-keyboard-response","15","259925","0.0-11.0-2.14","5c6e7cc242fe6b000190936a","tqw4od","AT","22","F","{""name"":""Safari"",""safari"":true,""version"":""15.6"",""webkit"":true,""mac"":true,""osname"":""macOS"",""osversion"":""10.15.7"",""a"":true}","9:14:13","1","4","Test_2","70","f","1","729","1680 x 1050","1680 x 1050","true","1","10","","","","",""
"null","<p style=""font-size: 80px;"">+ 10 points</p>","null","html-keyboard-response","16","263596","0.0-11.0-2.15","5c6e7cc242fe6b000190936a","tqw4od","AT","22","F","{""name"":""Safari"",""safari"":true,""version"":""15.6"",""webkit"":true,""mac"":true,""osname"":""macOS"",""osversion"":""10.15.7"",""a"":true}","9:14:13","1","4","Test_1","74","j","1","1667","1680 x 1050","1680 x 1050","true","1","10","","","","",""
"null","<p style=""font-size: 80px;"">+ 10 points</p>","null","html-keyboard-response","17","266725","0.0-11.0-2.16","5c6e7cc242fe6b000190936a","tqw4od","AT","22","F","{""name"":""Safari"",""safari"":true,""version"":""15.6"",""webkit"":true,""mac"":true,""osname"":""macOS"",""osversion"":""10.15.7"",""a"":true}","9:14:13","1","4","Test_3","74","j","1","1124","1680 x 1050","1680 x 1050","true","1","10","","","","",""
"null","<p style=""font-size: 80px;"">+ 0 points</p>","null","html-keyboard-response","18","269587","0.0-11.0-2.17","5c6e7cc242fe6b000190936a","tqw4od","AT","22","F","{""name"":""Safari"",""safari"":true,""version"":""15.6"",""webkit"":true,""mac"":true,""osname"":""macOS"",""osversion"":""10.15.7"",""a"":true}","9:14:13","1","3","Test_4","70","j","0","858","1680 x 1050","1680 x 1050","true","1","0","","","","",""
"null","<p style=""font-size: 80px;"">+ 10 points</p>","null","html-keyboard-response","19","272744","0.0-11.0-2.18","5c6e7cc242fe6b000190936a","tqw4od","AT","22","F","{""name"":""Safari"",""safari"":true,""version"":""15.6"",""webkit"":true,""mac"":true,""osname"":""macOS"",""osversion"":""10.15.7"",""a"":true}","9:14:13","1","3","Test_2","74","j","1","1154","1680 x 1050","1680 x 1050","true","1","10","","","","",""
"null","<p style=""font-size: 80px;"">+ 10 points</p>","null","html-keyboard-response","20","276849","0.0-11.0-2.19","5c6e7cc242fe6b000190936a","tqw4od","AT","22","F","{""name"":""Safari"",""safari"":true,""version"":""15.6"",""webkit"":true,""mac"":true,""osname"":""macOS"",""osversion"":""10.15.7"",""a"":true}","9:14:13","1","3","Test_3","70","f","1","2101","1680 x 1050","1680 x 1050","true","1","10","","","","",""
"null","<p style=""font-size: 80px;"">+ 10 points</p>","null","html-keyboard-response","21","279670","0.0-11.0-2.20","5c6e7cc242fe6b000190936a","tqw4od","AT","22","F","{""name"":""Safari"",""safari"":true,""version"":""15.6"",""webkit"":true,""mac"":true,""osname"":""macOS"",""osversion"":""10.15.7"",""a"":true}","9:14:13","1","3","Test_2","74","j","1","816","1680 x 1050","1680 x 1050","true","1","10","","","","",""
"null","<p style=""font-size: 80px;"">+ 10 points</p>","null","html-keyboard-response","22","283133","0.0-11.0-2.21","5c6e7cc242fe6b000190936a","tqw4od","AT","22","F","{""name"":""Safari"",""safari"":true,""version"":""15.6"",""webkit"":true,""mac"":true,""osname"":""macOS"",""osversion"":""10.15.7"",""a"":true}","9:14:13","1","3","Test_4","74","j","1","1458","1680 x 1050","1680 x 1050","true","1","10","","","","",""
"null","<p style=""font-size: 80px;"">+ 0 points</p>","null","html-keyboard-response","23","287459","0.0-11.0-2.22","5c6e7cc242fe6b000190936a","tqw4od","AT","22","F","{""name"":""Safari"",""safari"":true,""version"":""15.6"",""webkit"":true,""mac"":true,""osname"":""macOS"",""osversion"":""10.15.7"",""a"":true}","9:14:13","1","3","Test_3","74","f","0","2322","1680 x 1050","1680 x 1050","true","1","0","","","","",""
"null","<p style=""font-size: 80px;"">+ 10 points</p>","null","html-keyboard-response","24","291399","0.0-11.0-2.23","5c6e7cc242fe6b000190936a","tqw4od","AT","22","F","{""name"":""Safari"",""safari"":true,""version"":""15.6"",""webkit"":true,""mac"":true,""osname"":""macOS"",""osversion"":""10.15.7"",""a"":true}","9:14:13","1","3","Test_1","70","f","1","1934","1680 x 1050","1680 x 1050","true","1","10","","","","",""
"null","<p style=""font-size: 80px;"">+ 10 points</p>","null","html-keyboard-response","25","294896","0.0-11.0-2.24","5c6e7cc242fe6b000190936a","tqw4od","AT","22","F","{""name"":""Safari"",""safari"":true,""version"":""15.6"",""webkit"":true,""mac"":true,""osname"":""macOS"",""osversion"":""10.15.7"",""a"":true}","9:14:13","1","3","Test_3","70","f","1","1493","1680 x 1050","1680 x 1050","true","1","10","","","","",""
"null","<p style=""font-size: 80px;"">+ 10 points</p>","null","html-keyboard-response","26","298644","0.0-11.0-2.25","5c6e7cc242fe6b000190936a","tqw4od","AT","22","F","{""name"":""Safari"",""safari"":true,""version"":""15.6"",""webkit"":true,""mac"":true,""osname"":""macOS"",""osversion"":""10.15.7"",""a"":true}","9:14:13","1","3","Test_4","74","j","1","1744","1680 x 1050","1680 x 1050","true","1","10","","","","",""
"null","<p style=""font-size: 80px;"">+ 10 points</p>","null","html-keyboard-response","27","301560","0.0-11.0-2.26","5c6e7cc242fe6b000190936a","tqw4od","AT","22","F","{""name"":""Safari"",""safari"":true,""version"":""15.6"",""webkit"":true,""mac"":true,""osname"":""macOS"",""osversion"":""10.15.7"",""a"":true}","9:14:13","1","3","Test_1","70","f","1","911","1680 x 1050","1680 x 1050","true","1","10","","","","",""
"null","<p style=""font-size: 80px;"">+ 10 points</p>","null","html-keyboard-response","28","304382","0.0-11.0-2.27","5c6e7cc242fe6b000190936a","tqw4od","AT","22","F","{""name"":""Safari"",""safari"":true,""version"":""15.6"",""webkit"":true,""mac"":true,""osname"":""macOS"",""osversion"":""10.15.7"",""a"":true}","9:14:13","1","3","Test_2","74","j","1","818","1680 x 1050","1680 x 1050","true","1","10","","","","",""
"null","<p style=""font-size: 80px;"">+ 10 points</p>","null","html-keyboard-response","29","307565","0.0-11.0-2.28","5c6e7cc242fe6b000190936a","tqw4od","AT","22","F","{""name"":""Safari"",""safari"":true,""version"":""15.6"",""webkit"":true,""mac"":true,""osname"":""macOS"",""osversion"":""10.15.7"",""a"":true}","9:14:13","1","3","Test_4","74","j","1","1180","1680 x 1050","1680 x 1050","true","1","10","","","","",""
"null","<p style=""font-size: 80px;"">+ 10 points</p>","null","html-keyboard-response","30","310383","0.0-11.0-2.29","5c6e7cc242fe6b000190936a","tqw4od","AT","22","F","{""name"":""Safari"",""safari"":true,""version"":""15.6"",""webkit"":true,""mac"":true,""osname"":""macOS"",""osversion"":""10.15.7"",""a"":true}","9:14:13","1","3","Test_2","74","j","1","812","1680 x 1050","1680 x 1050","true","1","10","","","","",""
"null","<p style=""font-size: 80px;"">+ 10 points</p>","null","html-keyboard-response","31","313112","0.0-11.0-2.30","5c6e7cc242fe6b000190936a","tqw4od","AT","22","F","{""name"":""Safari"",""safari"":true,""version"":""15.6"",""webkit"":true,""mac"":true,""osname"":""macOS"",""osversion"":""10.15.7"",""a"":true}","9:14:13","1","3","Test_2","74","j","1","723","1680 x 1050","1680 x 1050","true","1","10","","","","",""
"null","<p style=""font-size: 80px;"">+ 10 points</p>","null","html-keyboard-response","32","315942","0.0-11.0-2.31","5c6e7cc242fe6b000190936a","tqw4od","AT","22","F","{""name"":""Safari"",""safari"":true,""version"":""15.6"",""webkit"":true,""mac"":true,""osname"":""macOS"",""osversion"":""10.15.7"",""a"":true}","9:14:13","1","3","Test_3","70","f","1","825","1680 x 1050","1680 x 1050","true","1","10","","","","",""
"null","<p style=""font-size: 80px;"">+ 10 points</p>","null","html-keyboard-response","33","318583","0.0-11.0-2.32","5c6e7cc242fe6b000190936a","tqw4od","AT","22","F","{""name"":""Safari"",""safari"":true,""version"":""15.6"",""webkit"":true,""mac"":true,""osname"":""macOS"",""osversion"":""10.15.7"",""a"":true}","9:14:13","1","3","Test_3","70","f","1","636","1680 x 1050","1680 x 1050","true","1","10","","","","",""
"null","<p style=""font-size: 80px;"">+ 0 points</p>","null","html-keyboard-response","34","322292","0.0-11.0-2.33","5c6e7cc242fe6b000190936a","tqw4od","AT","22","F","{""name"":""Safari"",""safari"":true,""version"":""15.6"",""webkit"":true,""mac"":true,""osname"":""macOS"",""osversion"":""10.15.7"",""a"":true}","9:14:13","1","3","Test_1","74","f","0","1705","1680 x 1050","1680 x 1050","true","1","0","","","","",""
"null","<p style=""font-size: 80px;"">+ 10 points</p>","null","html-keyboard-response","35","325165","0.0-11.0-2.34","5c6e7cc242fe6b000190936a","tqw4od","AT","22","F","{""name"":""Safari"",""safari"":true,""version"":""15.6"",""webkit"":true,""mac"":true,""osname"":""macOS"",""osversion"":""10.15.7"",""a"":true}","9:14:13","1","3","Test_1","70","f","1","869","1680 x 1050","1680 x 1050","true","1","10","","","","",""
"null","<p style=""font-size: 80px;"">+ 10 points</p>","null","html-keyboard-response","36","329157","0.0-11.0-2.35","5c6e7cc242fe6b000190936a","tqw4od","AT","22","F","{""name"":""Safari"",""safari"":true,""version"":""15.6"",""webkit"":true,""mac"":true,""osname"":""macOS"",""osversion"":""10.15.7"",""a"":true}","9:14:13","1","3","Test_4","74","j","1","1985","1680 x 1050","1680 x 1050","true","1","10","","","","",""
"null","<p style=""font-size: 80px;"">+ 10 points</p>","null","html-keyboard-response","37","332081","0.0-11.0-2.36","5c6e7cc242fe6b000190936a","tqw4od","AT","22","F","{""name"":""Safari"",""safari"":true,""version"":""15.6"",""webkit"":true,""mac"":true,""osname"":""macOS"",""osversion"":""10.15.7"",""a"":true}","9:14:13","1","3","Test_1","70","f","1","919","1680 x 1050","1680 x 1050","true","1","10","","","","",""
"null","<p style=""font-size: 80px;"">+ 10 points</p>","null","html-keyboard-response","38","334850","0.0-11.0-2.37","5c6e7cc242fe6b000190936a","tqw4od","AT","22","F","{""name"":""Safari"",""safari"":true,""version"":""15.6"",""webkit"":true,""mac"":true,""osname"":""macOS"",""osversion"":""10.15.7"",""a"":true}","9:14:13","1","3","Test_3","70","f","1","764","1680 x 1050","1680 x 1050","true","1","10","","","","",""
"null","<p style=""font-size: 80px;"">+ 0 points</p>","null","html-keyboard-response","39","337581","0.0-11.0-2.38","5c6e7cc242fe6b000190936a","tqw4od","AT","22","F","{""name"":""Safari"",""safari"":true,""version"":""15.6"",""webkit"":true,""mac"":true,""osname"":""macOS"",""osversion"":""10.15.7"",""a"":true}","9:14:13","1","4","Test_3","70","j","0","726","1680 x 1050","1680 x 1050","true","1","0","","","","",""
"null","<p style=""font-size: 80px;"">+ 10 points</p>","null","html-keyboard-response","40","340145","0.0-11.0-2.39","5c6e7cc242fe6b000190936a","tqw4od","AT","22","F","{""name"":""Safari"",""safari"":true,""version"":""15.6"",""webkit"":true,""mac"":true,""osname"":""macOS"",""osversion"":""10.15.7"",""a"":true}","9:14:13","1","4","Test_3","74","j","1","559","1680 x 1050","1680 x 1050","true","1","10","","","","",""
"null","<p style=""font-size: 80px;"">+ 10 points</p>","null","html-keyboard-response","41","343121","0.0-11.0-2.40","5c6e7cc242fe6b000190936a","tqw4od","AT","22","F","{""name"":""Safari"",""safari"":true,""version"":""15.6"",""webkit"":true,""mac"":true,""osname"":""macOS"",""osversion"":""10.15.7"",""a"":true}","9:14:13","1","4","Test_1","74","j","1","971","1680 x 1050","1680 x 1050","true","1","10","","","","",""
"null","<p style=""font-size: 80px;"">+ 10 points</p>","null","html-keyboard-response","42","346051","0.0-11.0-2.41","5c6e7cc242fe6b000190936a","tqw4od","AT","22","F","{""name"":""Safari"",""safari"":true,""version"":""15.6"",""webkit"":true,""mac"":true,""osname"":""macOS"",""osversion"":""10.15.7"",""a"":true}","9:14:13","1","4","Test_1","74","j","1","921.9999999999418","1680 x 1050","1680 x 1050","true","1","10","","","","",""
"null","<p style=""font-size: 80px;"">+ 10 points</p>","null","html-keyboard-response","43","348902","0.0-11.0-2.42","5c6e7cc242fe6b000190936a","tqw4od","AT","22","F","{""name"":""Safari"",""safari"":true,""version"":""15.6"",""webkit"":true,""mac"":true,""osname"":""macOS"",""osversion"":""10.15.7"",""a"":true}","9:14:13","1","4","Test_4","70","f","1","848","1680 x 1050","1680 x 1050","true","1","10","","","","",""
"null","<p style=""font-size: 80px;"">+ 10 points</p>","null","html-keyboard-response","44","351894","0.0-11.0-2.43","5c6e7cc242fe6b000190936a","tqw4od","AT","22","F","{""name"":""Safari"",""safari"":true,""version"":""15.6"",""webkit"":true,""mac"":true,""osname"":""macOS"",""osversion"":""10.15.7"",""a"":true}","9:14:13","1","4","Test_4","70","f","1","988","1680 x 1050","1680 x 1050","true","1","10","","","","",""
"null","<p style=""font-size: 80px;"">+ 10 points</p>","null","html-keyboard-response","45","354858","0.0-11.0-2.44","5c6e7cc242fe6b000190936a","tqw4od","AT","22","F","{""name"":""Safari"",""safari"":true,""version"":""15.6"",""webkit"":true,""mac"":true,""osname"":""macOS"",""osversion"":""10.15.7"",""a"":true}","9:14:13","1","4","Test_3","74","j","1","960","1680 x 1050","1680 x 1050","true","1","10","","","","",""
"null","<p style=""font-size: 80px;"">+ 10 points</p>","null","html-keyboard-response","46","357645","0.0-11.0-2.45","5c6e7cc242fe6b000190936a","tqw4od","AT","22","F","{""name"":""Safari"",""safari"":true,""version"":""15.6"",""webkit"":true,""mac"":true,""osname"":""macOS"",""osversion"":""10.15.7"",""a"":true}","9:14:13","1","4","Test_3","74","j","1","781.9999999999418","1680 x 1050","1680 x 1050","true","1","10","","","","",""
"null","<p style=""font-size: 80px;"">+ 10 points</p>","null","html-keyboard-response","47","360860","0.0-11.0-2.46","5c6e7cc242fe6b000190936a","tqw4od","AT","22","F","{""name"":""Safari"",""safari"":true,""version"":""15.6"",""webkit"":true,""mac"":true,""osname"":""macOS"",""osversion"":""10.15.7"",""a"":true}","9:14:13","1","4","Test_4","70","f","1","1211","1680 x 1050","1680 x 1050","true","1","10","","","","",""
"null","<p style=""font-size: 80px;"">+ 10 points</p>","null","html-keyboard-response","48","363567","0.0-11.0-2.47","5c6e7cc242fe6b000190936a","tqw4od","AT","22","F","{""name"":""Safari"",""safari"":true,""version"":""15.6"",""webkit"":true,""mac"":true,""osname"":""macOS"",""osversion"":""10.15.7"",""a"":true}","9:14:13","1","4","Test_1","74","j","1","701","1680 x 1050","1680 x 1050","true","1","10","","","","",""
"null","<p style=""font-size: 80px;"">+ 10 points</p>","null","html-keyboard-response","49","366573","0.0-11.0-2.48","5c6e7cc242fe6b000190936a","tqw4od","AT","22","F","{""name"":""Safari"",""safari"":true,""version"":""15.6"",""webkit"":true,""mac"":true,""osname"":""macOS"",""osversion"":""10.15.7"",""a"":true}","9:14:13","1","4","Test_2","70","f","1","999","1680 x 1050","1680 x 1050","true","1","10","","","","",""
"null","<p style=""font-size: 80px;"">+ 10 points</p>","null","html-keyboard-response","50","369208","0.0-11.0-2.49","5c6e7cc242fe6b000190936a","tqw4od","AT","22","F","{""name"":""Safari"",""safari"":true,""version"":""15.6"",""webkit"":true,""mac"":true,""osname"":""macOS"",""osversion"":""10.15.7"",""a"":true}","9:14:13","1","4","Test_2","70","f","1","631","1680 x 1050","1680 x 1050","true","1","10","","","","",""
"null","<p style=""font-size: 80px;"">+ 10 points</p>","null","html-keyboard-response","51","371923","0.0-11.0-2.50","5c6e7cc242fe6b000190936a","tqw4od","AT","22","F","{""name"":""Safari"",""safari"":true,""version"":""15.6"",""webkit"":true,""mac"":true,""osname"":""macOS"",""osversion"":""10.15.7"",""a"":true}","9:14:13","1","4","Test_1","74","j","1","712","1680 x 1050","1680 x 1050","true","1","10","","","","",""
"null","<p style=""font-size: 80px;"">+ 0 points</p>","null","html-keyboard-response","52","374866","0.0-11.0-2.51","5c6e7cc242fe6b000190936a","tqw4od","AT","22","F","{""name"":""Safari"",""safari"":true,""version"":""15.6"",""webkit"":true,""mac"":true,""osname"":""macOS"",""osversion"":""10.15.7"",""a"":true}","9:14:13","1","4","Test_4","74","f","0","937.9999999999418","1680 x 1050","1680 x 1050","true","1","0","","","","",""
"null","<p style=""font-size: 80px;"">+ 10 points</p>","null","html-keyboard-response","53","378134","0.0-11.0-2.52","5c6e7cc242fe6b000190936a","tqw4od","AT","22","F","{""name"":""Safari"",""safari"":true,""version"":""15.6"",""webkit"":true,""mac"":true,""osname"":""macOS"",""osversion"":""10.15.7"",""a"":true}","9:14:13","1","4","Test_1","74","j","1","1264","1680 x 1050","1680 x 1050","true","1","10","","","","",""
"null","<p style=""font-size: 80px;"">+ 10 points</p>","null","html-keyboard-response","54","380955","0.0-11.0-2.53","5c6e7cc242fe6b000190936a","tqw4od","AT","22","F","{""name"":""Safari"",""safari"":true,""version"":""15.6"",""webkit"":true,""mac"":true,""osname"":""macOS"",""osversion"":""10.15.7"",""a"":true}","9:14:13","1","4","Test_4","70","f","1","817","1680 x 1050","1680 x 1050","true","1","10","","","","",""
"null","<p style=""font-size: 80px;"">+ 10 points</p>","null","html-keyboard-response","55","383791","0.0-11.0-2.54","5c6e7cc242fe6b000190936a","tqw4od","AT","22","F","{""name"":""Safari"",""safari"":true,""version"":""15.6"",""webkit"":true,""mac"":true,""osname"":""macOS"",""osversion"":""10.15.7"",""a"":true}","9:14:13","1","4","Test_2","70","f","1","826","1680 x 1050","1680 x 1050","true","1","10","","","","",""
"null","<p style=""font-size: 80px;"">+ 0 points</p>","null","html-keyboard-response","56","387250","0.0-11.0-2.55","5c6e7cc242fe6b000190936a","tqw4od","AT","22","F","{""name"":""Safari"",""safari"":true,""version"":""15.6"",""webkit"":true,""mac"":true,""osname"":""macOS"",""osversion"":""10.15.7"",""a"":true}","9:14:13","1","3","Test_4","70","j","0","1456","1680 x 1050","1680 x 1050","true","1","0","","","","",""
"null","<p style=""font-size: 80px;"">+ 0 points</p>","null","html-keyboard-response","57","390338","0.0-11.0-2.56","5c6e7cc242fe6b000190936a","tqw4od","AT","22","F","{""name"":""Safari"",""safari"":true,""version"":""15.6"",""webkit"":true,""mac"":true,""osname"":""macOS"",""osversion"":""10.15.7"",""a"":true}","9:14:13","1","3","Test_3","74","f","0","1084","1680 x 1050","1680 x 1050","true","1","0","","","","",""
"null","<p style=""font-size: 80px;"">+ 10 points</p>","null","html-keyboard-response","58","394361","0.0-11.0-2.57","5c6e7cc242fe6b000190936a","tqw4od","AT","22","F","{""name"":""Safari"",""safari"":true,""version"":""15.6"",""webkit"":true,""mac"":true,""osname"":""macOS"",""osversion"":""10.15.7"",""a"":true}","9:14:13","1","3","Test_2","74","j","1","2020","1680 x 1050","1680 x 1050","true","1","10","","","","",""
"null","<p style=""font-size: 80px;"">+ 10 points</p>","null","html-keyboard-response","59","397783","0.0-11.0-2.58","5c6e7cc242fe6b000190936a","tqw4od","AT","22","F","{""name"":""Safari"",""safari"":true,""version"":""15.6"",""webkit"":true,""mac"":true,""osname"":""macOS"",""osversion"":""10.15.7"",""a"":true}","9:14:13","1","3","Test_3","70","f","1","1414.9999999999418","1680 x 1050","1680 x 1050","true","1","10","","","","",""
"null","<p style=""font-size: 80px;"">+ 10 points</p>","null","html-keyboard-response","60","400505","0.0-11.0-2.59","5c6e7cc242fe6b000190936a","tqw4od","AT","22","F","{""name"":""Safari"",""safari"":true,""version"":""15.6"",""webkit"":true,""mac"":true,""osname"":""macOS"",""osversion"":""10.15.7"",""a"":true}","9:14:13","1","3","Test_3","70","f","1","718","1680 x 1050","1680 x 1050","true","1","10","","","","",""
"null","<p style=""font-size: 80px;"">+ 10 points</p>","null","html-keyboard-response","61","403885","0.0-11.0-2.60","5c6e7cc242fe6b000190936a","tqw4od","AT","22","F","{""name"":""Safari"",""safari"":true,""version"":""15.6"",""webkit"":true,""mac"":true,""osname"":""macOS"",""osversion"":""10.15.7"",""a"":true}","9:14:13","1","3","Test_2","74","j","1","1376","1680 x 1050","1680 x 1050","true","1","10","","","","",""
"null","<p style=""font-size: 80px;"">+ 10 points</p>","null","html-keyboard-response","62","407047","0.0-11.0-2.61","5c6e7cc242fe6b000190936a","tqw4od","AT","22","F","{""name"":""Safari"",""safari"":true,""version"":""15.6"",""webkit"":true,""mac"":true,""osname"":""macOS"",""osversion"":""10.15.7"",""a"":true}","9:14:13","1","3","Test_2","74","j","1","1159","1680 x 1050","1680 x 1050","true","1","10","","","","",""
"null","<p style=""font-size: 80px;"">+ 10 points</p>","null","html-keyboard-response","63","410672","0.0-11.0-2.62","5c6e7cc242fe6b000190936a","tqw4od","AT","22","F","{""name"":""Safari"",""safari"":true,""version"":""15.6"",""webkit"":true,""mac"":true,""osname"":""macOS"",""osversion"":""10.15.7"",""a"":true}","9:14:13","1","3","Test_4","74","j","1","1619.9999999999418","1680 x 1050","1680 x 1050","true","1","10","","","","",""
"null","<p style=""font-size: 80px;"">+ 10 points</p>","null","html-keyboard-response","64","413450","0.0-11.0-2.63","5c6e7cc242fe6b000190936a","tqw4od","AT","22","F","{""name"":""Safari"",""safari"":true,""version"":""15.6"",""webkit"":true,""mac"":true,""osname"":""macOS"",""osversion"":""10.15.7"",""a"":true}","9:14:13","1","3","Test_1","70","f","1","772.9999999999418","1680 x 1050","1680 x 1050","true","1","10","","","","",""
"null","<p style=""font-size: 80px;"">+ 10 points</p>","null","html-keyboard-response","65","416364","0.0-11.0-2.64","5c6e7cc242fe6b000190936a","tqw4od","AT","22","F","{""name"":""Safari"",""safari"":true,""version"":""15.6"",""webkit"":true,""mac"":true,""osname"":""macOS"",""osversion"":""10.15.7"",""a"":true}","9:14:13","1","3","Test_2","74","j","1","906","1680 x 1050","1680 x 1050","true","1","10","","","","",""
"null","<p style=""font-size: 80px;"">+ 10 points</p>","null","html-keyboard-response","66","419672","0.0-11.0-2.65","5c6e7cc242fe6b000190936a","tqw4od","AT","22","F","{""name"":""Safari"",""safari"":true,""version"":""15.6"",""webkit"":true,""mac"":true,""osname"":""macOS"",""osversion"":""10.15.7"",""a"":true}","9:14:13","1","3","Test_1","70","f","1","1304","1680 x 1050","1680 x 1050","true","1","10","","","","",""
"null","<p style=""font-size: 80px;"">+ 10 points</p>","null","html-keyboard-response","67","422444","0.0-11.0-2.66","5c6e7cc242fe6b000190936a","tqw4od","AT","22","F","{""name"":""Safari"",""safari"":true,""version"":""15.6"",""webkit"":true,""mac"":true,""osname"":""macOS"",""osversion"":""10.15.7"",""a"":true}","9:14:13","1","3","Test_4","74","j","1","767.9999999999418","1680 x 1050","1680 x 1050","true","1","10","","","","",""
"null","<p style=""font-size: 80px;"">+ 10 points</p>","null","html-keyboard-response","68","424954","0.0-11.0-2.67","5c6e7cc242fe6b000190936a","tqw4od","AT","22","F","{""name"":""Safari"",""safari"":true,""version"":""15.6"",""webkit"":true,""mac"":true,""osname"":""macOS"",""osversion"":""10.15.7"",""a"":true}","9:14:13","1","3","Test_4","74","j","1","506","1680 x 1050","1680 x 1050","true","1","10","","","","",""
"null","<p style=""font-size: 80px;"">+ 10 points</p>","null","html-keyboard-response","69","427725","0.0-11.0-2.68","5c6e7cc242fe6b000190936a","tqw4od","AT","22","F","{""name"":""Safari"",""safari"":true,""version"":""15.6"",""webkit"":true,""mac"":true,""osname"":""macOS"",""osversion"":""10.15.7"",""a"":true}","9:14:13","1","3","Test_3","70","f","1","767.0000000000582","1680 x 1050","1680 x 1050","true","1","10","","","","",""
"null","<p style=""font-size: 80px;"">+ 10 points</p>","null","html-keyboard-response","70","430719","0.0-11.0-2.69","5c6e7cc242fe6b000190936a","tqw4od","AT","22","F","{""name"":""Safari"",""safari"":true,""version"":""15.6"",""webkit"":true,""mac"":true,""osname"":""macOS"",""osversion"":""10.15.7"",""a"":true}","9:14:13","1","3","Test_2","74","j","1","989.9999999999418","1680 x 1050","1680 x 1050","true","1","10","","","","",""
"null","<p style=""font-size: 80px;"">+ 10 points</p>","null","html-keyboard-response","71","433663","0.0-11.0-2.70","5c6e7cc242fe6b000190936a","tqw4od","AT","22","F","{""name"":""Safari"",""safari"":true,""version"":""15.6"",""webkit"":true,""mac"":true,""osname"":""macOS"",""osversion"":""10.15.7"",""a"":true}","9:14:13","1","3","Test_1","70","f","1","938","1680 x 1050","1680 x 1050","true","1","10","","","","",""
"null","<p style=""font-size: 80px;"">+ 10 points</p>","null","html-keyboard-response","72","437816","0.0-11.0-2.71","5c6e7cc242fe6b000190936a","tqw4od","AT","22","F","{""name"":""Safari"",""safari"":true,""version"":""15.6"",""webkit"":true,""mac"":true,""osname"":""macOS"",""osversion"":""10.15.7"",""a"":true}","9:14:13","1","3","Test_4","74","j","1","2146","1680 x 1050","1680 x 1050","true","1","10","","","","",""
"null","<p style=""font-size: 80px;"">+ 10 points</p>","null","html-keyboard-response","73","440690","0.0-11.0-2.72","5c6e7cc242fe6b000190936a","tqw4od","AT","22","F","{""name"":""Safari"",""safari"":true,""version"":""15.6"",""webkit"":true,""mac"":true,""osname"":""macOS"",""osversion"":""10.15.7"",""a"":true}","9:14:13","1","3","Test_3","70","f","1","870","1680 x 1050","1680 x 1050","true","1","10","","","","",""
"null","<p style=""font-size: 80px;"">+ 0 points</p>","null","html-keyboard-response","74","444006","0.0-11.0-2.73","5c6e7cc242fe6b000190936a","tqw4od","AT","22","F","{""name"":""Safari"",""safari"":true,""version"":""15.6"",""webkit"":true,""mac"":true,""osname"":""macOS"",""osversion"":""10.15.7"",""a"":true}","9:14:13","1","3","Test_1","74","f","0","1312","1680 x 1050","1680 x 1050","true","1","0","","","","",""
"null","<p style=""font-size: 80px;"">+ 10 points</p>","null","html-keyboard-response","75","446895","0.0-11.0-2.74","5c6e7cc242fe6b000190936a","tqw4od","AT","22","F","{""name"":""Safari"",""safari"":true,""version"":""15.6"",""webkit"":true,""mac"":true,""osname"":""macOS"",""osversion"":""10.15.7"",""a"":true}","9:14:13","1","3","Test_3","70","f","1","885","1680 x 1050","1680 x 1050","true","1","10","","","","",""
"null","<p style=""font-size: 80px;"">+ 10 points</p>","null","html-keyboard-response","76","449672","0.0-11.0-2.75","5c6e7cc242fe6b000190936a","tqw4od","AT","22","F","{""name"":""Safari"",""safari"":true,""version"":""15.6"",""webkit"":true,""mac"":true,""osname"":""macOS"",""osversion"":""10.15.7"",""a"":true}","9:14:13","1","3","Test_4","74","j","1","772.0000000000582","1680 x 1050","1680 x 1050","true","1","10","","","","",""
"null","<p style=""font-size: 80px;"">+ 10 points</p>","null","html-keyboard-response","77","452735","0.0-11.0-2.76","5c6e7cc242fe6b000190936a","tqw4od","AT","22","F","{""name"":""Safari"",""safari"":true,""version"":""15.6"",""webkit"":true,""mac"":true,""osname"":""macOS"",""osversion"":""10.15.7"",""a"":true}","9:14:13","1","3","Test_1","70","f","1","1057.9999999999418","1680 x 1050","1680 x 1050","true","1","10","","","","",""
"null","<p style=""font-size: 80px;"">+ 10 points</p>","null","html-keyboard-response","78","455600","0.0-11.0-2.77","5c6e7cc242fe6b000190936a","tqw4od","AT","22","F","{""name"":""Safari"",""safari"":true,""version"":""15.6"",""webkit"":true,""mac"":true,""osname"":""macOS"",""osversion"":""10.15.7"",""a"":true}","9:14:13","1","3","Test_1","70","f","1","861.0000000000582","1680 x 1050","1680 x 1050","true","1","10","","","","",""
"null","<p style=""font-size: 80px;"">+ 10 points</p>","null","html-keyboard-response","79","458442","0.0-11.0-2.78","5c6e7cc242fe6b000190936a","tqw4od","AT","22","F","{""name"":""Safari"",""safari"":true,""version"":""15.6"",""webkit"":true,""mac"":true,""osname"":""macOS"",""osversion"":""10.15.7"",""a"":true}","9:14:13","1","3","Test_2","74","j","1","836.9999999999418","1680 x 1050","1680 x 1050","true","1","10","","","","",""
"null","<p style=""font-size: 80px;"">+ 10 points</p>","null","html-keyboard-response","80","461024","0.0-11.0-2.79","5c6e7cc242fe6b000190936a","tqw4od","AT","22","F","{""name"":""Safari"",""safari"":true,""version"":""15.6"",""webkit"":true,""mac"":true,""osname"":""macOS"",""osversion"":""10.15.7"",""a"":true}","9:14:13","1","4","Test_2","70","f","1","578","1680 x 1050","1680 x 1050","true","1","10","","","","",""
"null","<p style=""font-size: 80px;"">+ 10 points</p>","null","html-keyboard-response","81","465500","0.0-11.0-2.80","5c6e7cc242fe6b000190936a","tqw4od","AT","22","F","{""name"":""Safari"",""safari"":true,""version"":""15.6"",""webkit"":true,""mac"":true,""osname"":""macOS"",""osversion"":""10.15.7"",""a"":true}","9:14:13","1","4","Test_4","70","f","1","2469.999999999942","1680 x 1050","1680 x 1050","true","1","10","","","","",""
"null","<p style=""font-size: 80px;"">+ 10 points</p>","null","html-keyboard-response","82","469240","0.0-11.0-2.81","5c6e7cc242fe6b000190936a","tqw4od","AT","22","F","{""name"":""Safari"",""safari"":true,""version"":""15.6"",""webkit"":true,""mac"":true,""osname"":""macOS"",""osversion"":""10.15.7"",""a"":true}","9:14:13","1","4","Test_2","70","f","1","1735","1680 x 1050","1680 x 1050","true","1","10","","","","",""
"null","<p style=""font-size: 80px;"">+ 10 points</p>","null","html-keyboard-response","83","472146","0.0-11.0-2.82","5c6e7cc242fe6b000190936a","tqw4od","AT","22","F","{""name"":""Safari"",""safari"":true,""version"":""15.6"",""webkit"":true,""mac"":true,""osname"":""macOS"",""osversion"":""10.15.7"",""a"":true}","9:14:13","1","4","Test_1","74","j","1","901","1680 x 1050","1680 x 1050","true","1","10","","","","",""
"null","<p style=""font-size: 80px;"">+ 10 points</p>","null","html-keyboard-response","84","474732","0.0-11.0-2.83","5c6e7cc242fe6b000190936a","tqw4od","AT","22","F","{""name"":""Safari"",""safari"":true,""version"":""15.6"",""webkit"":true,""mac"":true,""osname"":""macOS"",""osversion"":""10.15.7"",""a"":true}","9:14:13","1","4","Test_2","70","f","1","582","1680 x 1050","1680 x 1050","true","1","10","","","","",""
"null","<p style=""font-size: 80px;"">+ 10 points</p>","null","html-keyboard-response","85","477472","0.0-11.0-2.84","5c6e7cc242fe6b000190936a","tqw4od","AT","22","F","{""name"":""Safari"",""safari"":true,""version"":""15.6"",""webkit"":true,""mac"":true,""osname"":""macOS"",""osversion"":""10.15.7"",""a"":true}","9:14:13","1","4","Test_1","74","j","1","734.9999999999418","1680 x 1050","1680 x 1050","true","1","10","","","","",""
"null","<p style=""font-size: 80px;"">+ 10 points</p>","null","html-keyboard-response","86","481336","0.0-11.0-2.85","5c6e7cc242fe6b000190936a","tqw4od","AT","22","F","{""name"":""Safari"",""safari"":true,""version"":""15.6"",""webkit"":true,""mac"":true,""osname"":""macOS"",""osversion"":""10.15.7"",""a"":true}","9:14:13","1","4","Test_3","74","j","1","1857","1680 x 1050","1680 x 1050","true","1","10","","","","",""
"null","<p style=""font-size: 80px;"">+ 10 points</p>","null","html-keyboard-response","87","484174","0.0-11.0-2.86","5c6e7cc242fe6b000190936a","tqw4od","AT","22","F","{""name"":""Safari"",""safari"":true,""version"":""15.6"",""webkit"":true,""mac"":true,""osname"":""macOS"",""osversion"":""10.15.7"",""a"":true}","9:14:13","1","4","Test_3","74","j","1","835","1680 x 1050","1680 x 1050","true","1","10","","","","",""
"null","<p style=""font-size: 80px;"">+ 10 points</p>","null","html-keyboard-response","88","486949","0.0-11.0-2.87","5c6e7cc242fe6b000190936a","tqw4od","AT","22","F","{""name"":""Safari"",""safari"":true,""version"":""15.6"",""webkit"":true,""mac"":true,""osname"":""macOS"",""osversion"":""10.15.7"",""a"":true}","9:14:13","1","4","Test_4","70","f","1","771","1680 x 1050","1680 x 1050","true","1","10","","","","",""
"null","<p style=""font-size: 80px;"">+ 10 points</p>","null","html-keyboard-response","89","489922","0.0-11.0-2.88","5c6e7cc242fe6b000190936a","tqw4od","AT","22","F","{""name"":""Safari"",""safari"":true,""version"":""15.6"",""webkit"":true,""mac"":true,""osname"":""macOS"",""osversion"":""10.15.7"",""a"":true}","9:14:13","1","4","Test_1","74","j","1","969.0000000000582","1680 x 1050","1680 x 1050","true","1","10","","","","",""
"null","<p style=""font-size: 80px;"">+ 0 points</p>","null","html-keyboard-response","90","492952","0.0-11.0-2.89","5c6e7cc242fe6b000190936a","tqw4od","AT","22","F","{""name"":""Safari"",""safari"":true,""version"":""15.6"",""webkit"":true,""mac"":true,""osname"":""macOS"",""osversion"":""10.15.7"",""a"":true}","9:14:13","1","4","Test_3","70","j","0","1027","1680 x 1050","1680 x 1050","true","1","0","","","","",""
"null","<p style=""font-size: 80px;"">+ 10 points</p>","null","html-keyboard-response","91","496821","0.0-11.0-2.90","5c6e7cc242fe6b000190936a","tqw4od","AT","22","F","{""name"":""Safari"",""safari"":true,""version"":""15.6"",""webkit"":true,""mac"":true,""osname"":""macOS"",""osversion"":""10.15.7"",""a"":true}","9:14:13","1","4","Test_4","70","f","1","1861","1680 x 1050","1680 x 1050","true","1","10","","","","",""
"null","<p style=""font-size: 80px;"">+ 10 points</p>","null","html-keyboard-response","92","501669","0.0-11.0-2.91","5c6e7cc242fe6b000190936a","tqw4od","AT","22","F","{""name"":""Safari"",""safari"":true,""version"":""15.6"",""webkit"":true,""mac"":true,""osname"":""macOS"",""osversion"":""10.15.7"",""a"":true}","9:14:13","1","4","Test_1","74","j","1","2843.999999999942","1680 x 1050","1680 x 1050","true","1","10","","","","",""
"null","<p style=""font-size: 80px;"">+ 10 points</p>","null","html-keyboard-response","93","504239","0.0-11.0-2.92","5c6e7cc242fe6b000190936a","tqw4od","AT","22","F","{""name"":""Safari"",""safari"":true,""version"":""15.6"",""webkit"":true,""mac"":true,""osname"":""macOS"",""osversion"":""10.15.7"",""a"":true}","9:14:13","1","4","Test_3","74","j","1","565","1680 x 1050","1680 x 1050","true","1","10","","","","",""
"null","<p style=""font-size: 80px;"">+ 10 points</p>","null","html-keyboard-response","94","507254","0.0-11.0-2.93","5c6e7cc242fe6b000190936a","tqw4od","AT","22","F","{""name"":""Safari"",""safari"":true,""version"":""15.6"",""webkit"":true,""mac"":true,""osname"":""macOS"",""osversion"":""10.15.7"",""a"":true}","9:14:13","1","4","Test_4","70","f","1","1010.0000000000582","1680 x 1050","1680 x 1050","true","1","10","","","","",""
"null","<p style=""font-size: 80px;"">+ 10 points</p>","null","html-keyboard-response","95","510049","0.0-11.0-2.94","5c6e7cc242fe6b000190936a","tqw4od","AT","22","F","{""name"":""Safari"",""safari"":true,""version"":""15.6"",""webkit"":true,""mac"":true,""osname"":""macOS"",""osversion"":""10.15.7"",""a"":true}","9:14:13","1","4","Test_3","74","j","1","790.0000000000582","1680 x 1050","1680 x 1050","true","1","10","","","","",""
"null","<p style=""font-size: 80px;"">+ 0 points</p>","null","html-keyboard-response","96","512764","0.0-11.0-2.95","5c6e7cc242fe6b000190936a","tqw4od","AT","22","F","{""name"":""Safari"",""safari"":true,""version"":""15.6"",""webkit"":true,""mac"":true,""osname"":""macOS"",""osversion"":""10.15.7"",""a"":true}","9:14:13","1","4","Test_2","74","f","0","707.9999999999418","1680 x 1050","1680 x 1050","true","1","0","","","","",""
"null","<p style=""font-size: 80px;"">+ 10 points</p>","null","html-keyboard-response","97","515579","0.0-11.0-2.96","5c6e7cc242fe6b000190936a","tqw4od","AT","22","F","{""name"":""Safari"",""safari"":true,""version"":""15.6"",""webkit"":true,""mac"":true,""osname"":""macOS"",""osversion"":""10.15.7"",""a"":true}","9:14:13","1","4","Test_2","70","f","1","808","1680 x 1050","1680 x 1050","true","1","10","","","","",""
"null","<p style=""font-size: 80px;"">+ 0 points</p>","null","html-keyboard-response","98","518276","0.0-11.0-2.97","5c6e7cc242fe6b000190936a","tqw4od","AT","22","F","{""name"":""Safari"",""safari"":true,""version"":""15.6"",""webkit"":true,""mac"":true,""osname"":""macOS"",""osversion"":""10.15.7"",""a"":true}","9:14:13","1","3","Test_3","74","f","0","693","1680 x 1050","1680 x 1050","true","1","0","","","","",""
"null","<p style=""font-size: 80px;"">+ 10 points</p>","null","html-keyboard-response","99","522304","0.0-11.0-2.98","5c6e7cc242fe6b000190936a","tqw4od","AT","22","F","{""name"":""Safari"",""safari"":true,""version"":""15.6"",""webkit"":true,""mac"":true,""osname"":""macOS"",""osversion"":""10.15.7"",""a"":true}","9:14:13","1","3","Test_1","70","f","1","2023","1680 x 1050","1680 x 1050","true","1","10","","","","",""
"null","<p style=""font-size: 80px;"">+ 10 points</p>","null","html-keyboard-response","100","525336","0.0-11.0-2.99","5c6e7cc242fe6b000190936a","tqw4od","AT","22","F","{""name"":""Safari"",""safari"":true,""version"":""15.6"",""webkit"":true,""mac"":true,""osname"":""macOS"",""osversion"":""10.15.7"",""a"":true}","9:14:13","1","3","Test_1","70","f","1","1027","1680 x 1050","1680 x 1050","true","1","10","","","","",""
"null","<p style=""font-size: 80px;"">+ 10 points</p>","null","html-keyboard-response","101","528055","0.0-11.0-2.100","5c6e7cc242fe6b000190936a","tqw4od","AT","22","F","{""name"":""Safari"",""safari"":true,""version"":""15.6"",""webkit"":true,""mac"":true,""osname"":""macOS"",""osversion"":""10.15.7"",""a"":true}","9:14:13","1","3","Test_1","70","f","1","715","1680 x 1050","1680 x 1050","true","1","10","","","","",""
"null","<p style=""font-size: 80px;"">+ 10 points</p>","null","html-keyboard-response","102","531102","0.0-11.0-2.101","5c6e7cc242fe6b000190936a","tqw4od","AT","22","F","{""name"":""Safari"",""safari"":true,""version"":""15.6"",""webkit"":true,""mac"":true,""osname"":""macOS"",""osversion"":""10.15.7"",""a"":true}","9:14:13","1","3","Test_4","74","j","1","1044","1680 x 1050","1680 x 1050","true","1","10","","","","",""
"null","<p style=""font-size: 80px;"">+ 10 points</p>","null","html-keyboard-response","103","534002","0.0-11.0-2.102","5c6e7cc242fe6b000190936a","tqw4od","AT","22","F","{""name"":""Safari"",""safari"":true,""version"":""15.6"",""webkit"":true,""mac"":true,""osname"":""macOS"",""osversion"":""10.15.7"",""a"":true}","9:14:13","1","3","Test_3","70","f","1","895","1680 x 1050","1680 x 1050","true","1","10","","","","",""
"null","<p style=""font-size: 80px;"">+ 10 points</p>","null","html-keyboard-response","104","537462","0.0-11.0-2.103","5c6e7cc242fe6b000190936a","tqw4od","AT","22","F","{""name"":""Safari"",""safari"":true,""version"":""15.6"",""webkit"":true,""mac"":true,""osname"":""macOS"",""osversion"":""10.15.7"",""a"":true}","9:14:13","1","3","Test_1","70","f","1","1456","1680 x 1050","1680 x 1050","true","1","10","","","","",""
"null","<p style=""font-size: 80px;"">+ 10 points</p>","null","html-keyboard-response","105","541305","0.0-11.0-2.104","5c6e7cc242fe6b000190936a","tqw4od","AT","22","F","{""name"":""Safari"",""safari"":true,""version"":""15.6"",""webkit"":true,""mac"":true,""osname"":""macOS"",""osversion"":""10.15.7"",""a"":true}","9:14:13","1","3","Test_4","74","j","1","1838","1680 x 1050","1680 x 1050","true","1","10","","","","",""
"null","<p style=""font-size: 80px;"">+ 10 points</p>","null","html-keyboard-response","106","544237","0.0-11.0-2.105","5c6e7cc242fe6b000190936a","tqw4od","AT","22","F","{""name"":""Safari"",""safari"":true,""version"":""15.6"",""webkit"":true,""mac"":true,""osname"":""macOS"",""osversion"":""10.15.7"",""a"":true}","9:14:13","1","3","Test_3","70","f","1","926","1680 x 1050","1680 x 1050","true","1","10","","","","",""
"null","<p style=""font-size: 80px;"">+ 10 points</p>","null","html-keyboard-response","107","548205","0.0-11.0-2.106","5c6e7cc242fe6b000190936a","tqw4od","AT","22","F","{""name"":""Safari"",""safari"":true,""version"":""15.6"",""webkit"":true,""mac"":true,""osname"":""macOS"",""osversion"":""10.15.7"",""a"":true}","9:14:13","1","3","Test_1","70","f","1","1963","1680 x 1050","1680 x 1050","true","1","10","","","","",""
"null","<p style=""font-size: 80px;"">+ 0 points</p>","null","html-keyboard-response","108","552536","0.0-11.0-2.107","5c6e7cc242fe6b000190936a","tqw4od","AT","22","F","{""name"":""Safari"",""safari"":true,""version"":""15.6"",""webkit"":true,""mac"":true,""osname"":""macOS"",""osversion"":""10.15.7"",""a"":true}","9:14:13","1","3","Test_3","74","f","0","2327","1680 x 1050","1680 x 1050","true","1","0","","","","",""
"null","<p style=""font-size: 80px;"">+ 0 points</p>","null","html-keyboard-response","109","555948","0.0-11.0-2.108","5c6e7cc242fe6b000190936a","tqw4od","AT","22","F","{""name"":""Safari"",""safari"":true,""version"":""15.6"",""webkit"":true,""mac"":true,""osname"":""macOS"",""osversion"":""10.15.7"",""a"":true}","9:14:13","1","3","Test_3","74","f","0","1406","1680 x 1050","1680 x 1050","true","1","0","","","","",""
"null","<p style=""font-size: 80px;"">+ 0 points</p>","null","html-keyboard-response","110","581521","0.0-11.0-2.109","5c6e7cc242fe6b000190936a","tqw4od","AT","22","F","{""name"":""Safari"",""safari"":true,""version"":""15.6"",""webkit"":true,""mac"":true,""osname"":""macOS"",""osversion"":""10.15.7"",""a"":true}","9:14:13","1","3","Test_2","70","j","0","762.9999999998836","1680 x 1050","1680 x 1050","true","1","0","","","","",""
"null","<p style=""font-size: 80px;"">+ 10 points</p>","null","html-keyboard-response","111","584091","0.0-11.0-2.110","5c6e7cc242fe6b000190936a","tqw4od","AT","22","F","{""name"":""Safari"",""safari"":true,""version"":""15.6"",""webkit"":true,""mac"":true,""osname"":""macOS"",""osversion"":""10.15.7"",""a"":true}","9:14:13","1","3","Test_3","70","f","1","564","1680 x 1050","1680 x 1050","true","1","10","","","","",""
"null","<p style=""font-size: 80px;"">+ 10 points</p>","null","html-keyboard-response","112","586564","0.0-11.0-2.111","5c6e7cc242fe6b000190936a","tqw4od","AT","22","F","{""name"":""Safari"",""safari"":true,""version"":""15.6"",""webkit"":true,""mac"":true,""osname"":""macOS"",""osversion"":""10.15.7"",""a"":true}","9:14:13","1","3","Test_4","74","j","1","469","1680 x 1050","1680 x 1050","true","1","10","","","","",""
"null","<p style=""font-size: 80px;"">+ 10 points</p>","null","html-keyboard-response","113","590538","0.0-11.0-2.112","5c6e7cc242fe6b000190936a","tqw4od","AT","22","F","{""name"":""Safari"",""safari"":true,""version"":""15.6"",""webkit"":true,""mac"":true,""osname"":""macOS"",""osversion"":""10.15.7"",""a"":true}","9:14:13","1","3","Test_2","74","j","1","1966","1680 x 1050","1680 x 1050","true","1","10","","","","",""
"null","<p style=""font-size: 80px;"">+ 10 points</p>","null","html-keyboard-response","114","593346","0.0-11.0-2.113","5c6e7cc242fe6b000190936a","tqw4od","AT","22","F","{""name"":""Safari"",""safari"":true,""version"":""15.6"",""webkit"":true,""mac"":true,""osname"":""macOS"",""osversion"":""10.15.7"",""a"":true}","9:14:13","1","3","Test_1","70","f","1","803","1680 x 1050","1680 x 1050","true","1","10","","","","",""
"null","<p style=""font-size: 80px;"">+ 10 points</p>","null","html-keyboard-response","115","595912","0.0-11.0-2.114","5c6e7cc242fe6b000190936a","tqw4od","AT","22","F","{""name"":""Safari"",""safari"":true,""version"":""15.6"",""webkit"":true,""mac"":true,""osname"":""macOS"",""osversion"":""10.15.7"",""a"":true}","9:14:13","1","3","Test_2","74","j","1","561.9999999998836","1680 x 1050","1680 x 1050","true","1","10","","","","",""
"null","<p style=""font-size: 80px;"">+ 10 points</p>","null","html-keyboard-response","116","598635","0.0-11.0-2.115","5c6e7cc242fe6b000190936a","tqw4od","AT","22","F","{""name"":""Safari"",""safari"":true,""version"":""15.6"",""webkit"":true,""mac"":true,""osname"":""macOS"",""osversion"":""10.15.7"",""a"":true}","9:14:13","1","3","Test_2","74","j","1","718.0000000001164","1680 x 1050","1680 x 1050","true","1","10","","","","",""
"null","<p style=""font-size: 80px;"">+ 10 points</p>","null","html-keyboard-response","117","601276","0.0-11.0-2.116","5c6e7cc242fe6b000190936a","tqw4od","AT","22","F","{""name"":""Safari"",""safari"":true,""version"":""15.6"",""webkit"":true,""mac"":true,""osname"":""macOS"",""osversion"":""10.15.7"",""a"":true}","9:14:13","1","3","Test_2","74","j","1","635","1680 x 1050","1680 x 1050","true","1","10","","","","",""
"null","<p style=""font-size: 80px;"">+ 10 points</p>","null","html-keyboard-response","118","603738","0.0-11.0-2.117","5c6e7cc242fe6b000190936a","tqw4od","AT","22","F","{""name"":""Safari"",""safari"":true,""version"":""15.6"",""webkit"":true,""mac"":true,""osname"":""macOS"",""osversion"":""10.15.7"",""a"":true}","9:14:13","1","3","Test_2","74","j","1","457","1680 x 1050","1680 x 1050","true","1","10","","","","",""
"null","<p style=""font-size: 80px;"">+ 10 points</p>","null","html-keyboard-response","119","606867","0.0-11.0-2.118","5c6e7cc242fe6b000190936a","tqw4od","AT","22","F","{""name"":""Safari"",""safari"":true,""version"":""15.6"",""webkit"":true,""mac"":true,""osname"":""macOS"",""osversion"":""10.15.7"",""a"":true}","9:14:13","1","3","Test_4","74","j","1","1125","1680 x 1050","1680 x 1050","true","1","10","","","","",""
"null","<p style=""font-size: 80px;"">+ 10 points</p>","null","html-keyboard-response","120","609491","0.0-11.0-2.119","5c6e7cc242fe6b000190936a","tqw4od","AT","22","F","{""name"":""Safari"",""safari"":true,""version"":""15.6"",""webkit"":true,""mac"":true,""osname"":""macOS"",""osversion"":""10.15.7"",""a"":true}","9:14:13","1","3","Test_4","74","j","1","620","1680 x 1050","1680 x 1050","true","1","10","","","","",""
"null","<p style=""font-size: 80px;"">+ 0 points</p>","null","html-keyboard-response","121","612359","0.0-11.0-2.120","5c6e7cc242fe6b000190936a","tqw4od","AT","22","F","{""name"":""Safari"",""safari"":true,""version"":""15.6"",""webkit"":true,""mac"":true,""osname"":""macOS"",""osversion"":""10.15.7"",""a"":true}","9:14:13","1","4","Test_1","70","j","0","863","1680 x 1050","1680 x 1050","true","1","0","","","","",""
"null","<p style=""font-size: 80px;"">+ 10 points</p>","null","html-keyboard-response","122","615049","0.0-11.0-2.121","5c6e7cc242fe6b000190936a","tqw4od","AT","22","F","{""name"":""Safari"",""safari"":true,""version"":""15.6"",""webkit"":true,""mac"":true,""osname"":""macOS"",""osversion"":""10.15.7"",""a"":true}","9:14:13","1","4","Test_4","70","f","1","681","1680 x 1050","1680 x 1050","true","1","10","","","","",""
"null","<p style=""font-size: 80px;"">+ 10 points</p>","null","html-keyboard-response","123","617760","0.0-11.0-2.122","5c6e7cc242fe6b000190936a","tqw4od","AT","22","F","{""name"":""Safari"",""safari"":true,""version"":""15.6"",""webkit"":true,""mac"":true,""osname"":""macOS"",""osversion"":""10.15.7"",""a"":true}","9:14:13","1","4","Test_4","70","f","1","703","1680 x 1050","1680 x 1050","true","1","10","","","","",""
"null","<p style=""font-size: 80px;"">+ 10 points</p>","null","html-keyboard-response","124","620573","0.0-11.0-2.123","5c6e7cc242fe6b000190936a","tqw4od","AT","22","F","{""name"":""Safari"",""safari"":true,""version"":""15.6"",""webkit"":true,""mac"":true,""osname"":""macOS"",""osversion"":""10.15.7"",""a"":true}","9:14:13","1","4","Test_3","74","j","1","806.9999999998836","1680 x 1050","1680 x 1050","true","1","10","","","","",""
"null","<p style=""font-size: 80px;"">+ 10 points</p>","null","html-keyboard-response","125","623435","0.0-11.0-2.124","5c6e7cc242fe6b000190936a","tqw4od","AT","22","F","{""name"":""Safari"",""safari"":true,""version"":""15.6"",""webkit"":true,""mac"":true,""osname"":""macOS"",""osversion"":""10.15.7"",""a"":true}","9:14:13","1","4","Test_4","70","f","1","857.0000000001164","1680 x 1050","1680 x 1050","true","1","10","","","","",""
"null","<p style=""font-size: 80px;"">+ 10 points</p>","null","html-keyboard-response","126","626240","0.0-11.0-2.125","5c6e7cc242fe6b000190936a","tqw4od","AT","22","F","{""name"":""Safari"",""safari"":true,""version"":""15.6"",""webkit"":true,""mac"":true,""osname"":""macOS"",""osversion"":""10.15.7"",""a"":true}","9:14:13","1","4","Test_1","74","j","1","799.0000000001164","1680 x 1050","1680 x 1050","true","1","10","","","","",""
"null","<p style=""font-size: 80px;"">+ 10 points</p>","null","html-keyboard-response","127","628972","0.0-11.0-2.126","5c6e7cc242fe6b000190936a","tqw4od","AT","22","F","{""name"":""Safari"",""safari"":true,""version"":""15.6"",""webkit"":true,""mac"":true,""osname"":""macOS"",""osversion"":""10.15.7"",""a"":true}","9:14:13","1","4","Test_2","70","f","1","728","1680 x 1050","1680 x 1050","true","1","10","","","","",""
"null","<p style=""font-size: 80px;"">+ 10 points</p>","null","html-keyboard-response","128","632156","0.0-11.0-2.127","5c6e7cc242fe6b000190936a","tqw4od","AT","22","F","{""name"":""Safari"",""safari"":true,""version"":""15.6"",""webkit"":true,""mac"":true,""osname"":""macOS"",""osversion"":""10.15.7"",""a"":true}","9:14:13","1","4","Test_2","70","f","1","1178","1680 x 1050","1680 x 1050","true","1","10","","","","",""
"null","<p style=""font-size: 80px;"">+ 10 points</p>","null","html-keyboard-response","129","634908","0.0-11.0-2.128","5c6e7cc242fe6b000190936a","tqw4od","AT","22","F","{""name"":""Safari"",""safari"":true,""version"":""15.6"",""webkit"":true,""mac"":true,""osname"":""macOS"",""osversion"":""10.15.7"",""a"":true}","9:14:13","1","4","Test_3","74","j","1","743","1680 x 1050","1680 x 1050","true","1","10","","","","",""
"null","<p style=""font-size: 80px;"">+ 10 points</p>","null","html-keyboard-response","130","637727","0.0-11.0-2.129","5c6e7cc242fe6b000190936a","tqw4od","AT","22","F","{""name"":""Safari"",""safari"":true,""version"":""15.6"",""webkit"":true,""mac"":true,""osname"":""macOS"",""osversion"":""10.15.7"",""a"":true}","9:14:13","1","4","Test_3","74","j","1","815","1680 x 1050","1680 x 1050","true","1","10","","","","",""
"null","<p style=""font-size: 80px;"">+ 10 points</p>","null","html-keyboard-response","131","640457","0.0-11.0-2.130","5c6e7cc242fe6b000190936a","tqw4od","AT","22","F","{""name"":""Safari"",""safari"":true,""version"":""15.6"",""webkit"":true,""mac"":true,""osname"":""macOS"",""osversion"":""10.15.7"",""a"":true}","9:14:13","1","4","Test_2","70","f","1","725","1680 x 1050","1680 x 1050","true","1","10","","","","",""
"null","<p style=""font-size: 80px;"">+ 10 points</p>","null","html-keyboard-response","132","643323","0.0-11.0-2.131","5c6e7cc242fe6b000190936a","tqw4od","AT","22","F","{""name"":""Safari"",""safari"":true,""version"":""15.6"",""webkit"":true,""mac"":true,""osname"":""macOS"",""osversion"":""10.15.7"",""a"":true}","9:14:13","1","4","Test_3","74","j","1","860","1680 x 1050","1680 x 1050","true","1","10","","","","",""
"null","<p style=""font-size: 80px;"">+ 10 points</p>","null","html-keyboard-response","133","646178","0.0-11.0-2.132","5c6e7cc242fe6b000190936a","tqw4od","AT","22","F","{""name"":""Safari"",""safari"":true,""version"":""15.6"",""webkit"":true,""mac"":true,""osname"":""macOS"",""osversion"":""10.15.7"",""a"":true}","9:14:13","1","4","Test_2","70","f","1","851","1680 x 1050","1680 x 1050","true","1","10","","","","",""
"null","<p style=""font-size: 80px;"">+ 10 points</p>","null","html-keyboard-response","134","649603","0.0-11.0-2.133","5c6e7cc242fe6b000190936a","tqw4od","AT","22","F","{""name"":""Safari"",""safari"":true,""version"":""15.6"",""webkit"":true,""mac"":true,""osname"":""macOS"",""osversion"":""10.15.7"",""a"":true}","9:14:13","1","4","Test_4","70","f","1","1421","1680 x 1050","1680 x 1050","true","1","10","","","","",""
"null","<p style=""font-size: 80px;"">+ 10 points</p>","null","html-keyboard-response","135","652598","0.0-11.0-2.134","5c6e7cc242fe6b000190936a","tqw4od","AT","22","F","{""name"":""Safari"",""safari"":true,""version"":""15.6"",""webkit"":true,""mac"":true,""osname"":""macOS"",""osversion"":""10.15.7"",""a"":true}","9:14:13","1","4","Test_1","74","j","1","991","1680 x 1050","1680 x 1050","true","1","10","","","","",""
"null","<p style=""font-size: 80px;"">+ 10 points</p>","null","html-keyboard-response","136","656777","0.0-11.0-2.135","5c6e7cc242fe6b000190936a","tqw4od","AT","22","F","{""name"":""Safari"",""safari"":true,""version"":""15.6"",""webkit"":true,""mac"":true,""osname"":""macOS"",""osversion"":""10.15.7"",""a"":true}","9:14:13","1","4","Test_1","74","j","1","2176","1680 x 1050","1680 x 1050","true","1","10","","","","",""
"null","<p style=""font-size: 80px;"">+ 0 points</p>","null","html-keyboard-response","137","659385","0.0-11.0-2.136","5c6e7cc242fe6b000190936a","tqw4od","AT","22","F","{""name"":""Safari"",""safari"":true,""version"":""15.6"",""webkit"":true,""mac"":true,""osname"":""macOS"",""osversion"":""10.15.7"",""a"":true}","9:14:13","1","3","Test_3","74","f","0","603","1680 x 1050","1680 x 1050","true","1","0","","","","",""
"null","<p style=""font-size: 80px;"">+ 10 points</p>","null","html-keyboard-response","138","662165","0.0-11.0-2.137","5c6e7cc242fe6b000190936a","tqw4od","AT","22","F","{""name"":""Safari"",""safari"":true,""version"":""15.6"",""webkit"":true,""mac"":true,""osname"":""macOS"",""osversion"":""10.15.7"",""a"":true}","9:14:13","1","3","Test_4","74","j","1","772","1680 x 1050","1680 x 1050","true","1","10","","","","",""
"null","<p style=""font-size: 80px;"">+ 10 points</p>","null","html-keyboard-response","139","665007","0.0-11.0-2.138","5c6e7cc242fe6b000190936a","tqw4od","AT","22","F","{""name"":""Safari"",""safari"":true,""version"":""15.6"",""webkit"":true,""mac"":true,""osname"":""macOS"",""osversion"":""10.15.7"",""a"":true}","9:14:13","1","3","Test_1","70","f","1","837","1680 x 1050","1680 x 1050","true","1","10","","","","",""
"null","<p style=""font-size: 80px;"">+ 10 points</p>","null","html-keyboard-response","140","667869","0.0-11.0-2.139","5c6e7cc242fe6b000190936a","tqw4od","AT","22","F","{""name"":""Safari"",""safari"":true,""version"":""15.6"",""webkit"":true,""mac"":true,""osname"":""macOS"",""osversion"":""10.15.7"",""a"":true}","9:14:13","1","3","Test_2","74","j","1","858","1680 x 1050","1680 x 1050","true","1","10","","","","",""
"null","<p style=""font-size: 80px;"">+ 0 points</p>","null","html-keyboard-response","141","671850","0.0-11.0-2.140","5c6e7cc242fe6b000190936a","tqw4od","AT","22","F","{""name"":""Safari"",""safari"":true,""version"":""15.6"",""webkit"":true,""mac"":true,""osname"":""macOS"",""osversion"":""10.15.7"",""a"":true}","9:14:13","1","3","Test_4","70","j","0","1975.9999999998836","1680 x 1050","1680 x 1050","true","1","0","","","","",""
"null","<p style=""font-size: 80px;"">+ 10 points</p>","null","html-keyboard-response","142","675160","0.0-11.0-2.141","5c6e7cc242fe6b000190936a","tqw4od","AT","22","F","{""name"":""Safari"",""safari"":true,""version"":""15.6"",""webkit"":true,""mac"":true,""osname"":""macOS"",""osversion"":""10.15.7"",""a"":true}","9:14:13","1","3","Test_2","74","j","1","1305","1680 x 1050","1680 x 1050","true","1","10","","","","",""
"null","<p style=""font-size: 80px;"">+ 10 points</p>","null","html-keyboard-response","143","677870","0.0-11.0-2.142","5c6e7cc242fe6b000190936a","tqw4od","AT","22","F","{""name"":""Safari"",""safari"":true,""version"":""15.6"",""webkit"":true,""mac"":true,""osname"":""macOS"",""osversion"":""10.15.7"",""a"":true}","9:14:13","1","3","Test_1","70","f","1","704","1680 x 1050","1680 x 1050","true","1","10","","","","",""
"null","<p style=""font-size: 80px;"">+ 10 points</p>","null","html-keyboard-response","144","680672","0.0-11.0-2.143","5c6e7cc242fe6b000190936a","tqw4od","AT","22","F","{""name"":""Safari"",""safari"":true,""version"":""15.6"",""webkit"":true,""mac"":true,""osname"":""macOS"",""osversion"":""10.15.7"",""a"":true}","9:14:13","1","3","Test_4","74","j","1","797.0000000001164","1680 x 1050","1680 x 1050","true","1","10","","","","",""
"null","<p style=""font-size: 80px;"">+ 10 points</p>","null","html-keyboard-response","145","684088","0.0-11.0-2.144","5c6e7cc242fe6b000190936a","tqw4od","AT","22","F","{""name"":""Safari"",""safari"":true,""version"":""15.6"",""webkit"":true,""mac"":true,""osname"":""macOS"",""osversion"":""10.15.7"",""a"":true}","9:14:13","1","3","Test_2","74","j","1","1413","1680 x 1050","1680 x 1050","true","1","10","","","","",""
"null","<p style=""font-size: 80px;"">+ 10 points</p>","null","html-keyboard-response","146","687790","0.0-11.0-2.145","5c6e7cc242fe6b000190936a","tqw4od","AT","22","F","{""name"":""Safari"",""safari"":true,""version"":""15.6"",""webkit"":true,""mac"":true,""osname"":""macOS"",""osversion"":""10.15.7"",""a"":true}","9:14:13","1","3","Test_4","74","j","1","1698","1680 x 1050","1680 x 1050","true","1","10","","","","",""
"null","<p style=""font-size: 80px;"">+ 10 points</p>","null","html-keyboard-response","147","690922","0.0-11.0-2.146","5c6e7cc242fe6b000190936a","tqw4od","AT","22","F","{""name"":""Safari"",""safari"":true,""version"":""15.6"",""webkit"":true,""mac"":true,""osname"":""macOS"",""osversion"":""10.15.7"",""a"":true}","9:14:13","1","3","Test_1","70","f","1","1126.0000000001164","1680 x 1050","1680 x 1050","true","1","10","","","","",""
"null","<p style=""font-size: 80px;"">+ 10 points</p>","null","html-keyboard-response","148","693439","0.0-11.0-2.147","5c6e7cc242fe6b000190936a","tqw4od","AT","22","F","{""name"":""Safari"",""safari"":true,""version"":""15.6"",""webkit"":true,""mac"":true,""osname"":""macOS"",""osversion"":""10.15.7"",""a"":true}","9:14:13","1","3","Test_4","74","j","1","512","1680 x 1050","1680 x 1050","true","1","10","","","","",""
"null","<p style=""font-size: 80px;"">+ 10 points</p>","null","html-keyboard-response","149","696194","0.0-11.0-2.148","5c6e7cc242fe6b000190936a","tqw4od","AT","22","F","{""name"":""Safari"",""safari"":true,""version"":""15.6"",""webkit"":true,""mac"":true,""osname"":""macOS"",""osversion"":""10.15.7"",""a"":true}","9:14:13","1","3","Test_1","70","f","1","750","1680 x 1050","1680 x 1050","true","1","10","","","","",""
"null","<p style=""font-size: 80px;"">+ 0 points</p>","null","html-keyboard-response","150","698753","0.0-11.0-2.149","5c6e7cc242fe6b000190936a","tqw4od","AT","22","F","{""name"":""Safari"",""safari"":true,""version"":""15.6"",""webkit"":true,""mac"":true,""osname"":""macOS"",""osversion"":""10.15.7"",""a"":true}","9:14:13","1","3","Test_3","74","f","0","555","1680 x 1050","1680 x 1050","true","1","0","","","","",""
"null","<p style=""font-size: 80px;"">+ 10 points</p>","null","html-keyboard-response","151","701579","0.0-11.0-2.150","5c6e7cc242fe6b000190936a","tqw4od","AT","22","F","{""name"":""Safari"",""safari"":true,""version"":""15.6"",""webkit"":true,""mac"":true,""osname"":""macOS"",""osversion"":""10.15.7"",""a"":true}","9:14:13","1","3","Test_3","70","f","1","822","1680 x 1050","1680 x 1050","true","1","10","","","","",""
"null","<p style=""font-size: 80px;"">+ 10 points</p>","null","html-keyboard-response","152","704829","0.0-11.0-2.151","5c6e7cc242fe6b000190936a","tqw4od","AT","22","F","{""name"":""Safari"",""safari"":true,""version"":""15.6"",""webkit"":true,""mac"":true,""osname"":""macOS"",""osversion"":""10.15.7"",""a"":true}","9:14:13","1","3","Test_3","70","f","1","1246","1680 x 1050","1680 x 1050","true","1","10","","","","",""
"null","<p style=""font-size: 80px;"">+ 10 points</p>","null","html-keyboard-response","153","708022","0.0-11.0-2.152","5c6e7cc242fe6b000190936a","tqw4od","AT","22","F","{""name"":""Safari"",""safari"":true,""version"":""15.6"",""webkit"":true,""mac"":true,""osname"":""macOS"",""osversion"":""10.15.7"",""a"":true}","9:14:13","1","3","Test_1","70","f","1","1188","1680 x 1050","1680 x 1050","true","1","10","","","","",""
"null","<p style=""font-size: 80px;"">+ 10 points</p>","null","html-keyboard-response","154","711013","0.0-11.0-2.153","5c6e7cc242fe6b000190936a","tqw4od","AT","22","F","{""name"":""Safari"",""safari"":true,""version"":""15.6"",""webkit"":true,""mac"":true,""osname"":""macOS"",""osversion"":""10.15.7"",""a"":true}","9:14:13","1","3","Test_2","74","j","1","983","1680 x 1050","1680 x 1050","true","1","10","","","","",""
"null","<p style=""font-size: 80px;"">+ 10 points</p>","null","html-keyboard-response","155","714618","0.0-11.0-2.154","5c6e7cc242fe6b000190936a","tqw4od","AT","22","F","{""name"":""Safari"",""safari"":true,""version"":""15.6"",""webkit"":true,""mac"":true,""osname"":""macOS"",""osversion"":""10.15.7"",""a"":true}","9:14:13","1","3","Test_3","70","f","1","1599.9999999998836","1680 x 1050","1680 x 1050","true","1","10","","","","",""
"null","<p style=""font-size: 80px;"">+ 10 points</p>","null","html-keyboard-response","156","718160","0.0-11.0-2.155","5c6e7cc242fe6b000190936a","tqw4od","AT","22","F","{""name"":""Safari"",""safari"":true,""version"":""15.6"",""webkit"":true,""mac"":true,""osname"":""macOS"",""osversion"":""10.15.7"",""a"":true}","9:14:13","1","3","Test_3","70","f","1","1537","1680 x 1050","1680 x 1050","true","1","10","","","","",""
"null","<p style=""font-size: 80px;"">+ 10 points</p>","null","html-keyboard-response","157","720905","0.0-11.0-2.156","5c6e7cc242fe6b000190936a","tqw4od","AT","22","F","{""name"":""Safari"",""safari"":true,""version"":""15.6"",""webkit"":true,""mac"":true,""osname"":""macOS"",""osversion"":""10.15.7"",""a"":true}","9:14:13","1","3","Test_2","74","j","1","740","1680 x 1050","1680 x 1050","true","1","10","","","","",""
"null","<p style=""font-size: 80px;"">+ 0 points</p>","null","html-keyboard-response","158","724119","0.0-11.0-2.157","5c6e7cc242fe6b000190936a","tqw4od","AT","22","F","{""name"":""Safari"",""safari"":true,""version"":""15.6"",""webkit"":true,""mac"":true,""osname"":""macOS"",""osversion"":""10.15.7"",""a"":true}","9:14:13","1","4","Test_4","74","f","0","1207.9999999998836","1680 x 1050","1680 x 1050","true","1","0","","","","",""
"null","<p style=""font-size: 80px;"">+ 10 points</p>","null","html-keyboard-response","159","726902","0.0-11.0-2.158","5c6e7cc242fe6b000190936a","tqw4od","AT","22","F","{""name"":""Safari"",""safari"":true,""version"":""15.6"",""webkit"":true,""mac"":true,""osname"":""macOS"",""osversion"":""10.15.7"",""a"":true}","9:14:13","1","4","Test_1","74","j","1","779","1680 x 1050","1680 x 1050","true","1","10","","","","",""
"null","<p style=""font-size: 80px;"">+ 10 points</p>","null","html-keyboard-response","160","729879","0.0-11.0-2.159","5c6e7cc242fe6b000190936a","tqw4od","AT","22","F","{""name"":""Safari"",""safari"":true,""version"":""15.6"",""webkit"":true,""mac"":true,""osname"":""macOS"",""osversion"":""10.15.7"",""a"":true}","9:14:13","1","4","Test_4","70","f","1","972","1680 x 1050","1680 x 1050","true","1","10","","","","",""
"null","<p style=""font-size: 80px;"">+ 10 points</p>","null","html-keyboard-response","161","732649","0.0-11.0-2.160","5c6e7cc242fe6b000190936a","tqw4od","AT","22","F","{""name"":""Safari"",""safari"":true,""version"":""15.6"",""webkit"":true,""mac"":true,""osname"":""macOS"",""osversion"":""10.15.7"",""a"":true}","9:14:13","1","4","Test_3","74","j","1","765","1680 x 1050","1680 x 1050","true","1","10","","","","",""
"null","<p style=""font-size: 80px;"">+ 10 points</p>","null","html-keyboard-response","162","735204","0.0-11.0-2.161","5c6e7cc242fe6b000190936a","tqw4od","AT","22","F","{""name"":""Safari"",""safari"":true,""version"":""15.6"",""webkit"":true,""mac"":true,""osname"":""macOS"",""osversion"":""10.15.7"",""a"":true}","9:14:13","1","4","Test_3","74","j","1","551","1680 x 1050","1680 x 1050","true","1","10","","","","",""
"null","<p style=""font-size: 80px;"">+ 10 points</p>","null","html-keyboard-response","163","738482","0.0-11.0-2.162","5c6e7cc242fe6b000190936a","tqw4od","AT","22","F","{""name"":""Safari"",""safari"":true,""version"":""15.6"",""webkit"":true,""mac"":true,""osname"":""macOS"",""osversion"":""10.15.7"",""a"":true}","9:14:13","1","4","Test_2","70","f","1","1272","1680 x 1050","1680 x 1050","true","1","10","","","","",""
"null","<p style=""font-size: 80px;"">+ 10 points</p>","null","html-keyboard-response","164","741077","0.0-11.0-2.163","5c6e7cc242fe6b000190936a","tqw4od","AT","22","F","{""name"":""Safari"",""safari"":true,""version"":""15.6"",""webkit"":true,""mac"":true,""osname"":""macOS"",""osversion"":""10.15.7"",""a"":true}","9:14:13","1","4","Test_1","74","j","1","590","1680 x 1050","1680 x 1050","true","1","10","","","","",""
"null","<p style=""font-size: 80px;"">+ 10 points</p>","null","html-keyboard-response","165","743907","0.0-11.0-2.164","5c6e7cc242fe6b000190936a","tqw4od","AT","22","F","{""name"":""Safari"",""safari"":true,""version"":""15.6"",""webkit"":true,""mac"":true,""osname"":""macOS"",""osversion"":""10.15.7"",""a"":true}","9:14:13","1","4","Test_3","74","j","1","825","1680 x 1050","1680 x 1050","true","1","10","","","","",""
"null","<p style=""font-size: 80px;"">+ 10 points</p>","null","html-keyboard-response","166","746693","0.0-11.0-2.165","5c6e7cc242fe6b000190936a","tqw4od","AT","22","F","{""name"":""Safari"",""safari"":true,""version"":""15.6"",""webkit"":true,""mac"":true,""osname"":""macOS"",""osversion"":""10.15.7"",""a"":true}","9:14:13","1","4","Test_1","74","j","1","780.9999999998836","1680 x 1050","1680 x 1050","true","1","10","","","","",""
"null","<p style=""font-size: 80px;"">+ 10 points</p>","null","html-keyboard-response","167","750959","0.0-11.0-2.166","5c6e7cc242fe6b000190936a","tqw4od","AT","22","F","{""name"":""Safari"",""safari"":true,""version"":""15.6"",""webkit"":true,""mac"":true,""osname"":""macOS"",""osversion"":""10.15.7"",""a"":true}","9:14:13","1","4","Test_3","74","j","1","2261","1680 x 1050","1680 x 1050","true","1","10","","","","",""
"null","<p style=""font-size: 80px;"">+ 0 points</p>","null","html-keyboard-response","168","753538","0.0-11.0-2.167","5c6e7cc242fe6b000190936a","tqw4od","AT","22","F","{""name"":""Safari"",""safari"":true,""version"":""15.6"",""webkit"":true,""mac"":true,""osname"":""macOS"",""osversion"":""10.15.7"",""a"":true}","9:14:13","1","4","Test_1","70","j","0","575","1680 x 1050","1680 x 1050","true","1","0","","","","",""
"null","<p style=""font-size: 80px;"">+ 10 points</p>","null","html-keyboard-response","169","756054","0.0-11.0-2.168","5c6e7cc242fe6b000190936a","tqw4od","AT","22","F","{""name"":""Safari"",""safari"":true,""version"":""15.6"",""webkit"":true,""mac"":true,""osname"":""macOS"",""osversion"":""10.15.7"",""a"":true}","9:14:13","1","4","Test_1","74","j","1","510","1680 x 1050","1680 x 1050","true","1","10","","","","",""
"null","<p style=""font-size: 80px;"">+ 0 points</p>","null","html-keyboard-response","170","758865","0.0-11.0-2.169","5c6e7cc242fe6b000190936a","tqw4od","AT","22","F","{""name"":""Safari"",""safari"":true,""version"":""15.6"",""webkit"":true,""mac"":true,""osname"":""macOS"",""osversion"":""10.15.7"",""a"":true}","9:14:13","1","4","Test_3","70","j","0","806","1680 x 1050","1680 x 1050","true","1","0","","","","",""
"null","<p style=""font-size: 80px;"">+ 0 points</p>","null","html-keyboard-response","171","763255","0.0-11.0-2.170","5c6e7cc242fe6b000190936a","tqw4od","AT","22","F","{""name"":""Safari"",""safari"":true,""version"":""15.6"",""webkit"":true,""mac"":true,""osname"":""macOS"",""osversion"":""10.15.7"",""a"":true}","9:14:13","1","4","Test_3","70","j","0","2385","1680 x 1050","1680 x 1050","true","1","0","","","","",""
"null","<p style=""font-size: 80px;"">+ 10 points</p>","null","html-keyboard-response","172","766245","0.0-11.0-2.171","5c6e7cc242fe6b000190936a","tqw4od","AT","22","F","{""name"":""Safari"",""safari"":true,""version"":""15.6"",""webkit"":true,""mac"":true,""osname"":""macOS"",""osversion"":""10.15.7"",""a"":true}","9:14:13","1","4","Test_4","70","f","1","987","1680 x 1050","1680 x 1050","true","1","10","","","","",""
"null","<p style=""font-size: 80px;"">+ 10 points</p>","null","html-keyboard-response","173","769500","0.0-11.0-2.172","5c6e7cc242fe6b000190936a","tqw4od","AT","22","F","{""name"":""Safari"",""safari"":true,""version"":""15.6"",""webkit"":true,""mac"":true,""osname"":""macOS"",""osversion"":""10.15.7"",""a"":true}","9:14:13","1","4","Test_2","70","f","1","1250","1680 x 1050","1680 x 1050","true","1","10","","","","",""
"null","<p style=""font-size: 80px;"">+ 10 points</p>","null","html-keyboard-response","174","772298","0.0-11.0-2.173","5c6e7cc242fe6b000190936a","tqw4od","AT","22","F","{""name"":""Safari"",""safari"":true,""version"":""15.6"",""webkit"":true,""mac"":true,""osname"":""macOS"",""osversion"":""10.15.7"",""a"":true}","9:14:13","1","4","Test_4","70","f","1","789","1680 x 1050","1680 x 1050","true","1","10","","","","",""
"null","<p style=""font-size: 80px;"">+ 10 points</p>","null","html-keyboard-response","175","775637","0.0-11.0-2.174","5c6e7cc242fe6b000190936a","tqw4od","AT","22","F","{""name"":""Safari"",""safari"":true,""version"":""15.6"",""webkit"":true,""mac"":true,""osname"":""macOS"",""osversion"":""10.15.7"",""a"":true}","9:14:13","1","4","Test_2","70","f","1","1336","1680 x 1050","1680 x 1050","true","1","10","","","","",""
"null","<p style=""font-size: 80px;"">+ 10 points</p>","null","html-keyboard-response","176","778515","0.0-11.0-2.175","5c6e7cc242fe6b000190936a","tqw4od","AT","22","F","{""name"":""Safari"",""safari"":true,""version"":""15.6"",""webkit"":true,""mac"":true,""osname"":""macOS"",""osversion"":""10.15.7"",""a"":true}","9:14:13","1","4","Test_2","70","f","1","874","1680 x 1050","1680 x 1050","true","1","10","","","","",""
"null","<p style=""font-size: 80px;"">+ 10 points</p>","null","html-keyboard-response","177","781303","0.0-11.0-2.176","5c6e7cc242fe6b000190936a","tqw4od","AT","22","F","{""name"":""Safari"",""safari"":true,""version"":""15.6"",""webkit"":true,""mac"":true,""osname"":""macOS"",""osversion"":""10.15.7"",""a"":true}","9:14:13","1","4","Test_1","74","j","1","783","1680 x 1050","1680 x 1050","true","1","10","","","","",""
"null","<p style=""font-size: 80px;"">+ 10 points</p>","null","html-keyboard-response","178","784088","0.0-11.0-2.177","5c6e7cc242fe6b000190936a","tqw4od","AT","22","F","{""name"":""Safari"",""safari"":true,""version"":""15.6"",""webkit"":true,""mac"":true,""osname"":""macOS"",""osversion"":""10.15.7"",""a"":true}","9:14:13","1","4","Test_2","70","f","1","780","1680 x 1050","1680 x 1050","true","1","10","","","","",""
"null","<p style=""font-size: 80px;"">+ 0 points</p>","null","html-keyboard-response","179","787354","0.0-11.0-2.178","5c6e7cc242fe6b000190936a","tqw4od","AT","22","F","{""name"":""Safari"",""safari"":true,""version"":""15.6"",""webkit"":true,""mac"":true,""osname"":""macOS"",""osversion"":""10.15.7"",""a"":true}","9:14:13","1","3","Test_1","74","f","0","1261","1680 x 1050","1680 x 1050","true","1","0","","","","",""
"null","<p style=""font-size: 80px;"">+ 10 points</p>","null","html-keyboard-response","180","790443","0.0-11.0-2.179","5c6e7cc242fe6b000190936a","tqw4od","AT","22","F","{""name"":""Safari"",""safari"":true,""version"":""15.6"",""webkit"":true,""mac"":true,""osname"":""macOS"",""osversion"":""10.15.7"",""a"":true}","9:14:13","1","3","Test_2","74","j","1","1080.0000000001164","1680 x 1050","1680 x 1050","true","1","10","","","","",""
"null","<p style=""font-size: 80px;"">+ 10 points</p>","null","html-keyboard-response","181","793347","0.0-11.0-2.180","5c6e7cc242fe6b000190936a","tqw4od","AT","22","F","{""name"":""Safari"",""safari"":true,""version"":""15.6"",""webkit"":true,""mac"":true,""osname"":""macOS"",""osversion"":""10.15.7"",""a"":true}","9:14:13","1","3","Test_4","74","j","1","900","1680 x 1050","1680 x 1050","true","1","10","","","","",""
"null","<p style=""font-size: 80px;"">+ 10 points</p>","null","html-keyboard-response","182","796176","0.0-11.0-2.181","5c6e7cc242fe6b000190936a","tqw4od","AT","22","F","{""name"":""Safari"",""safari"":true,""version"":""15.6"",""webkit"":true,""mac"":true,""osname"":""macOS"",""osversion"":""10.15.7"",""a"":true}","9:14:13","1","3","Test_3","70","f","1","824","1680 x 1050","1680 x 1050","true","1","10","","","","",""
"null","<p style=""font-size: 80px;"">+ 10 points</p>","null","html-keyboard-response","183","799031","0.0-11.0-2.182","5c6e7cc242fe6b000190936a","tqw4od","AT","22","F","{""name"":""Safari"",""safari"":true,""version"":""15.6"",""webkit"":true,""mac"":true,""osname"":""macOS"",""osversion"":""10.15.7"",""a"":true}","9:14:13","1","3","Test_3","70","f","1","849","1680 x 1050","1680 x 1050","true","1","10","","","","",""
"null","<p style=""font-size: 80px;"">+ 0 points</p>","null","html-keyboard-response","184","801843","0.0-11.0-2.183","5c6e7cc242fe6b000190936a","tqw4od","AT","22","F","{""name"":""Safari"",""safari"":true,""version"":""15.6"",""webkit"":true,""mac"":true,""osname"":""macOS"",""osversion"":""10.15.7"",""a"":true}","9:14:13","1","3","Test_3","74","f","0","806","1680 x 1050","1680 x 1050","true","1","0","","","","",""
"null","<p style=""font-size: 80px;"">+ 10 points</p>","null","html-keyboard-response","185","804852","0.0-11.0-2.184","5c6e7cc242fe6b000190936a","tqw4od","AT","22","F","{""name"":""Safari"",""safari"":true,""version"":""15.6"",""webkit"":true,""mac"":true,""osname"":""macOS"",""osversion"":""10.15.7"",""a"":true}","9:14:13","1","3","Test_2","74","j","1","1004","1680 x 1050","1680 x 1050","true","1","10","","","","",""
"null","<p style=""font-size: 80px;"">+ 10 points</p>","null","html-keyboard-response","186","807413","0.0-11.0-2.185","5c6e7cc242fe6b000190936a","tqw4od","AT","22","F","{""name"":""Safari"",""safari"":true,""version"":""15.6"",""webkit"":true,""mac"":true,""osname"":""macOS"",""osversion"":""10.15.7"",""a"":true}","9:14:13","1","3","Test_1","70","f","1","557","1680 x 1050","1680 x 1050","true","1","10","","","","",""
"null","<p style=""font-size: 80px;"">+ 10 points</p>","null","html-keyboard-response","187","810121","0.0-11.0-2.186","5c6e7cc242fe6b000190936a","tqw4od","AT","22","F","{""name"":""Safari"",""safari"":true,""version"":""15.6"",""webkit"":true,""mac"":true,""osname"":""macOS"",""osversion"":""10.15.7"",""a"":true}","9:14:13","1","3","Test_2","74","j","1","704","1680 x 1050","1680 x 1050","true","1","10","","","","",""
"null","<p style=""font-size: 80px;"">+ 10 points</p>","null","html-keyboard-response","188","813629","0.0-11.0-2.187","5c6e7cc242fe6b000190936a","tqw4od","AT","22","F","{""name"":""Safari"",""safari"":true,""version"":""15.6"",""webkit"":true,""mac"":true,""osname"":""macOS"",""osversion"":""10.15.7"",""a"":true}","9:14:13","1","3","Test_4","74","j","1","1503","1680 x 1050","1680 x 1050","true","1","10","","","","",""
"null","<p style=""font-size: 80px;"">+ 10 points</p>","null","html-keyboard-response","189","816437","0.0-11.0-2.188","5c6e7cc242fe6b000190936a","tqw4od","AT","22","F","{""name"":""Safari"",""safari"":true,""version"":""15.6"",""webkit"":true,""mac"":true,""osname"":""macOS"",""osversion"":""10.15.7"",""a"":true}","9:14:13","1","3","Test_2","74","j","1","802","1680 x 1050","1680 x 1050","true","1","10","","","","",""
"null","<p style=""font-size: 80px;"">+ 10 points</p>","null","html-keyboard-response","190","819197","0.0-11.0-2.189","5c6e7cc242fe6b000190936a","tqw4od","AT","22","F","{""name"":""Safari"",""safari"":true,""version"":""15.6"",""webkit"":true,""mac"":true,""osname"":""macOS"",""osversion"":""10.15.7"",""a"":true}","9:14:13","1","3","Test_4","74","j","1","754","1680 x 1050","1680 x 1050","true","1","10","","","","",""
"null","<p style=""font-size: 80px;"">+ 10 points</p>","null","html-keyboard-response","191","823259","0.0-11.0-2.190","5c6e7cc242fe6b000190936a","tqw4od","AT","22","F","{""name"":""Safari"",""safari"":true,""version"":""15.6"",""webkit"":true,""mac"":true,""osname"":""macOS"",""osversion"":""10.15.7"",""a"":true}","9:14:13","1","3","Test_1","70","f","1","2056","1680 x 1050","1680 x 1050","true","1","10","","","","",""
"null","<p style=""font-size: 80px;"">+ 10 points</p>","null","html-keyboard-response","192","826118","0.0-11.0-2.191","5c6e7cc242fe6b000190936a","tqw4od","AT","22","F","{""name"":""Safari"",""safari"":true,""version"":""15.6"",""webkit"":true,""mac"":true,""osname"":""macOS"",""osversion"":""10.15.7"",""a"":true}","9:14:13","1","3","Test_4","74","j","1","856","1680 x 1050","1680 x 1050","true","1","10","","","","",""
"null","<p style=""font-size: 80px;"">+ 10 points</p>","null","html-keyboard-response","193","829379","0.0-11.0-2.192","5c6e7cc242fe6b000190936a","tqw4od","AT","22","F","{""name"":""Safari"",""safari"":true,""version"":""15.6"",""webkit"":true,""mac"":true,""osname"":""macOS"",""osversion"":""10.15.7"",""a"":true}","9:14:13","1","3","Test_3","70","f","1","1256","1680 x 1050","1680 x 1050","true","1","10","","","","",""
