"rt","stimulus","key_press","trial_type","trial_index","time_elapsed","internal_node_id","Prolific_ID","random_ID","initials","age","gender","pc_info","start_time","Phase","Rule","Stimulus","Response","CorrResp","Accuracy","ResponseTime","screen_resolution","window_resolution","focus","relevant","Points","responses","question_order","rev_check","butterfly_check","passed_practice"
"null","<p style=""font-size: 80px;"">+ 10 points</p>","null","html-keyboard-response","1","343454","0.0-7.0-2.0","595ceea8dd044900012ce64a","6c4zgt","EW","46","F","{""name"":""Chrome"",""chrome"":true,""version"":""106.0"",""blink"":true,""windows"":true,""osname"":""Windows"",""osversion"":""10"",""a"":true}","10:45:13","0","1","Practice_3","70","f","1","1224.199999988079","1280 x 720","1280 x 720","true","1","10","","","","",""
"null","<p style=""font-size: 80px;"">+ 10 points</p>","null","html-keyboard-response","2","346866","0.0-7.0-2.1","595ceea8dd044900012ce64a","6c4zgt","EW","46","F","{""name"":""Chrome"",""chrome"":true,""version"":""106.0"",""blink"":true,""windows"":true,""osname"":""Windows"",""osversion"":""10"",""a"":true}","10:45:13","0","1","Practice_2","74","j","1","1387.199999988079","1280 x 720","1280 x 720","true","1","10","","","","",""
"null","<p style=""font-size: 80px;"">+ 10 points</p>","null","html-keyboard-response","3","351798","0.0-7.0-2.2","595ceea8dd044900012ce64a","6c4zgt","EW","46","F","{""name"":""Chrome"",""chrome"":true,""version"":""106.0"",""blink"":true,""windows"":true,""osname"":""Windows"",""osversion"":""10"",""a"":true}","10:45:13","0","1","Practice_4","74","j","1","2915","1280 x 720","1280 x 720","true","1","10","","","","",""
"null","<p style=""font-size: 80px;"">+ 0 points</p>","null","html-keyboard-response","4","355422","0.0-7.0-2.3","595ceea8dd044900012ce64a","6c4zgt","EW","46","F","{""name"":""Chrome"",""chrome"":true,""version"":""106.0"",""blink"":true,""windows"":true,""osname"":""Windows"",""osversion"":""10"",""a"":true}","10:45:13","0","1","Practice_4","70","j","0","1615.9000000059605","1280 x 720","1280 x 720","true","1","0","","","","",""
"null","<p style=""font-size: 80px;"">+ 0 points</p>","null","html-keyboard-response","5","359252","0.0-7.0-2.4","595ceea8dd044900012ce64a","6c4zgt","EW","46","F","{""name"":""Chrome"",""chrome"":true,""version"":""106.0"",""blink"":true,""windows"":true,""osname"":""Windows"",""osversion"":""10"",""a"":true}","10:45:13","0","1","Practice_1","74","f","0","1809.699999988079","1280 x 720","1280 x 720","true","1","0","","","","",""
"null","<p style=""font-size: 80px;"">+ 0 points</p>","null","html-keyboard-response","6","364458","0.0-7.0-2.5","595ceea8dd044900012ce64a","6c4zgt","EW","46","F","{""name"":""Chrome"",""chrome"":true,""version"":""106.0"",""blink"":true,""windows"":true,""osname"":""Windows"",""osversion"":""10"",""a"":true}","10:45:13","0","1","Practice_4","70","j","0","3190.5","1280 x 720","1280 x 720","true","1","0","","","","",""
"null","<p style=""font-size: 80px;"">+ 10 points</p>","null","html-keyboard-response","7","367281","0.0-7.0-2.6","595ceea8dd044900012ce64a","6c4zgt","EW","46","F","{""name"":""Chrome"",""chrome"":true,""version"":""106.0"",""blink"":true,""windows"":true,""osname"":""Windows"",""osversion"":""10"",""a"":true}","10:45:13","0","1","Practice_2","74","j","1","809.7000000178814","1280 x 720","1280 x 720","true","1","10","","","","",""
"null","<p style=""font-size: 80px;"">+ 10 points</p>","null","html-keyboard-response","8","370619","0.0-7.0-2.7","595ceea8dd044900012ce64a","6c4zgt","EW","46","F","{""name"":""Chrome"",""chrome"":true,""version"":""106.0"",""blink"":true,""windows"":true,""osname"":""Windows"",""osversion"":""10"",""a"":true}","10:45:13","0","1","Practice_4","74","j","1","1316.0999999940395","1280 x 720","1280 x 720","true","1","10","","","","",""
"null","<p style=""font-size: 80px;"">+ 10 points</p>","null","html-keyboard-response","9","373569","0.0-7.0-2.8","595ceea8dd044900012ce64a","6c4zgt","EW","46","F","{""name"":""Chrome"",""chrome"":true,""version"":""106.0"",""blink"":true,""windows"":true,""osname"":""Windows"",""osversion"":""10"",""a"":true}","10:45:13","0","1","Practice_3","70","f","1","928.7000000178814","1280 x 720","1280 x 720","true","1","10","","","","",""
"null","<p style=""font-size: 80px;"">+ 10 points</p>","null","html-keyboard-response","10","376144","0.0-7.0-2.9","595ceea8dd044900012ce64a","6c4zgt","EW","46","F","{""name"":""Chrome"",""chrome"":true,""version"":""106.0"",""blink"":true,""windows"":true,""osname"":""Windows"",""osversion"":""10"",""a"":true}","10:45:13","0","1","Practice_3","70","f","1","549.6999999880791","1280 x 720","1280 x 720","true","1","10","","","","",""
"null","<p style=""font-size: 80px;"">+ 0 points</p>","null","html-keyboard-response","11","378723","0.0-7.0-2.10","595ceea8dd044900012ce64a","6c4zgt","EW","46","F","{""name"":""Chrome"",""chrome"":true,""version"":""106.0"",""blink"":true,""windows"":true,""osname"":""Windows"",""osversion"":""10"",""a"":true}","10:45:13","0","1","Practice_1","74","f","0","574.9000000059605","1280 x 720","1280 x 720","true","1","0","","","","",""
"null","<p style=""font-size: 80px;"">+ 10 points</p>","null","html-keyboard-response","12","381323","0.0-7.0-2.11","595ceea8dd044900012ce64a","6c4zgt","EW","46","F","{""name"":""Chrome"",""chrome"":true,""version"":""106.0"",""blink"":true,""windows"":true,""osname"":""Windows"",""osversion"":""10"",""a"":true}","10:45:13","0","1","Practice_3","70","f","1","584.5999999940395","1280 x 720","1280 x 720","true","1","10","","","","",""
"null","<p style=""font-size: 80px;"">+ 10 points</p>","null","html-keyboard-response","13","384124","0.0-7.0-2.12","595ceea8dd044900012ce64a","6c4zgt","EW","46","F","{""name"":""Chrome"",""chrome"":true,""version"":""106.0"",""blink"":true,""windows"":true,""osname"":""Windows"",""osversion"":""10"",""a"":true}","10:45:13","0","1","Practice_2","74","j","1","795.7000000178814","1280 x 720","1280 x 720","true","1","10","","","","",""
"null","<p style=""font-size: 80px;"">+ 10 points</p>","null","html-keyboard-response","14","387095","0.0-7.0-2.13","595ceea8dd044900012ce64a","6c4zgt","EW","46","F","{""name"":""Chrome"",""chrome"":true,""version"":""106.0"",""blink"":true,""windows"":true,""osname"":""Windows"",""osversion"":""10"",""a"":true}","10:45:13","0","1","Practice_1","70","f","1","946.7000000178814","1280 x 720","1280 x 720","true","1","10","","","","",""
"null","<p style=""font-size: 80px;"">+ 0 points</p>","null","html-keyboard-response","15","390063","0.0-7.0-2.14","595ceea8dd044900012ce64a","6c4zgt","EW","46","F","{""name"":""Chrome"",""chrome"":true,""version"":""106.0"",""blink"":true,""windows"":true,""osname"":""Windows"",""osversion"":""10"",""a"":true}","10:45:13","0","1","Practice_1","74","f","0","943.4000000059605","1280 x 720","1280 x 720","true","1","0","","","","",""
"null","<p style=""font-size: 80px;"">+ 10 points</p>","null","html-keyboard-response","16","392809","0.0-7.0-2.15","595ceea8dd044900012ce64a","6c4zgt","EW","46","F","{""name"":""Chrome"",""chrome"":true,""version"":""106.0"",""blink"":true,""windows"":true,""osname"":""Windows"",""osversion"":""10"",""a"":true}","10:45:13","0","1","Practice_3","70","f","1","713.5999999940395","1280 x 720","1280 x 720","true","1","10","","","","",""
"null","<p style=""font-size: 80px;"">+ 10 points</p>","null","html-keyboard-response","17","395544","0.0-7.0-2.16","595ceea8dd044900012ce64a","6c4zgt","EW","46","F","{""name"":""Chrome"",""chrome"":true,""version"":""106.0"",""blink"":true,""windows"":true,""osname"":""Windows"",""osversion"":""10"",""a"":true}","10:45:13","0","1","Practice_2","74","j","1","720.3999999761581","1280 x 720","1280 x 720","true","1","10","","","","",""
"null","<p style=""font-size: 80px;"">+ 10 points</p>","null","html-keyboard-response","18","398682","0.0-7.0-2.17","595ceea8dd044900012ce64a","6c4zgt","EW","46","F","{""name"":""Chrome"",""chrome"":true,""version"":""106.0"",""blink"":true,""windows"":true,""osname"":""Windows"",""osversion"":""10"",""a"":true}","10:45:13","0","1","Practice_4","74","j","1","1122.5999999940395","1280 x 720","1280 x 720","true","1","10","","","","",""
"null","<p style=""font-size: 80px;"">+ 10 points</p>","null","html-keyboard-response","19","401445","0.0-7.0-2.18","595ceea8dd044900012ce64a","6c4zgt","EW","46","F","{""name"":""Chrome"",""chrome"":true,""version"":""106.0"",""blink"":true,""windows"":true,""osname"":""Windows"",""osversion"":""10"",""a"":true}","10:45:13","0","1","Practice_1","70","f","1","747","1280 x 720","1280 x 720","true","1","10","","","","",""
"null","<p style=""font-size: 80px;"">+ 10 points</p>","null","html-keyboard-response","20","403991","0.0-7.0-2.19","595ceea8dd044900012ce64a","6c4zgt","EW","46","F","{""name"":""Chrome"",""chrome"":true,""version"":""106.0"",""blink"":true,""windows"":true,""osname"":""Windows"",""osversion"":""10"",""a"":true}","10:45:13","0","1","Practice_2","74","j","1","519.8000000119209","1280 x 720","1280 x 720","true","1","10","","","","",""
"null","<p style=""font-size: 80px;"">+ 0 points</p>","null","html-keyboard-response","21","406367","0.0-7.0-2.20","595ceea8dd044900012ce64a","6c4zgt","EW","46","F","{""name"":""Chrome"",""chrome"":true,""version"":""106.0"",""blink"":true,""windows"":true,""osname"":""Windows"",""osversion"":""10"",""a"":true}","10:45:13","0","2","Practice_2","74","f","0","356.5","1280 x 720","1280 x 720","true","1","0","","","","",""
"null","<p style=""font-size: 80px;"">+ 0 points</p>","null","html-keyboard-response","22","409574","0.0-7.0-2.21","595ceea8dd044900012ce64a","6c4zgt","EW","46","F","{""name"":""Chrome"",""chrome"":true,""version"":""106.0"",""blink"":true,""windows"":true,""osname"":""Windows"",""osversion"":""10"",""a"":true}","10:45:13","0","2","Practice_4","74","f","0","1193.2999999821186","1280 x 720","1280 x 720","true","1","0","","","","",""
"null","<p style=""font-size: 80px;"">+ 0 points</p>","null","html-keyboard-response","23","412362","0.0-7.0-2.22","595ceea8dd044900012ce64a","6c4zgt","EW","46","F","{""name"":""Chrome"",""chrome"":true,""version"":""106.0"",""blink"":true,""windows"":true,""osname"":""Windows"",""osversion"":""10"",""a"":true}","10:45:13","0","2","Practice_3","70","j","0","772.5999999940395","1280 x 720","1280 x 720","true","1","0","","","","",""
"null","<p style=""font-size: 80px;"">+ 10 points</p>","null","html-keyboard-response","24","415292","0.0-7.0-2.23","595ceea8dd044900012ce64a","6c4zgt","EW","46","F","{""name"":""Chrome"",""chrome"":true,""version"":""106.0"",""blink"":true,""windows"":true,""osname"":""Windows"",""osversion"":""10"",""a"":true}","10:45:13","0","2","Practice_4","70","f","1","926.3000000119209","1280 x 720","1280 x 720","true","1","10","","","","",""
"null","<p style=""font-size: 80px;"">+ 10 points</p>","null","html-keyboard-response","25","418587","0.0-7.0-2.24","595ceea8dd044900012ce64a","6c4zgt","EW","46","F","{""name"":""Chrome"",""chrome"":true,""version"":""106.0"",""blink"":true,""windows"":true,""osname"":""Windows"",""osversion"":""10"",""a"":true}","10:45:13","0","2","Practice_2","70","f","1","1280.0999999940395","1280 x 720","1280 x 720","true","1","10","","","","",""
"null","<p style=""font-size: 80px;"">+ 0 points</p>","null","html-keyboard-response","26","421217","0.0-7.0-2.25","595ceea8dd044900012ce64a","6c4zgt","EW","46","F","{""name"":""Chrome"",""chrome"":true,""version"":""106.0"",""blink"":true,""windows"":true,""osname"":""Windows"",""osversion"":""10"",""a"":true}","10:45:13","0","2","Practice_4","74","f","0","608.5","1280 x 720","1280 x 720","true","1","0","","","","",""
"null","<p style=""font-size: 80px;"">+ 0 points</p>","null","html-keyboard-response","27","423679","0.0-7.0-2.26","595ceea8dd044900012ce64a","6c4zgt","EW","46","F","{""name"":""Chrome"",""chrome"":true,""version"":""106.0"",""blink"":true,""windows"":true,""osname"":""Windows"",""osversion"":""10"",""a"":true}","10:45:13","0","2","Practice_3","70","j","0","443.2999999821186","1280 x 720","1280 x 720","true","1","0","","","","",""
"null","<p style=""font-size: 80px;"">+ 10 points</p>","null","html-keyboard-response","28","427343","0.0-7.0-2.27","595ceea8dd044900012ce64a","6c4zgt","EW","46","F","{""name"":""Chrome"",""chrome"":true,""version"":""106.0"",""blink"":true,""windows"":true,""osname"":""Windows"",""osversion"":""10"",""a"":true}","10:45:13","0","2","Practice_1","74","j","1","1645.199999988079","1280 x 720","1280 x 720","true","1","10","","","","",""
"null","<p style=""font-size: 80px;"">+ 10 points</p>","null","html-keyboard-response","29","430439","0.0-7.0-2.28","595ceea8dd044900012ce64a","6c4zgt","EW","46","F","{""name"":""Chrome"",""chrome"":true,""version"":""106.0"",""blink"":true,""windows"":true,""osname"":""Windows"",""osversion"":""10"",""a"":true}","10:45:13","0","2","Practice_3","74","j","1","1074.699999988079","1280 x 720","1280 x 720","true","1","10","","","","",""
"null","<p style=""font-size: 80px;"">+ 10 points</p>","null","html-keyboard-response","30","433758","0.0-7.0-2.29","595ceea8dd044900012ce64a","6c4zgt","EW","46","F","{""name"":""Chrome"",""chrome"":true,""version"":""106.0"",""blink"":true,""windows"":true,""osname"":""Windows"",""osversion"":""10"",""a"":true}","10:45:13","0","2","Practice_4","70","f","1","1306.0999999940395","1280 x 720","1280 x 720","true","1","10","","","","",""
"null","<p style=""font-size: 80px;"">+ 10 points</p>","null","html-keyboard-response","31","436504","0.0-7.0-2.30","595ceea8dd044900012ce64a","6c4zgt","EW","46","F","{""name"":""Chrome"",""chrome"":true,""version"":""106.0"",""blink"":true,""windows"":true,""osname"":""Windows"",""osversion"":""10"",""a"":true}","10:45:13","0","2","Practice_2","70","f","1","724.5999999940395","1280 x 720","1280 x 720","true","1","10","","","","",""
"null","<p style=""font-size: 80px;"">+ 10 points</p>","null","html-keyboard-response","32","439306","0.0-7.0-2.31","595ceea8dd044900012ce64a","6c4zgt","EW","46","F","{""name"":""Chrome"",""chrome"":true,""version"":""106.0"",""blink"":true,""windows"":true,""osname"":""Windows"",""osversion"":""10"",""a"":true}","10:45:13","0","2","Practice_1","74","j","1","792.1000000238419","1280 x 720","1280 x 720","true","1","10","","","","",""
"null","<p style=""font-size: 80px;"">+ 0 points</p>","null","html-keyboard-response","33","441923","0.0-7.0-2.32","595ceea8dd044900012ce64a","6c4zgt","EW","46","F","{""name"":""Chrome"",""chrome"":true,""version"":""106.0"",""blink"":true,""windows"":true,""osname"":""Windows"",""osversion"":""10"",""a"":true}","10:45:13","0","2","Practice_4","74","f","0","590.1999999880791","1280 x 720","1280 x 720","true","1","0","","","","",""
"null","<p style=""font-size: 80px;"">+ 10 points</p>","null","html-keyboard-response","34","444543","0.0-7.0-2.33","595ceea8dd044900012ce64a","6c4zgt","EW","46","F","{""name"":""Chrome"",""chrome"":true,""version"":""106.0"",""blink"":true,""windows"":true,""osname"":""Windows"",""osversion"":""10"",""a"":true}","10:45:13","0","2","Practice_1","74","j","1","607.2000000178814","1280 x 720","1280 x 720","true","1","10","","","","",""
"null","<p style=""font-size: 80px;"">+ 10 points</p>","null","html-keyboard-response","35","447644","0.0-7.0-2.34","595ceea8dd044900012ce64a","6c4zgt","EW","46","F","{""name"":""Chrome"",""chrome"":true,""version"":""106.0"",""blink"":true,""windows"":true,""osname"":""Windows"",""osversion"":""10"",""a"":true}","10:45:13","0","2","Practice_3","74","j","1","1085.199999988079","1280 x 720","1280 x 720","true","1","10","","","","",""
"null","<p style=""font-size: 80px;"">+ 10 points</p>","null","html-keyboard-response","36","450816","0.0-7.0-2.35","595ceea8dd044900012ce64a","6c4zgt","EW","46","F","{""name"":""Chrome"",""chrome"":true,""version"":""106.0"",""blink"":true,""windows"":true,""osname"":""Windows"",""osversion"":""10"",""a"":true}","10:45:13","0","2","Practice_1","74","j","1","1150.300000011921","1280 x 720","1280 x 720","true","1","10","","","","",""
"null","<p style=""font-size: 80px;"">+ 10 points</p>","null","html-keyboard-response","37","453610","0.0-7.0-2.36","595ceea8dd044900012ce64a","6c4zgt","EW","46","F","{""name"":""Chrome"",""chrome"":true,""version"":""106.0"",""blink"":true,""windows"":true,""osname"":""Windows"",""osversion"":""10"",""a"":true}","10:45:13","0","2","Practice_2","70","f","1","766.5999999940395","1280 x 720","1280 x 720","true","1","10","","","","",""
"null","<p style=""font-size: 80px;"">+ 10 points</p>","null","html-keyboard-response","38","456333","0.0-7.0-2.37","595ceea8dd044900012ce64a","6c4zgt","EW","46","F","{""name"":""Chrome"",""chrome"":true,""version"":""106.0"",""blink"":true,""windows"":true,""osname"":""Windows"",""osversion"":""10"",""a"":true}","10:45:13","0","2","Practice_1","74","j","1","698.1000000238419","1280 x 720","1280 x 720","true","1","10","","","","",""
"null","<p style=""font-size: 80px;"">+ 10 points</p>","null","html-keyboard-response","39","459493","0.0-7.0-2.38","595ceea8dd044900012ce64a","6c4zgt","EW","46","F","{""name"":""Chrome"",""chrome"":true,""version"":""106.0"",""blink"":true,""windows"":true,""osname"":""Windows"",""osversion"":""10"",""a"":true}","10:45:13","0","2","Practice_2","70","f","1","1150","1280 x 720","1280 x 720","true","1","10","","","","",""
"null","<p style=""font-size: 80px;"">+ 0 points</p>","null","html-keyboard-response","40","462543","0.0-7.0-2.39","595ceea8dd044900012ce64a","6c4zgt","EW","46","F","{""name"":""Chrome"",""chrome"":true,""version"":""106.0"",""blink"":true,""windows"":true,""osname"":""Windows"",""osversion"":""10"",""a"":true}","10:45:13","0","2","Practice_3","70","j","0","1044.4000000059605","1280 x 720","1280 x 720","true","1","0","","","","",""
"13371.200000017881","","","survey-multi-choice","127","475918","0.0-8.0","595ceea8dd044900012ce64a","6c4zgt","EW","46","F","{""name"":""Chrome"",""chrome"":true,""version"":""106.0"",""blink"":true,""windows"":true,""osname"":""Windows"",""osversion"":""10"",""a"":true}","10:45:13","","","","","","","","","","","1","","{""Q0"":""The red one"",""Q1"":""1""}","[0,1]","1","The red one","2"
"null","<p style=""font-size: 80px;"">+ 0 points</p>","null","html-keyboard-response","1","560547","0.0-11.0-2.0","595ceea8dd044900012ce64a","6c4zgt","EW","46","F","{""name"":""Chrome"",""chrome"":true,""version"":""106.0"",""blink"":true,""windows"":true,""osname"":""Windows"",""osversion"":""10"",""a"":true}","10:45:13","1","3","Test_3","74","f","0","1066.5999999940395","1280 x 720","1280 x 720","true","1","0","","","","",""
"null","<p style=""font-size: 80px;"">+ 10 points</p>","null","html-keyboard-response","2","563656","0.0-11.0-2.1","595ceea8dd044900012ce64a","6c4zgt","EW","46","F","{""name"":""Chrome"",""chrome"":true,""version"":""106.0"",""blink"":true,""windows"":true,""osname"":""Windows"",""osversion"":""10"",""a"":true}","10:45:13","1","3","Test_2","74","j","1","1100.6000000238419","1280 x 720","1280 x 720","true","1","10","","","","",""
"null","<p style=""font-size: 80px;"">+ 10 points</p>","null","html-keyboard-response","3","568039","0.0-11.0-2.2","595ceea8dd044900012ce64a","6c4zgt","EW","46","F","{""name"":""Chrome"",""chrome"":true,""version"":""106.0"",""blink"":true,""windows"":true,""osname"":""Windows"",""osversion"":""10"",""a"":true}","10:45:13","1","3","Test_4","74","j","1","2370.5999999940395","1280 x 720","1280 x 720","true","1","10","","","","",""
"null","<p style=""font-size: 80px;"">+ 10 points</p>","null","html-keyboard-response","4","571681","0.0-11.0-2.3","595ceea8dd044900012ce64a","6c4zgt","EW","46","F","{""name"":""Chrome"",""chrome"":true,""version"":""106.0"",""blink"":true,""windows"":true,""osname"":""Windows"",""osversion"":""10"",""a"":true}","10:45:13","1","3","Test_2","74","j","1","1619.4000000059605","1280 x 720","1280 x 720","true","1","10","","","","",""
"null","<p style=""font-size: 80px;"">+ 10 points</p>","null","html-keyboard-response","5","574565","0.0-11.0-2.4","595ceea8dd044900012ce64a","6c4zgt","EW","46","F","{""name"":""Chrome"",""chrome"":true,""version"":""106.0"",""blink"":true,""windows"":true,""osname"":""Windows"",""osversion"":""10"",""a"":true}","10:45:13","1","3","Test_1","70","f","1","865.2000000178814","1280 x 720","1280 x 720","true","1","10","","","","",""
"null","<p style=""font-size: 80px;"">+ 10 points</p>","null","html-keyboard-response","6","577292","0.0-11.0-2.5","595ceea8dd044900012ce64a","6c4zgt","EW","46","F","{""name"":""Chrome"",""chrome"":true,""version"":""106.0"",""blink"":true,""windows"":true,""osname"":""Windows"",""osversion"":""10"",""a"":true}","10:45:13","1","3","Test_3","70","f","1","711","1280 x 720","1280 x 720","true","1","10","","","","",""
"null","<p style=""font-size: 80px;"">+ 10 points</p>","null","html-keyboard-response","7","579867","0.0-11.0-2.6","595ceea8dd044900012ce64a","6c4zgt","EW","46","F","{""name"":""Chrome"",""chrome"":true,""version"":""106.0"",""blink"":true,""windows"":true,""osname"":""Windows"",""osversion"":""10"",""a"":true}","10:45:13","1","3","Test_3","70","f","1","556.6999999880791","1280 x 720","1280 x 720","true","1","10","","","","",""
"null","<p style=""font-size: 80px;"">+ 0 points</p>","null","html-keyboard-response","8","582783","0.0-11.0-2.7","595ceea8dd044900012ce64a","6c4zgt","EW","46","F","{""name"":""Chrome"",""chrome"":true,""version"":""106.0"",""blink"":true,""windows"":true,""osname"":""Windows"",""osversion"":""10"",""a"":true}","10:45:13","1","3","Test_1","74","f","0","892.1999999880791","1280 x 720","1280 x 720","true","1","0","","","","",""
"null","<p style=""font-size: 80px;"">+ 0 points</p>","null","html-keyboard-response","9","585236","0.0-11.0-2.8","595ceea8dd044900012ce64a","6c4zgt","EW","46","F","{""name"":""Chrome"",""chrome"":true,""version"":""106.0"",""blink"":true,""windows"":true,""osname"":""Windows"",""osversion"":""10"",""a"":true}","10:45:13","1","3","Test_4","70","j","0","441.5","1280 x 720","1280 x 720","true","1","0","","","","",""
"null","<p style=""font-size: 80px;"">+ 10 points</p>","null","html-keyboard-response","10","588727","0.0-11.0-2.9","595ceea8dd044900012ce64a","6c4zgt","EW","46","F","{""name"":""Chrome"",""chrome"":true,""version"":""106.0"",""blink"":true,""windows"":true,""osname"":""Windows"",""osversion"":""10"",""a"":true}","10:45:13","1","3","Test_2","74","j","1","1467.0999999940395","1280 x 720","1280 x 720","true","1","10","","","","",""
"null","<p style=""font-size: 80px;"">+ 10 points</p>","null","html-keyboard-response","11","591518","0.0-11.0-2.10","595ceea8dd044900012ce64a","6c4zgt","EW","46","F","{""name"":""Chrome"",""chrome"":true,""version"":""106.0"",""blink"":true,""windows"":true,""osname"":""Windows"",""osversion"":""10"",""a"":true}","10:45:13","1","3","Test_1","70","f","1","779.3000000119209","1280 x 720","1280 x 720","true","1","10","","","","",""
"null","<p style=""font-size: 80px;"">+ 10 points</p>","null","html-keyboard-response","12","594426","0.0-11.0-2.11","595ceea8dd044900012ce64a","6c4zgt","EW","46","F","{""name"":""Chrome"",""chrome"":true,""version"":""106.0"",""blink"":true,""windows"":true,""osname"":""Windows"",""osversion"":""10"",""a"":true}","10:45:13","1","3","Test_4","74","j","1","886.8000000119209","1280 x 720","1280 x 720","true","1","10","","","","",""
"null","<p style=""font-size: 80px;"">+ 10 points</p>","null","html-keyboard-response","13","597358","0.0-11.0-2.12","595ceea8dd044900012ce64a","6c4zgt","EW","46","F","{""name"":""Chrome"",""chrome"":true,""version"":""106.0"",""blink"":true,""windows"":true,""osname"":""Windows"",""osversion"":""10"",""a"":true}","10:45:13","1","3","Test_3","70","f","1","909.5","1280 x 720","1280 x 720","true","1","10","","","","",""
"null","<p style=""font-size: 80px;"">+ 10 points</p>","null","html-keyboard-response","14","599881","0.0-11.0-2.13","595ceea8dd044900012ce64a","6c4zgt","EW","46","F","{""name"":""Chrome"",""chrome"":true,""version"":""106.0"",""blink"":true,""windows"":true,""osname"":""Windows"",""osversion"":""10"",""a"":true}","10:45:13","1","3","Test_4","74","j","1","505.5","1280 x 720","1280 x 720","true","1","10","","","","",""
"null","<p style=""font-size: 80px;"">+ 10 points</p>","null","html-keyboard-response","15","602543","0.0-11.0-2.14","595ceea8dd044900012ce64a","6c4zgt","EW","46","F","{""name"":""Chrome"",""chrome"":true,""version"":""106.0"",""blink"":true,""windows"":true,""osname"":""Windows"",""osversion"":""10"",""a"":true}","10:45:13","1","3","Test_1","70","f","1","645.4000000059605","1280 x 720","1280 x 720","true","1","10","","","","",""
"null","<p style=""font-size: 80px;"">+ 10 points</p>","null","html-keyboard-response","16","605194","0.0-11.0-2.15","595ceea8dd044900012ce64a","6c4zgt","EW","46","F","{""name"":""Chrome"",""chrome"":true,""version"":""106.0"",""blink"":true,""windows"":true,""osname"":""Windows"",""osversion"":""10"",""a"":true}","10:45:13","1","3","Test_2","74","j","1","628.8000000119209","1280 x 720","1280 x 720","true","1","10","","","","",""
"null","<p style=""font-size: 80px;"">+ 0 points</p>","null","html-keyboard-response","17","607794","0.0-11.0-2.16","595ceea8dd044900012ce64a","6c4zgt","EW","46","F","{""name"":""Chrome"",""chrome"":true,""version"":""106.0"",""blink"":true,""windows"":true,""osname"":""Windows"",""osversion"":""10"",""a"":true}","10:45:13","1","4","Test_4","74","f","0","581.3000000119209","1280 x 720","1280 x 720","true","1","0","","","","",""
"null","<p style=""font-size: 80px;"">+ 0 points</p>","null","html-keyboard-response","18","610515","0.0-11.0-2.17","595ceea8dd044900012ce64a","6c4zgt","EW","46","F","{""name"":""Chrome"",""chrome"":true,""version"":""106.0"",""blink"":true,""windows"":true,""osname"":""Windows"",""osversion"":""10"",""a"":true}","10:45:13","1","4","Test_1","70","j","0","692.1999999880791","1280 x 720","1280 x 720","true","1","0","","","","",""
"null","<p style=""font-size: 80px;"">+ 0 points</p>","null","html-keyboard-response","19","613228","0.0-11.0-2.18","595ceea8dd044900012ce64a","6c4zgt","EW","46","F","{""name"":""Chrome"",""chrome"":true,""version"":""106.0"",""blink"":true,""windows"":true,""osname"":""Windows"",""osversion"":""10"",""a"":true}","10:45:13","1","4","Test_4","74","f","0","687.9000000059605","1280 x 720","1280 x 720","true","1","0","","","","",""
"null","<p style=""font-size: 80px;"">+ 10 points</p>","null","html-keyboard-response","20","617220","0.0-11.0-2.19","595ceea8dd044900012ce64a","6c4zgt","EW","46","F","{""name"":""Chrome"",""chrome"":true,""version"":""106.0"",""blink"":true,""windows"":true,""osname"":""Windows"",""osversion"":""10"",""a"":true}","10:45:13","1","4","Test_4","70","f","1","1971.2999999821186","1280 x 720","1280 x 720","true","1","10","","","","",""
"null","<p style=""font-size: 80px;"">+ 10 points</p>","null","html-keyboard-response","21","619762","0.0-11.0-2.20","595ceea8dd044900012ce64a","6c4zgt","EW","46","F","{""name"":""Chrome"",""chrome"":true,""version"":""106.0"",""blink"":true,""windows"":true,""osname"":""Windows"",""osversion"":""10"",""a"":true}","10:45:13","1","4","Test_1","74","j","1","522","1280 x 720","1280 x 720","true","1","10","","","","",""
"null","<p style=""font-size: 80px;"">+ 10 points</p>","null","html-keyboard-response","22","622689","0.0-11.0-2.21","595ceea8dd044900012ce64a","6c4zgt","EW","46","F","{""name"":""Chrome"",""chrome"":true,""version"":""106.0"",""blink"":true,""windows"":true,""osname"":""Windows"",""osversion"":""10"",""a"":true}","10:45:13","1","4","Test_3","74","j","1","901.9000000059605","1280 x 720","1280 x 720","true","1","10","","","","",""
"null","<p style=""font-size: 80px;"">+ 10 points</p>","null","html-keyboard-response","23","625808","0.0-11.0-2.22","595ceea8dd044900012ce64a","6c4zgt","EW","46","F","{""name"":""Chrome"",""chrome"":true,""version"":""106.0"",""blink"":true,""windows"":true,""osname"":""Windows"",""osversion"":""10"",""a"":true}","10:45:13","1","4","Test_2","70","f","1","1107.2999999821186","1280 x 720","1280 x 720","true","1","10","","","","",""
"null","<p style=""font-size: 80px;"">+ 10 points</p>","null","html-keyboard-response","24","628400","0.0-11.0-2.23","595ceea8dd044900012ce64a","6c4zgt","EW","46","F","{""name"":""Chrome"",""chrome"":true,""version"":""106.0"",""blink"":true,""windows"":true,""osname"":""Windows"",""osversion"":""10"",""a"":true}","10:45:13","1","4","Test_3","74","j","1","576","1280 x 720","1280 x 720","true","1","10","","","","",""
"null","<p style=""font-size: 80px;"">+ 10 points</p>","null","html-keyboard-response","25","630936","0.0-11.0-2.24","595ceea8dd044900012ce64a","6c4zgt","EW","46","F","{""name"":""Chrome"",""chrome"":true,""version"":""106.0"",""blink"":true,""windows"":true,""osname"":""Windows"",""osversion"":""10"",""a"":true}","10:45:13","1","4","Test_2","70","f","1","519.1999999880791","1280 x 720","1280 x 720","true","1","10","","","","",""
"null","<p style=""font-size: 80px;"">+ 10 points</p>","null","html-keyboard-response","26","633564","0.0-11.0-2.25","595ceea8dd044900012ce64a","6c4zgt","EW","46","F","{""name"":""Chrome"",""chrome"":true,""version"":""106.0"",""blink"":true,""windows"":true,""osname"":""Windows"",""osversion"":""10"",""a"":true}","10:45:13","1","4","Test_1","74","j","1","620.9000000059605","1280 x 720","1280 x 720","true","1","10","","","","",""
"null","<p style=""font-size: 80px;"">+ 10 points</p>","null","html-keyboard-response","27","636128","0.0-11.0-2.26","595ceea8dd044900012ce64a","6c4zgt","EW","46","F","{""name"":""Chrome"",""chrome"":true,""version"":""106.0"",""blink"":true,""windows"":true,""osname"":""Windows"",""osversion"":""10"",""a"":true}","10:45:13","1","4","Test_2","70","f","1","540.1999999880791","1280 x 720","1280 x 720","true","1","10","","","","",""
"null","<p style=""font-size: 80px;"">+ 10 points</p>","null","html-keyboard-response","28","639055","0.0-11.0-2.27","595ceea8dd044900012ce64a","6c4zgt","EW","46","F","{""name"":""Chrome"",""chrome"":true,""version"":""106.0"",""blink"":true,""windows"":true,""osname"":""Windows"",""osversion"":""10"",""a"":true}","10:45:13","1","4","Test_3","74","j","1","914.2000000178814","1280 x 720","1280 x 720","true","1","10","","","","",""
"null","<p style=""font-size: 80px;"">+ 10 points</p>","null","html-keyboard-response","29","641688","0.0-11.0-2.28","595ceea8dd044900012ce64a","6c4zgt","EW","46","F","{""name"":""Chrome"",""chrome"":true,""version"":""106.0"",""blink"":true,""windows"":true,""osname"":""Windows"",""osversion"":""10"",""a"":true}","10:45:13","1","4","Test_2","70","f","1","607.2000000178814","1280 x 720","1280 x 720","true","1","10","","","","",""
"null","<p style=""font-size: 80px;"">+ 10 points</p>","null","html-keyboard-response","30","644254","0.0-11.0-2.29","595ceea8dd044900012ce64a","6c4zgt","EW","46","F","{""name"":""Chrome"",""chrome"":true,""version"":""106.0"",""blink"":true,""windows"":true,""osname"":""Windows"",""osversion"":""10"",""a"":true}","10:45:13","1","4","Test_1","74","j","1","548.1000000238419","1280 x 720","1280 x 720","true","1","10","","","","",""
"null","<p style=""font-size: 80px;"">+ 0 points</p>","null","html-keyboard-response","31","646971","0.0-11.0-2.30","595ceea8dd044900012ce64a","6c4zgt","EW","46","F","{""name"":""Chrome"",""chrome"":true,""version"":""106.0"",""blink"":true,""windows"":true,""osname"":""Windows"",""osversion"":""10"",""a"":true}","10:45:13","1","4","Test_4","74","f","0","692","1280 x 720","1280 x 720","true","1","0","","","","",""
"null","<p style=""font-size: 80px;"">+ 10 points</p>","null","html-keyboard-response","32","650074","0.0-11.0-2.31","595ceea8dd044900012ce64a","6c4zgt","EW","46","F","{""name"":""Chrome"",""chrome"":true,""version"":""106.0"",""blink"":true,""windows"":true,""osname"":""Windows"",""osversion"":""10"",""a"":true}","10:45:13","1","4","Test_3","74","j","1","1076.5999999940395","1280 x 720","1280 x 720","true","1","10","","","","",""
"null","<p style=""font-size: 80px;"">+ 0 points</p>","null","html-keyboard-response","33","652740","0.0-11.0-2.32","595ceea8dd044900012ce64a","6c4zgt","EW","46","F","{""name"":""Chrome"",""chrome"":true,""version"":""106.0"",""blink"":true,""windows"":true,""osname"":""Windows"",""osversion"":""10"",""a"":true}","10:45:13","1","4","Test_2","74","f","0","645.0999999940395","1280 x 720","1280 x 720","true","1","0","","","","",""
"null","<p style=""font-size: 80px;"">+ 10 points</p>","null","html-keyboard-response","34","655454","0.0-11.0-2.33","595ceea8dd044900012ce64a","6c4zgt","EW","46","F","{""name"":""Chrome"",""chrome"":true,""version"":""106.0"",""blink"":true,""windows"":true,""osname"":""Windows"",""osversion"":""10"",""a"":true}","10:45:13","1","4","Test_3","74","j","1","687.1999999880791","1280 x 720","1280 x 720","true","1","10","","","","",""
"null","<p style=""font-size: 80px;"">+ 0 points</p>","null","html-keyboard-response","35","658289","0.0-11.0-2.34","595ceea8dd044900012ce64a","6c4zgt","EW","46","F","{""name"":""Chrome"",""chrome"":true,""version"":""106.0"",""blink"":true,""windows"":true,""osname"":""Windows"",""osversion"":""10"",""a"":true}","10:45:13","1","4","Test_1","70","j","0","808","1280 x 720","1280 x 720","true","1","0","","","","",""
"null","<p style=""font-size: 80px;"">+ 0 points</p>","null","html-keyboard-response","36","661578","0.0-11.0-2.35","595ceea8dd044900012ce64a","6c4zgt","EW","46","F","{""name"":""Chrome"",""chrome"":true,""version"":""106.0"",""blink"":true,""windows"":true,""osname"":""Windows"",""osversion"":""10"",""a"":true}","10:45:13","1","4","Test_4","74","f","0","1280.699999988079","1280 x 720","1280 x 720","true","1","0","","","","",""
"null","<p style=""font-size: 80px;"">+ 0 points</p>","null","html-keyboard-response","37","664562","0.0-11.0-2.36","595ceea8dd044900012ce64a","6c4zgt","EW","46","F","{""name"":""Chrome"",""chrome"":true,""version"":""106.0"",""blink"":true,""windows"":true,""osname"":""Windows"",""osversion"":""10"",""a"":true}","10:45:13","1","4","Test_1","70","j","0","964.2999999821186","1280 x 720","1280 x 720","true","1","0","","","","",""
"null","<p style=""font-size: 80px;"">+ 0 points</p>","null","html-keyboard-response","38","667072","0.0-11.0-2.37","595ceea8dd044900012ce64a","6c4zgt","EW","46","F","{""name"":""Chrome"",""chrome"":true,""version"":""106.0"",""blink"":true,""windows"":true,""osname"":""Windows"",""osversion"":""10"",""a"":true}","10:45:13","1","4","Test_4","74","f","0","496.30000001192093","1280 x 720","1280 x 720","true","1","0","","","","",""
"null","<p style=""font-size: 80px;"">+ 0 points</p>","null","html-keyboard-response","39","670425","0.0-11.0-2.38","595ceea8dd044900012ce64a","6c4zgt","EW","46","F","{""name"":""Chrome"",""chrome"":true,""version"":""106.0"",""blink"":true,""windows"":true,""osname"":""Windows"",""osversion"":""10"",""a"":true}","10:45:13","1","3","Test_2","70","j","0","1333.4000000059605","1280 x 720","1280 x 720","true","1","0","","","","",""
"null","<p style=""font-size: 80px;"">+ 0 points</p>","null","html-keyboard-response","40","673452","0.0-11.0-2.39","595ceea8dd044900012ce64a","6c4zgt","EW","46","F","{""name"":""Chrome"",""chrome"":true,""version"":""106.0"",""blink"":true,""windows"":true,""osname"":""Windows"",""osversion"":""10"",""a"":true}","10:45:13","1","3","Test_1","74","f","0","1016.6999999880791","1280 x 720","1280 x 720","true","1","0","","","","",""
"null","<p style=""font-size: 80px;"">+ 0 points</p>","null","html-keyboard-response","41","677190","0.0-11.0-2.40","595ceea8dd044900012ce64a","6c4zgt","EW","46","F","{""name"":""Chrome"",""chrome"":true,""version"":""106.0"",""blink"":true,""windows"":true,""osname"":""Windows"",""osversion"":""10"",""a"":true}","10:45:13","1","3","Test_4","70","j","0","1721.0999999940395","1280 x 720","1280 x 720","true","1","0","","","","",""
"null","<p style=""font-size: 80px;"">+ 0 points</p>","null","html-keyboard-response","42","679903","0.0-11.0-2.41","595ceea8dd044900012ce64a","6c4zgt","EW","46","F","{""name"":""Chrome"",""chrome"":true,""version"":""106.0"",""blink"":true,""windows"":true,""osname"":""Windows"",""osversion"":""10"",""a"":true}","10:45:13","1","3","Test_1","74","f","0","699.8999999761581","1280 x 720","1280 x 720","true","1","0","","","","",""
"null","<p style=""font-size: 80px;"">+ 10 points</p>","null","html-keyboard-response","43","683928","0.0-11.0-2.42","595ceea8dd044900012ce64a","6c4zgt","EW","46","F","{""name"":""Chrome"",""chrome"":true,""version"":""106.0"",""blink"":true,""windows"":true,""osname"":""Windows"",""osversion"":""10"",""a"":true}","10:45:13","1","3","Test_3","70","f","1","2007.800000011921","1280 x 720","1280 x 720","true","1","10","","","","",""
"null","<p style=""font-size: 80px;"">+ 10 points</p>","null","html-keyboard-response","44","686345","0.0-11.0-2.43","595ceea8dd044900012ce64a","6c4zgt","EW","46","F","{""name"":""Chrome"",""chrome"":true,""version"":""106.0"",""blink"":true,""windows"":true,""osname"":""Windows"",""osversion"":""10"",""a"":true}","10:45:13","1","3","Test_3","70","f","1","404.09999999403954","1280 x 720","1280 x 720","true","1","10","","","","",""
"null","<p style=""font-size: 80px;"">+ 0 points</p>","null","html-keyboard-response","45","688741","0.0-11.0-2.44","595ceea8dd044900012ce64a","6c4zgt","EW","46","F","{""name"":""Chrome"",""chrome"":true,""version"":""106.0"",""blink"":true,""windows"":true,""osname"":""Windows"",""osversion"":""10"",""a"":true}","10:45:13","1","3","Test_4","70","j","0","377.7999999821186","1280 x 720","1280 x 720","true","1","0","","","","",""
"null","<p style=""font-size: 80px;"">+ 0 points</p>","null","html-keyboard-response","46","691113","0.0-11.0-2.45","595ceea8dd044900012ce64a","6c4zgt","EW","46","F","{""name"":""Chrome"",""chrome"":true,""version"":""106.0"",""blink"":true,""windows"":true,""osname"":""Windows"",""osversion"":""10"",""a"":true}","10:45:13","1","3","Test_1","74","f","0","365.90000000596046","1280 x 720","1280 x 720","true","1","0","","","","",""
"null","<p style=""font-size: 80px;"">+ 10 points</p>","null","html-keyboard-response","47","693548","0.0-11.0-2.46","595ceea8dd044900012ce64a","6c4zgt","EW","46","F","{""name"":""Chrome"",""chrome"":true,""version"":""106.0"",""blink"":true,""windows"":true,""osname"":""Windows"",""osversion"":""10"",""a"":true}","10:45:13","1","3","Test_1","70","f","1","409.90000000596046","1280 x 720","1280 x 720","true","1","10","","","","",""
"null","<p style=""font-size: 80px;"">+ 10 points</p>","null","html-keyboard-response","48","697206","0.0-11.0-2.47","595ceea8dd044900012ce64a","6c4zgt","EW","46","F","{""name"":""Chrome"",""chrome"":true,""version"":""106.0"",""blink"":true,""windows"":true,""osname"":""Windows"",""osversion"":""10"",""a"":true}","10:45:13","1","3","Test_3","70","f","1","1637.9000000059605","1280 x 720","1280 x 720","true","1","10","","","","",""
"null","<p style=""font-size: 80px;"">+ 10 points</p>","null","html-keyboard-response","49","699731","0.0-11.0-2.48","595ceea8dd044900012ce64a","6c4zgt","EW","46","F","{""name"":""Chrome"",""chrome"":true,""version"":""106.0"",""blink"":true,""windows"":true,""osname"":""Windows"",""osversion"":""10"",""a"":true}","10:45:13","1","3","Test_2","74","j","1","504.40000000596046","1280 x 720","1280 x 720","true","1","10","","","","",""
"null","<p style=""font-size: 80px;"">+ 10 points</p>","null","html-keyboard-response","50","702499","0.0-11.0-2.49","595ceea8dd044900012ce64a","6c4zgt","EW","46","F","{""name"":""Chrome"",""chrome"":true,""version"":""106.0"",""blink"":true,""windows"":true,""osname"":""Windows"",""osversion"":""10"",""a"":true}","10:45:13","1","3","Test_2","74","j","1","758.3000000119209","1280 x 720","1280 x 720","true","1","10","","","","",""
"null","<p style=""font-size: 80px;"">+ 10 points</p>","null","html-keyboard-response","51","705184","0.0-11.0-2.50","595ceea8dd044900012ce64a","6c4zgt","EW","46","F","{""name"":""Chrome"",""chrome"":true,""version"":""106.0"",""blink"":true,""windows"":true,""osname"":""Windows"",""osversion"":""10"",""a"":true}","10:45:13","1","3","Test_4","74","j","1","667.0999999940395","1280 x 720","1280 x 720","true","1","10","","","","",""
"null","<p style=""font-size: 80px;"">+ 10 points</p>","null","html-keyboard-response","52","707915","0.0-11.0-2.51","595ceea8dd044900012ce64a","6c4zgt","EW","46","F","{""name"":""Chrome"",""chrome"":true,""version"":""106.0"",""blink"":true,""windows"":true,""osname"":""Windows"",""osversion"":""10"",""a"":true}","10:45:13","1","3","Test_2","74","j","1","723.0999999940395","1280 x 720","1280 x 720","true","1","10","","","","",""
"null","<p style=""font-size: 80px;"">+ 10 points</p>","null","html-keyboard-response","53","710407","0.0-11.0-2.52","595ceea8dd044900012ce64a","6c4zgt","EW","46","F","{""name"":""Chrome"",""chrome"":true,""version"":""106.0"",""blink"":true,""windows"":true,""osname"":""Windows"",""osversion"":""10"",""a"":true}","10:45:13","1","3","Test_4","74","j","1","473.5","1280 x 720","1280 x 720","true","1","10","","","","",""
"null","<p style=""font-size: 80px;"">+ 10 points</p>","null","html-keyboard-response","54","712984","0.0-11.0-2.53","595ceea8dd044900012ce64a","6c4zgt","EW","46","F","{""name"":""Chrome"",""chrome"":true,""version"":""106.0"",""blink"":true,""windows"":true,""osname"":""Windows"",""osversion"":""10"",""a"":true}","10:45:13","1","4","Test_2","70","f","1","572.1999999880791","1280 x 720","1280 x 720","true","1","10","","","","",""
"null","<p style=""font-size: 80px;"">+ 0 points</p>","null","html-keyboard-response","55","715759","0.0-11.0-2.54","595ceea8dd044900012ce64a","6c4zgt","EW","46","F","{""name"":""Chrome"",""chrome"":true,""version"":""106.0"",""blink"":true,""windows"":true,""osname"":""Windows"",""osversion"":""10"",""a"":true}","10:45:13","1","4","Test_4","74","f","0","757.8000000119209","1280 x 720","1280 x 720","true","1","0","","","","",""
"null","<p style=""font-size: 80px;"">+ 0 points</p>","null","html-keyboard-response","56","718986","0.0-11.0-2.55","595ceea8dd044900012ce64a","6c4zgt","EW","46","F","{""name"":""Chrome"",""chrome"":true,""version"":""106.0"",""blink"":true,""windows"":true,""osname"":""Windows"",""osversion"":""10"",""a"":true}","10:45:13","1","4","Test_2","74","f","0","1209.5999999940395","1280 x 720","1280 x 720","true","1","0","","","","",""
"null","<p style=""font-size: 80px;"">+ 10 points</p>","null","html-keyboard-response","57","721438","0.0-11.0-2.56","595ceea8dd044900012ce64a","6c4zgt","EW","46","F","{""name"":""Chrome"",""chrome"":true,""version"":""106.0"",""blink"":true,""windows"":true,""osname"":""Windows"",""osversion"":""10"",""a"":true}","10:45:13","1","4","Test_2","70","f","1","425.2000000178814","1280 x 720","1280 x 720","true","1","10","","","","",""
"null","<p style=""font-size: 80px;"">+ 10 points</p>","null","html-keyboard-response","58","723992","0.0-11.0-2.57","595ceea8dd044900012ce64a","6c4zgt","EW","46","F","{""name"":""Chrome"",""chrome"":true,""version"":""106.0"",""blink"":true,""windows"":true,""osname"":""Windows"",""osversion"":""10"",""a"":true}","10:45:13","1","4","Test_1","74","j","1","545.5","1280 x 720","1280 x 720","true","1","10","","","","",""
"null","<p style=""font-size: 80px;"">+ 10 points</p>","null","html-keyboard-response","59","726512","0.0-11.0-2.58","595ceea8dd044900012ce64a","6c4zgt","EW","46","F","{""name"":""Chrome"",""chrome"":true,""version"":""106.0"",""blink"":true,""windows"":true,""osname"":""Windows"",""osversion"":""10"",""a"":true}","10:45:13","1","4","Test_3","74","j","1","514.2999999821186","1280 x 720","1280 x 720","true","1","10","","","","",""
"null","<p style=""font-size: 80px;"">+ 10 points</p>","null","html-keyboard-response","60","729117","0.0-11.0-2.59","595ceea8dd044900012ce64a","6c4zgt","EW","46","F","{""name"":""Chrome"",""chrome"":true,""version"":""106.0"",""blink"":true,""windows"":true,""osname"":""Windows"",""osversion"":""10"",""a"":true}","10:45:13","1","4","Test_2","70","f","1","593.3000000119209","1280 x 720","1280 x 720","true","1","10","","","","",""
"null","<p style=""font-size: 80px;"">+ 10 points</p>","null","html-keyboard-response","61","732307","0.0-11.0-2.60","595ceea8dd044900012ce64a","6c4zgt","EW","46","F","{""name"":""Chrome"",""chrome"":true,""version"":""106.0"",""blink"":true,""windows"":true,""osname"":""Windows"",""osversion"":""10"",""a"":true}","10:45:13","1","4","Test_1","74","j","1","1161.5999999940395","1280 x 720","1280 x 720","true","1","10","","","","",""
"null","<p style=""font-size: 80px;"">+ 10 points</p>","null","html-keyboard-response","62","734997","0.0-11.0-2.61","595ceea8dd044900012ce64a","6c4zgt","EW","46","F","{""name"":""Chrome"",""chrome"":true,""version"":""106.0"",""blink"":true,""windows"":true,""osname"":""Windows"",""osversion"":""10"",""a"":true}","10:45:13","1","4","Test_1","74","j","1","670","1280 x 720","1280 x 720","true","1","10","","","","",""
"null","<p style=""font-size: 80px;"">+ 10 points</p>","null","html-keyboard-response","63","737437","0.0-11.0-2.62","595ceea8dd044900012ce64a","6c4zgt","EW","46","F","{""name"":""Chrome"",""chrome"":true,""version"":""106.0"",""blink"":true,""windows"":true,""osname"":""Windows"",""osversion"":""10"",""a"":true}","10:45:13","1","4","Test_1","74","j","1","427.19999998807907","1280 x 720","1280 x 720","true","1","10","","","","",""
"null","<p style=""font-size: 80px;"">+ 10 points</p>","null","html-keyboard-response","64","739856","0.0-11.0-2.63","595ceea8dd044900012ce64a","6c4zgt","EW","46","F","{""name"":""Chrome"",""chrome"":true,""version"":""106.0"",""blink"":true,""windows"":true,""osname"":""Windows"",""osversion"":""10"",""a"":true}","10:45:13","1","4","Test_1","74","j","1","396.90000000596046","1280 x 720","1280 x 720","true","1","10","","","","",""
"null","<p style=""font-size: 80px;"">+ 0 points</p>","null","html-keyboard-response","65","742369","0.0-11.0-2.64","595ceea8dd044900012ce64a","6c4zgt","EW","46","F","{""name"":""Chrome"",""chrome"":true,""version"":""106.0"",""blink"":true,""windows"":true,""osname"":""Windows"",""osversion"":""10"",""a"":true}","10:45:13","1","4","Test_3","70","j","0","507.80000001192093","1280 x 720","1280 x 720","true","1","0","","","","",""
"null","<p style=""font-size: 80px;"">+ 10 points</p>","null","html-keyboard-response","66","744789","0.0-11.0-2.65","595ceea8dd044900012ce64a","6c4zgt","EW","46","F","{""name"":""Chrome"",""chrome"":true,""version"":""106.0"",""blink"":true,""windows"":true,""osname"":""Windows"",""osversion"":""10"",""a"":true}","10:45:13","1","4","Test_3","74","j","1","391.90000000596046","1280 x 720","1280 x 720","true","1","10","","","","",""
"null","<p style=""font-size: 80px;"">+ 0 points</p>","null","html-keyboard-response","67","747371","0.0-11.0-2.66","595ceea8dd044900012ce64a","6c4zgt","EW","46","F","{""name"":""Chrome"",""chrome"":true,""version"":""106.0"",""blink"":true,""windows"":true,""osname"":""Windows"",""osversion"":""10"",""a"":true}","10:45:13","1","4","Test_4","74","f","0","570.7999999821186","1280 x 720","1280 x 720","true","1","0","","","","",""
"null","<p style=""font-size: 80px;"">+ 10 points</p>","null","html-keyboard-response","68","749820","0.0-11.0-2.67","595ceea8dd044900012ce64a","6c4zgt","EW","46","F","{""name"":""Chrome"",""chrome"":true,""version"":""106.0"",""blink"":true,""windows"":true,""osname"":""Windows"",""osversion"":""10"",""a"":true}","10:45:13","1","4","Test_4","70","f","1","426.7000000178814","1280 x 720","1280 x 720","true","1","10","","","","",""
"null","<p style=""font-size: 80px;"">+ 10 points</p>","null","html-keyboard-response","69","752368","0.0-11.0-2.68","595ceea8dd044900012ce64a","6c4zgt","EW","46","F","{""name"":""Chrome"",""chrome"":true,""version"":""106.0"",""blink"":true,""windows"":true,""osname"":""Windows"",""osversion"":""10"",""a"":true}","10:45:13","1","4","Test_1","74","j","1","540.9000000059605","1280 x 720","1280 x 720","true","1","10","","","","",""
"null","<p style=""font-size: 80px;"">+ 10 points</p>","null","html-keyboard-response","70","755158","0.0-11.0-2.69","595ceea8dd044900012ce64a","6c4zgt","EW","46","F","{""name"":""Chrome"",""chrome"":true,""version"":""106.0"",""blink"":true,""windows"":true,""osname"":""Windows"",""osversion"":""10"",""a"":true}","10:45:13","1","4","Test_4","70","f","1","758.1000000238419","1280 x 720","1280 x 720","true","1","10","","","","",""
"null","<p style=""font-size: 80px;"">+ 10 points</p>","null","html-keyboard-response","71","757751","0.0-11.0-2.70","595ceea8dd044900012ce64a","6c4zgt","EW","46","F","{""name"":""Chrome"",""chrome"":true,""version"":""106.0"",""blink"":true,""windows"":true,""osname"":""Windows"",""osversion"":""10"",""a"":true}","10:45:13","1","4","Test_3","74","j","1","578.4000000059605","1280 x 720","1280 x 720","true","1","10","","","","",""
"null","<p style=""font-size: 80px;"">+ 10 points</p>","null","html-keyboard-response","72","760285","0.0-11.0-2.71","595ceea8dd044900012ce64a","6c4zgt","EW","46","F","{""name"":""Chrome"",""chrome"":true,""version"":""106.0"",""blink"":true,""windows"":true,""osname"":""Windows"",""osversion"":""10"",""a"":true}","10:45:13","1","4","Test_2","70","f","1","507.30000001192093","1280 x 720","1280 x 720","true","1","10","","","","",""
"null","<p style=""font-size: 80px;"">+ 10 points</p>","null","html-keyboard-response","73","762832","0.0-11.0-2.72","595ceea8dd044900012ce64a","6c4zgt","EW","46","F","{""name"":""Chrome"",""chrome"":true,""version"":""106.0"",""blink"":true,""windows"":true,""osname"":""Windows"",""osversion"":""10"",""a"":true}","10:45:13","1","4","Test_3","74","j","1","520","1280 x 720","1280 x 720","true","1","10","","","","",""
"null","<p style=""font-size: 80px;"">+ 10 points</p>","null","html-keyboard-response","74","765441","0.0-11.0-2.73","595ceea8dd044900012ce64a","6c4zgt","EW","46","F","{""name"":""Chrome"",""chrome"":true,""version"":""106.0"",""blink"":true,""windows"":true,""osname"":""Windows"",""osversion"":""10"",""a"":true}","10:45:13","1","4","Test_4","70","f","1","582.5999999940395","1280 x 720","1280 x 720","true","1","10","","","","",""
"null","<p style=""font-size: 80px;"">+ 10 points</p>","null","html-keyboard-response","75","768019","0.0-11.0-2.74","595ceea8dd044900012ce64a","6c4zgt","EW","46","F","{""name"":""Chrome"",""chrome"":true,""version"":""106.0"",""blink"":true,""windows"":true,""osname"":""Windows"",""osversion"":""10"",""a"":true}","10:45:13","1","3","Test_4","74","j","1","549.6000000238419","1280 x 720","1280 x 720","true","1","10","","","","",""
"null","<p style=""font-size: 80px;"">+ 10 points</p>","null","html-keyboard-response","76","770605","0.0-11.0-2.75","595ceea8dd044900012ce64a","6c4zgt","EW","46","F","{""name"":""Chrome"",""chrome"":true,""version"":""106.0"",""blink"":true,""windows"":true,""osname"":""Windows"",""osversion"":""10"",""a"":true}","10:45:13","1","3","Test_2","74","j","1","559.8000000119209","1280 x 720","1280 x 720","true","1","10","","","","",""
"null","<p style=""font-size: 80px;"">+ 10 points</p>","null","html-keyboard-response","77","773102","0.0-11.0-2.76","595ceea8dd044900012ce64a","6c4zgt","EW","46","F","{""name"":""Chrome"",""chrome"":true,""version"":""106.0"",""blink"":true,""windows"":true,""osname"":""Windows"",""osversion"":""10"",""a"":true}","10:45:13","1","3","Test_1","70","f","1","478.09999999403954","1280 x 720","1280 x 720","true","1","10","","","","",""
"null","<p style=""font-size: 80px;"">+ 10 points</p>","null","html-keyboard-response","78","775801","0.0-11.0-2.77","595ceea8dd044900012ce64a","6c4zgt","EW","46","F","{""name"":""Chrome"",""chrome"":true,""version"":""106.0"",""blink"":true,""windows"":true,""osname"":""Windows"",""osversion"":""10"",""a"":true}","10:45:13","1","3","Test_2","74","j","1","671.1999999880791","1280 x 720","1280 x 720","true","1","10","","","","",""
"null","<p style=""font-size: 80px;"">+ 10 points</p>","null","html-keyboard-response","79","778537","0.0-11.0-2.78","595ceea8dd044900012ce64a","6c4zgt","EW","46","F","{""name"":""Chrome"",""chrome"":true,""version"":""106.0"",""blink"":true,""windows"":true,""osname"":""Windows"",""osversion"":""10"",""a"":true}","10:45:13","1","3","Test_4","74","j","1","721.9000000059605","1280 x 720","1280 x 720","true","1","10","","","","",""
"null","<p style=""font-size: 80px;"">+ 10 points</p>","null","html-keyboard-response","80","780914","0.0-11.0-2.79","595ceea8dd044900012ce64a","6c4zgt","EW","46","F","{""name"":""Chrome"",""chrome"":true,""version"":""106.0"",""blink"":true,""windows"":true,""osname"":""Windows"",""osversion"":""10"",""a"":true}","10:45:13","1","3","Test_4","74","j","1","356.39999997615814","1280 x 720","1280 x 720","true","1","10","","","","",""
"null","<p style=""font-size: 80px;"">+ 10 points</p>","null","html-keyboard-response","81","783478","0.0-11.0-2.80","595ceea8dd044900012ce64a","6c4zgt","EW","46","F","{""name"":""Chrome"",""chrome"":true,""version"":""106.0"",""blink"":true,""windows"":true,""osname"":""Windows"",""osversion"":""10"",""a"":true}","10:45:13","1","3","Test_2","74","j","1","546.5","1280 x 720","1280 x 720","true","1","10","","","","",""
"null","<p style=""font-size: 80px;"">+ 0 points</p>","null","html-keyboard-response","82","786019","0.0-11.0-2.81","595ceea8dd044900012ce64a","6c4zgt","EW","46","F","{""name"":""Chrome"",""chrome"":true,""version"":""106.0"",""blink"":true,""windows"":true,""osname"":""Windows"",""osversion"":""10"",""a"":true}","10:45:13","1","3","Test_3","74","f","0","520.8000000119209","1280 x 720","1280 x 720","true","1","0","","","","",""
"null","<p style=""font-size: 80px;"">+ 10 points</p>","null","html-keyboard-response","83","789191","0.0-11.0-2.82","595ceea8dd044900012ce64a","6c4zgt","EW","46","F","{""name"":""Chrome"",""chrome"":true,""version"":""106.0"",""blink"":true,""windows"":true,""osname"":""Windows"",""osversion"":""10"",""a"":true}","10:45:13","1","3","Test_3","70","f","1","1165.9000000059605","1280 x 720","1280 x 720","true","1","10","","","","",""
"null","<p style=""font-size: 80px;"">+ 10 points</p>","null","html-keyboard-response","84","791638","0.0-11.0-2.83","595ceea8dd044900012ce64a","6c4zgt","EW","46","F","{""name"":""Chrome"",""chrome"":true,""version"":""106.0"",""blink"":true,""windows"":true,""osname"":""Windows"",""osversion"":""10"",""a"":true}","10:45:13","1","3","Test_4","74","j","1","432.69999998807907","1280 x 720","1280 x 720","true","1","10","","","","",""
"null","<p style=""font-size: 80px;"">+ 0 points</p>","null","html-keyboard-response","85","794207","0.0-11.0-2.84","595ceea8dd044900012ce64a","6c4zgt","EW","46","F","{""name"":""Chrome"",""chrome"":true,""version"":""106.0"",""blink"":true,""windows"":true,""osname"":""Windows"",""osversion"":""10"",""a"":true}","10:45:13","1","3","Test_1","74","f","0","554.6999999880791","1280 x 720","1280 x 720","true","1","0","","","","",""
"null","<p style=""font-size: 80px;"">+ 10 points</p>","null","html-keyboard-response","86","797310","0.0-11.0-2.85","595ceea8dd044900012ce64a","6c4zgt","EW","46","F","{""name"":""Chrome"",""chrome"":true,""version"":""106.0"",""blink"":true,""windows"":true,""osname"":""Windows"",""osversion"":""10"",""a"":true}","10:45:13","1","3","Test_3","70","f","1","1080.199999988079","1280 x 720","1280 x 720","true","1","10","","","","",""
"null","<p style=""font-size: 80px;"">+ 0 points</p>","null","html-keyboard-response","87","800072","0.0-11.0-2.86","595ceea8dd044900012ce64a","6c4zgt","EW","46","F","{""name"":""Chrome"",""chrome"":true,""version"":""106.0"",""blink"":true,""windows"":true,""osname"":""Windows"",""osversion"":""10"",""a"":true}","10:45:13","1","3","Test_1","74","f","0","755.4000000059605","1280 x 720","1280 x 720","true","1","0","","","","",""
"null","<p style=""font-size: 80px;"">+ 10 points</p>","null","html-keyboard-response","88","802926","0.0-11.0-2.87","595ceea8dd044900012ce64a","6c4zgt","EW","46","F","{""name"":""Chrome"",""chrome"":true,""version"":""106.0"",""blink"":true,""windows"":true,""osname"":""Windows"",""osversion"":""10"",""a"":true}","10:45:13","1","3","Test_2","74","j","1","836.5999999940395","1280 x 720","1280 x 720","true","1","10","","","","",""
"null","<p style=""font-size: 80px;"">+ 0 points</p>","null","html-keyboard-response","89","805633","0.0-11.0-2.88","595ceea8dd044900012ce64a","6c4zgt","EW","46","F","{""name"":""Chrome"",""chrome"":true,""version"":""106.0"",""blink"":true,""windows"":true,""osname"":""Windows"",""osversion"":""10"",""a"":true}","10:45:13","1","3","Test_3","74","f","0","688.4000000059605","1280 x 720","1280 x 720","true","1","0","","","","",""
"null","<p style=""font-size: 80px;"">+ 0 points</p>","null","html-keyboard-response","90","808618","0.0-11.0-2.89","595ceea8dd044900012ce64a","6c4zgt","EW","46","F","{""name"":""Chrome"",""chrome"":true,""version"":""106.0"",""blink"":true,""windows"":true,""osname"":""Windows"",""osversion"":""10"",""a"":true}","10:45:13","1","4","Test_1","70","j","0","974.2999999821186","1280 x 720","1280 x 720","true","1","0","","","","",""
"null","<p style=""font-size: 80px;"">+ 10 points</p>","null","html-keyboard-response","91","812462","0.0-11.0-2.90","595ceea8dd044900012ce64a","6c4zgt","EW","46","F","{""name"":""Chrome"",""chrome"":true,""version"":""106.0"",""blink"":true,""windows"":true,""osname"":""Windows"",""osversion"":""10"",""a"":true}","10:45:13","1","4","Test_3","74","j","1","1822.8999999761581","1280 x 720","1280 x 720","true","1","10","","","","",""
"null","<p style=""font-size: 80px;"">+ 10 points</p>","null","html-keyboard-response","92","814825","0.0-11.0-2.91","595ceea8dd044900012ce64a","6c4zgt","EW","46","F","{""name"":""Chrome"",""chrome"":true,""version"":""106.0"",""blink"":true,""windows"":true,""osname"":""Windows"",""osversion"":""10"",""a"":true}","10:45:13","1","4","Test_3","74","j","1","346.19999998807907","1280 x 720","1280 x 720","true","1","10","","","","",""
"null","<p style=""font-size: 80px;"">+ 0 points</p>","null","html-keyboard-response","93","817224","0.0-11.0-2.92","595ceea8dd044900012ce64a","6c4zgt","EW","46","F","{""name"":""Chrome"",""chrome"":true,""version"":""106.0"",""blink"":true,""windows"":true,""osname"":""Windows"",""osversion"":""10"",""a"":true}","10:45:13","1","4","Test_4","74","f","0","375.09999999403954","1280 x 720","1280 x 720","true","1","0","","","","",""
"null","<p style=""font-size: 80px;"">+ 10 points</p>","null","html-keyboard-response","94","819895","0.0-11.0-2.93","595ceea8dd044900012ce64a","6c4zgt","EW","46","F","{""name"":""Chrome"",""chrome"":true,""version"":""106.0"",""blink"":true,""windows"":true,""osname"":""Windows"",""osversion"":""10"",""a"":true}","10:45:13","1","4","Test_4","70","f","1","659.5999999940395","1280 x 720","1280 x 720","true","1","10","","","","",""
"null","<p style=""font-size: 80px;"">+ 10 points</p>","null","html-keyboard-response","95","822710","0.0-11.0-2.94","595ceea8dd044900012ce64a","6c4zgt","EW","46","F","{""name"":""Chrome"",""chrome"":true,""version"":""106.0"",""blink"":true,""windows"":true,""osname"":""Windows"",""osversion"":""10"",""a"":true}","10:45:13","1","4","Test_4","70","f","1","792.0999999940395","1280 x 720","1280 x 720","true","1","10","","","","",""
"null","<p style=""font-size: 80px;"">+ 10 points</p>","null","html-keyboard-response","96","825224","0.0-11.0-2.95","595ceea8dd044900012ce64a","6c4zgt","EW","46","F","{""name"":""Chrome"",""chrome"":true,""version"":""106.0"",""blink"":true,""windows"":true,""osname"":""Windows"",""osversion"":""10"",""a"":true}","10:45:13","1","4","Test_1","74","j","1","489.19999998807907","1280 x 720","1280 x 720","true","1","10","","","","",""
"null","<p style=""font-size: 80px;"">+ 10 points</p>","null","html-keyboard-response","97","827621","0.0-11.0-2.96","595ceea8dd044900012ce64a","6c4zgt","EW","46","F","{""name"":""Chrome"",""chrome"":true,""version"":""106.0"",""blink"":true,""windows"":true,""osname"":""Windows"",""osversion"":""10"",""a"":true}","10:45:13","1","4","Test_4","70","f","1","381.39999997615814","1280 x 720","1280 x 720","true","1","10","","","","",""
"null","<p style=""font-size: 80px;"">+ 10 points</p>","null","html-keyboard-response","98","830429","0.0-11.0-2.97","595ceea8dd044900012ce64a","6c4zgt","EW","46","F","{""name"":""Chrome"",""chrome"":true,""version"":""106.0"",""blink"":true,""windows"":true,""osname"":""Windows"",""osversion"":""10"",""a"":true}","10:45:13","1","4","Test_1","74","j","1","789.0999999940395","1280 x 720","1280 x 720","true","1","10","","","","",""
"null","<p style=""font-size: 80px;"">+ 10 points</p>","null","html-keyboard-response","99","833823","0.0-11.0-2.98","595ceea8dd044900012ce64a","6c4zgt","EW","46","F","{""name"":""Chrome"",""chrome"":true,""version"":""106.0"",""blink"":true,""windows"":true,""osname"":""Windows"",""osversion"":""10"",""a"":true}","10:45:13","1","4","Test_3","74","j","1","1366","1280 x 720","1280 x 720","true","1","10","","","","",""
"null","<p style=""font-size: 80px;"">+ 0 points</p>","null","html-keyboard-response","100","836207","0.0-11.0-2.99","595ceea8dd044900012ce64a","6c4zgt","EW","46","F","{""name"":""Chrome"",""chrome"":true,""version"":""106.0"",""blink"":true,""windows"":true,""osname"":""Windows"",""osversion"":""10"",""a"":true}","10:45:13","1","4","Test_4","74","f","0","364.7999999821186","1280 x 720","1280 x 720","true","1","0","","","","",""
"null","<p style=""font-size: 80px;"">+ 0 points</p>","null","html-keyboard-response","101","839321","0.0-11.0-2.100","595ceea8dd044900012ce64a","6c4zgt","EW","46","F","{""name"":""Chrome"",""chrome"":true,""version"":""106.0"",""blink"":true,""windows"":true,""osname"":""Windows"",""osversion"":""10"",""a"":true}","10:45:13","1","4","Test_1","70","j","0","1093.5999999940395","1280 x 720","1280 x 720","true","1","0","","","","",""
"null","<p style=""font-size: 80px;"">+ 0 points</p>","null","html-keyboard-response","102","842246","0.0-11.0-2.101","595ceea8dd044900012ce64a","6c4zgt","EW","46","F","{""name"":""Chrome"",""chrome"":true,""version"":""106.0"",""blink"":true,""windows"":true,""osname"":""Windows"",""osversion"":""10"",""a"":true}","10:45:13","1","4","Test_2","74","f","0","904.5999999940395","1280 x 720","1280 x 720","true","1","0","","","","",""
"null","<p style=""font-size: 80px;"">+ 10 points</p>","null","html-keyboard-response","103","845587","0.0-11.0-2.102","595ceea8dd044900012ce64a","6c4zgt","EW","46","F","{""name"":""Chrome"",""chrome"":true,""version"":""106.0"",""blink"":true,""windows"":true,""osname"":""Windows"",""osversion"":""10"",""a"":true}","10:45:13","1","4","Test_4","70","f","1","1325","1280 x 720","1280 x 720","true","1","10","","","","",""
"null","<p style=""font-size: 80px;"">+ 0 points</p>","null","html-keyboard-response","104","848249","0.0-11.0-2.103","595ceea8dd044900012ce64a","6c4zgt","EW","46","F","{""name"":""Chrome"",""chrome"":true,""version"":""106.0"",""blink"":true,""windows"":true,""osname"":""Windows"",""osversion"":""10"",""a"":true}","10:45:13","1","4","Test_1","70","j","0","633.5999999940395","1280 x 720","1280 x 720","true","1","0","","","","",""
"null","<p style=""font-size: 80px;"">+ 0 points</p>","null","html-keyboard-response","105","851388","0.0-11.0-2.104","595ceea8dd044900012ce64a","6c4zgt","EW","46","F","{""name"":""Chrome"",""chrome"":true,""version"":""106.0"",""blink"":true,""windows"":true,""osname"":""Windows"",""osversion"":""10"",""a"":true}","10:45:13","1","4","Test_2","74","f","0","1107.5999999940395","1280 x 720","1280 x 720","true","1","0","","","","",""
"null","<p style=""font-size: 80px;"">+ 10 points</p>","null","html-keyboard-response","106","854277","0.0-11.0-2.105","595ceea8dd044900012ce64a","6c4zgt","EW","46","F","{""name"":""Chrome"",""chrome"":true,""version"":""106.0"",""blink"":true,""windows"":true,""osname"":""Windows"",""osversion"":""10"",""a"":true}","10:45:13","1","4","Test_2","70","f","1","872.3000000119209","1280 x 720","1280 x 720","true","1","10","","","","",""
"null","<p style=""font-size: 80px;"">+ 10 points</p>","null","html-keyboard-response","107","856826","0.0-11.0-2.106","595ceea8dd044900012ce64a","6c4zgt","EW","46","F","{""name"":""Chrome"",""chrome"":true,""version"":""106.0"",""blink"":true,""windows"":true,""osname"":""Windows"",""osversion"":""10"",""a"":true}","10:45:13","1","4","Test_3","74","j","1","528.5","1280 x 720","1280 x 720","true","1","10","","","","",""
"null","<p style=""font-size: 80px;"">+ 10 points</p>","null","html-keyboard-response","108","859263","0.0-11.0-2.107","595ceea8dd044900012ce64a","6c4zgt","EW","46","F","{""name"":""Chrome"",""chrome"":true,""version"":""106.0"",""blink"":true,""windows"":true,""osname"":""Windows"",""osversion"":""10"",""a"":true}","10:45:13","1","4","Test_3","74","j","1","414.30000001192093","1280 x 720","1280 x 720","true","1","10","","","","",""
"null","<p style=""font-size: 80px;"">+ 0 points</p>","null","html-keyboard-response","109","861764","0.0-11.0-2.108","595ceea8dd044900012ce64a","6c4zgt","EW","46","F","{""name"":""Chrome"",""chrome"":true,""version"":""106.0"",""blink"":true,""windows"":true,""osname"":""Windows"",""osversion"":""10"",""a"":true}","10:45:13","1","4","Test_2","74","f","0","475.7000000178814","1280 x 720","1280 x 720","true","1","0","","","","",""
"null","<p style=""font-size: 80px;"">+ 0 points</p>","null","html-keyboard-response","110","882156","0.0-11.0-2.109","595ceea8dd044900012ce64a","6c4zgt","EW","46","F","{""name"":""Chrome"",""chrome"":true,""version"":""106.0"",""blink"":true,""windows"":true,""osname"":""Windows"",""osversion"":""10"",""a"":true}","10:45:13","1","4","Test_2","74","f","0","1299.699999988079","1280 x 720","1280 x 720","true","1","0","","","","",""
"null","<p style=""font-size: 80px;"">+ 0 points</p>","null","html-keyboard-response","111","884740","0.0-11.0-2.110","595ceea8dd044900012ce64a","6c4zgt","EW","46","F","{""name"":""Chrome"",""chrome"":true,""version"":""106.0"",""blink"":true,""windows"":true,""osname"":""Windows"",""osversion"":""10"",""a"":true}","10:45:13","1","3","Test_3","74","f","0","564.5999999940395","1280 x 720","1280 x 720","true","1","0","","","","",""
"null","<p style=""font-size: 80px;"">+ 10 points</p>","null","html-keyboard-response","112","887077","0.0-11.0-2.111","595ceea8dd044900012ce64a","6c4zgt","EW","46","F","{""name"":""Chrome"",""chrome"":true,""version"":""106.0"",""blink"":true,""windows"":true,""osname"":""Windows"",""osversion"":""10"",""a"":true}","10:45:13","1","3","Test_3","70","f","1","316.39999997615814","1280 x 720","1280 x 720","true","1","10","","","","",""
"null","<p style=""font-size: 80px;"">+ 10 points</p>","null","html-keyboard-response","113","889587","0.0-11.0-2.112","595ceea8dd044900012ce64a","6c4zgt","EW","46","F","{""name"":""Chrome"",""chrome"":true,""version"":""106.0"",""blink"":true,""windows"":true,""osname"":""Windows"",""osversion"":""10"",""a"":true}","10:45:13","1","3","Test_2","74","j","1","488.7000000178814","1280 x 720","1280 x 720","true","1","10","","","","",""
"null","<p style=""font-size: 80px;"">+ 10 points</p>","null","html-keyboard-response","114","892261","0.0-11.0-2.113","595ceea8dd044900012ce64a","6c4zgt","EW","46","F","{""name"":""Chrome"",""chrome"":true,""version"":""106.0"",""blink"":true,""windows"":true,""osname"":""Windows"",""osversion"":""10"",""a"":true}","10:45:13","1","3","Test_3","70","f","1","647.7000000178814","1280 x 720","1280 x 720","true","1","10","","","","",""
"null","<p style=""font-size: 80px;"">+ 10 points</p>","null","html-keyboard-response","115","895246","0.0-11.0-2.114","595ceea8dd044900012ce64a","6c4zgt","EW","46","F","{""name"":""Chrome"",""chrome"":true,""version"":""106.0"",""blink"":true,""windows"":true,""osname"":""Windows"",""osversion"":""10"",""a"":true}","10:45:13","1","3","Test_4","74","j","1","965.4000000059605","1280 x 720","1280 x 720","true","1","10","","","","",""
"null","<p style=""font-size: 80px;"">+ 10 points</p>","null","html-keyboard-response","116","897844","0.0-11.0-2.115","595ceea8dd044900012ce64a","6c4zgt","EW","46","F","{""name"":""Chrome"",""chrome"":true,""version"":""106.0"",""blink"":true,""windows"":true,""osname"":""Windows"",""osversion"":""10"",""a"":true}","10:45:13","1","3","Test_1","70","f","1","573.9000000059605","1280 x 720","1280 x 720","true","1","10","","","","",""
"null","<p style=""font-size: 80px;"">+ 10 points</p>","null","html-keyboard-response","117","900402","0.0-11.0-2.116","595ceea8dd044900012ce64a","6c4zgt","EW","46","F","{""name"":""Chrome"",""chrome"":true,""version"":""106.0"",""blink"":true,""windows"":true,""osname"":""Windows"",""osversion"":""10"",""a"":true}","10:45:13","1","3","Test_1","70","f","1","539.5","1280 x 720","1280 x 720","true","1","10","","","","",""
"null","<p style=""font-size: 80px;"">+ 10 points</p>","null","html-keyboard-response","118","902990","0.0-11.0-2.117","595ceea8dd044900012ce64a","6c4zgt","EW","46","F","{""name"":""Chrome"",""chrome"":true,""version"":""106.0"",""blink"":true,""windows"":true,""osname"":""Windows"",""osversion"":""10"",""a"":true}","10:45:13","1","3","Test_2","74","j","1","559.0999999940395","1280 x 720","1280 x 720","true","1","10","","","","",""
"null","<p style=""font-size: 80px;"">+ 0 points</p>","null","html-keyboard-response","119","905379","0.0-11.0-2.118","595ceea8dd044900012ce64a","6c4zgt","EW","46","F","{""name"":""Chrome"",""chrome"":true,""version"":""106.0"",""blink"":true,""windows"":true,""osname"":""Windows"",""osversion"":""10"",""a"":true}","10:45:13","1","3","Test_3","74","f","0","372.59999999403954","1280 x 720","1280 x 720","true","1","0","","","","",""
"null","<p style=""font-size: 80px;"">+ 10 points</p>","null","html-keyboard-response","120","908016","0.0-11.0-2.119","595ceea8dd044900012ce64a","6c4zgt","EW","46","F","{""name"":""Chrome"",""chrome"":true,""version"":""106.0"",""blink"":true,""windows"":true,""osname"":""Windows"",""osversion"":""10"",""a"":true}","10:45:13","1","3","Test_4","74","j","1","608.2999999821186","1280 x 720","1280 x 720","true","1","10","","","","",""
"null","<p style=""font-size: 80px;"">+ 0 points</p>","null","html-keyboard-response","121","910468","0.0-11.0-2.120","595ceea8dd044900012ce64a","6c4zgt","EW","46","F","{""name"":""Chrome"",""chrome"":true,""version"":""106.0"",""blink"":true,""windows"":true,""osname"":""Windows"",""osversion"":""10"",""a"":true}","10:45:13","1","3","Test_2","70","j","0","431.80000001192093","1280 x 720","1280 x 720","true","1","0","","","","",""
"null","<p style=""font-size: 80px;"">+ 10 points</p>","null","html-keyboard-response","122","912916","0.0-11.0-2.121","595ceea8dd044900012ce64a","6c4zgt","EW","46","F","{""name"":""Chrome"",""chrome"":true,""version"":""106.0"",""blink"":true,""windows"":true,""osname"":""Windows"",""osversion"":""10"",""a"":true}","10:45:13","1","3","Test_2","74","j","1","435.69999998807907","1280 x 720","1280 x 720","true","1","10","","","","",""
"null","<p style=""font-size: 80px;"">+ 0 points</p>","null","html-keyboard-response","123","915326","0.0-11.0-2.122","595ceea8dd044900012ce64a","6c4zgt","EW","46","F","{""name"":""Chrome"",""chrome"":true,""version"":""106.0"",""blink"":true,""windows"":true,""osname"":""Windows"",""osversion"":""10"",""a"":true}","10:45:13","1","3","Test_1","74","f","0","396.59999999403954","1280 x 720","1280 x 720","true","1","0","","","","",""
"null","<p style=""font-size: 80px;"">+ 10 points</p>","null","html-keyboard-response","124","917955","0.0-11.0-2.123","595ceea8dd044900012ce64a","6c4zgt","EW","46","F","{""name"":""Chrome"",""chrome"":true,""version"":""106.0"",""blink"":true,""windows"":true,""osname"":""Windows"",""osversion"":""10"",""a"":true}","10:45:13","1","3","Test_4","74","j","1","611.6999999880791","1280 x 720","1280 x 720","true","1","10","","","","",""
"null","<p style=""font-size: 80px;"">+ 10 points</p>","null","html-keyboard-response","125","920727","0.0-11.0-2.124","595ceea8dd044900012ce64a","6c4zgt","EW","46","F","{""name"":""Chrome"",""chrome"":true,""version"":""106.0"",""blink"":true,""windows"":true,""osname"":""Windows"",""osversion"":""10"",""a"":true}","10:45:13","1","3","Test_1","70","f","1","763.0999999940395","1280 x 720","1280 x 720","true","1","10","","","","",""
"null","<p style=""font-size: 80px;"">+ 10 points</p>","null","html-keyboard-response","126","923436","0.0-11.0-2.125","595ceea8dd044900012ce64a","6c4zgt","EW","46","F","{""name"":""Chrome"",""chrome"":true,""version"":""106.0"",""blink"":true,""windows"":true,""osname"":""Windows"",""osversion"":""10"",""a"":true}","10:45:13","1","3","Test_3","70","f","1","694.8999999761581","1280 x 720","1280 x 720","true","1","10","","","","",""
"null","<p style=""font-size: 80px;"">+ 10 points</p>","null","html-keyboard-response","127","926010","0.0-11.0-2.126","595ceea8dd044900012ce64a","6c4zgt","EW","46","F","{""name"":""Chrome"",""chrome"":true,""version"":""106.0"",""blink"":true,""windows"":true,""osname"":""Windows"",""osversion"":""10"",""a"":true}","10:45:13","1","3","Test_4","74","j","1","549.6000000238419","1280 x 720","1280 x 720","true","1","10","","","","",""
"null","<p style=""font-size: 80px;"">+ 0 points</p>","null","html-keyboard-response","128","928469","0.0-11.0-2.127","595ceea8dd044900012ce64a","6c4zgt","EW","46","F","{""name"":""Chrome"",""chrome"":true,""version"":""106.0"",""blink"":true,""windows"":true,""osname"":""Windows"",""osversion"":""10"",""a"":true}","10:45:13","1","3","Test_3","74","f","0","447.30000001192093","1280 x 720","1280 x 720","true","1","0","","","","",""
"null","<p style=""font-size: 80px;"">+ 10 points</p>","null","html-keyboard-response","129","931186","0.0-11.0-2.128","595ceea8dd044900012ce64a","6c4zgt","EW","46","F","{""name"":""Chrome"",""chrome"":true,""version"":""106.0"",""blink"":true,""windows"":true,""osname"":""Windows"",""osversion"":""10"",""a"":true}","10:45:13","1","3","Test_1","70","f","1","687.6000000238419","1280 x 720","1280 x 720","true","1","10","","","","",""
"null","<p style=""font-size: 80px;"">+ 10 points</p>","null","html-keyboard-response","130","933740","0.0-11.0-2.129","595ceea8dd044900012ce64a","6c4zgt","EW","46","F","{""name"":""Chrome"",""chrome"":true,""version"":""106.0"",""blink"":true,""windows"":true,""osname"":""Windows"",""osversion"":""10"",""a"":true}","10:45:13","1","3","Test_2","74","j","1","540.3000000119209","1280 x 720","1280 x 720","true","1","10","","","","",""
"null","<p style=""font-size: 80px;"">+ 10 points</p>","null","html-keyboard-response","131","936334","0.0-11.0-2.130","595ceea8dd044900012ce64a","6c4zgt","EW","46","F","{""name"":""Chrome"",""chrome"":true,""version"":""106.0"",""blink"":true,""windows"":true,""osname"":""Windows"",""osversion"":""10"",""a"":true}","10:45:13","1","3","Test_1","70","f","1","569.4000000059605","1280 x 720","1280 x 720","true","1","10","","","","",""
"null","<p style=""font-size: 80px;"">+ 10 points</p>","null","html-keyboard-response","132","938963","0.0-11.0-2.131","595ceea8dd044900012ce64a","6c4zgt","EW","46","F","{""name"":""Chrome"",""chrome"":true,""version"":""106.0"",""blink"":true,""windows"":true,""osname"":""Windows"",""osversion"":""10"",""a"":true}","10:45:13","1","3","Test_4","74","j","1","611.9000000059605","1280 x 720","1280 x 720","true","1","10","","","","",""
"null","<p style=""font-size: 80px;"">+ 10 points</p>","null","html-keyboard-response","133","941588","0.0-11.0-2.132","595ceea8dd044900012ce64a","6c4zgt","EW","46","F","{""name"":""Chrome"",""chrome"":true,""version"":""106.0"",""blink"":true,""windows"":true,""osname"":""Windows"",""osversion"":""10"",""a"":true}","10:45:13","1","3","Test_2","74","j","1","593.8000000119209","1280 x 720","1280 x 720","true","1","10","","","","",""
"null","<p style=""font-size: 80px;"">+ 10 points</p>","null","html-keyboard-response","134","944618","0.0-11.0-2.133","595ceea8dd044900012ce64a","6c4zgt","EW","46","F","{""name"":""Chrome"",""chrome"":true,""version"":""106.0"",""blink"":true,""windows"":true,""osname"":""Windows"",""osversion"":""10"",""a"":true}","10:45:13","1","3","Test_4","74","j","1","1019.2999999821186","1280 x 720","1280 x 720","true","1","10","","","","",""
"null","<p style=""font-size: 80px;"">+ 0 points</p>","null","html-keyboard-response","135","947266","0.0-11.0-2.134","595ceea8dd044900012ce64a","6c4zgt","EW","46","F","{""name"":""Chrome"",""chrome"":true,""version"":""106.0"",""blink"":true,""windows"":true,""osname"":""Windows"",""osversion"":""10"",""a"":true}","10:45:13","1","4","Test_3","70","j","0","627.2999999821186","1280 x 720","1280 x 720","true","1","0","","","","",""
"null","<p style=""font-size: 80px;"">+ 10 points</p>","null","html-keyboard-response","136","949742","0.0-11.0-2.135","595ceea8dd044900012ce64a","6c4zgt","EW","46","F","{""name"":""Chrome"",""chrome"":true,""version"":""106.0"",""blink"":true,""windows"":true,""osname"":""Windows"",""osversion"":""10"",""a"":true}","10:45:13","1","4","Test_3","74","j","1","458.09999999403954","1280 x 720","1280 x 720","true","1","10","","","","",""
"null","<p style=""font-size: 80px;"">+ 10 points</p>","null","html-keyboard-response","137","952303","0.0-11.0-2.136","595ceea8dd044900012ce64a","6c4zgt","EW","46","F","{""name"":""Chrome"",""chrome"":true,""version"":""106.0"",""blink"":true,""windows"":true,""osname"":""Windows"",""osversion"":""10"",""a"":true}","10:45:13","1","4","Test_2","70","f","1","540.0999999940395","1280 x 720","1280 x 720","true","1","10","","","","",""
"null","<p style=""font-size: 80px;"">+ 10 points</p>","null","html-keyboard-response","138","955048","0.0-11.0-2.137","595ceea8dd044900012ce64a","6c4zgt","EW","46","F","{""name"":""Chrome"",""chrome"":true,""version"":""106.0"",""blink"":true,""windows"":true,""osname"":""Windows"",""osversion"":""10"",""a"":true}","10:45:13","1","4","Test_1","74","j","1","726.4000000059605","1280 x 720","1280 x 720","true","1","10","","","","",""
"null","<p style=""font-size: 80px;"">+ 10 points</p>","null","html-keyboard-response","139","957575","0.0-11.0-2.138","595ceea8dd044900012ce64a","6c4zgt","EW","46","F","{""name"":""Chrome"",""chrome"":true,""version"":""106.0"",""blink"":true,""windows"":true,""osname"":""Windows"",""osversion"":""10"",""a"":true}","10:45:13","1","4","Test_2","70","f","1","495.09999999403954","1280 x 720","1280 x 720","true","1","10","","","","",""
"null","<p style=""font-size: 80px;"">+ 10 points</p>","null","html-keyboard-response","140","960207","0.0-11.0-2.139","595ceea8dd044900012ce64a","6c4zgt","EW","46","F","{""name"":""Chrome"",""chrome"":true,""version"":""106.0"",""blink"":true,""windows"":true,""osname"":""Windows"",""osversion"":""10"",""a"":true}","10:45:13","1","4","Test_1","74","j","1","597","1280 x 720","1280 x 720","true","1","10","","","","",""
"null","<p style=""font-size: 80px;"">+ 10 points</p>","null","html-keyboard-response","141","962711","0.0-11.0-2.140","595ceea8dd044900012ce64a","6c4zgt","EW","46","F","{""name"":""Chrome"",""chrome"":true,""version"":""106.0"",""blink"":true,""windows"":true,""osname"":""Windows"",""osversion"":""10"",""a"":true}","10:45:13","1","4","Test_3","74","j","1","478.40000000596046","1280 x 720","1280 x 720","true","1","10","","","","",""
"null","<p style=""font-size: 80px;"">+ 10 points</p>","null","html-keyboard-response","142","965126","0.0-11.0-2.141","595ceea8dd044900012ce64a","6c4zgt","EW","46","F","{""name"":""Chrome"",""chrome"":true,""version"":""106.0"",""blink"":true,""windows"":true,""osname"":""Windows"",""osversion"":""10"",""a"":true}","10:45:13","1","4","Test_3","74","j","1","405.10000002384186","1280 x 720","1280 x 720","true","1","10","","","","",""
"null","<p style=""font-size: 80px;"">+ 0 points</p>","null","html-keyboard-response","143","967540","0.0-11.0-2.142","595ceea8dd044900012ce64a","6c4zgt","EW","46","F","{""name"":""Chrome"",""chrome"":true,""version"":""106.0"",""blink"":true,""windows"":true,""osname"":""Windows"",""osversion"":""10"",""a"":true}","10:45:13","1","4","Test_1","70","j","0","397.5","1280 x 720","1280 x 720","true","1","0","","","","",""
"null","<p style=""font-size: 80px;"">+ 10 points</p>","null","html-keyboard-response","144","970247","0.0-11.0-2.143","595ceea8dd044900012ce64a","6c4zgt","EW","46","F","{""name"":""Chrome"",""chrome"":true,""version"":""106.0"",""blink"":true,""windows"":true,""osname"":""Windows"",""osversion"":""10"",""a"":true}","10:45:13","1","4","Test_2","70","f","1","678.9000000059605","1280 x 720","1280 x 720","true","1","10","","","","",""
"null","<p style=""font-size: 80px;"">+ 10 points</p>","null","html-keyboard-response","145","973083","0.0-11.0-2.144","595ceea8dd044900012ce64a","6c4zgt","EW","46","F","{""name"":""Chrome"",""chrome"":true,""version"":""106.0"",""blink"":true,""windows"":true,""osname"":""Windows"",""osversion"":""10"",""a"":true}","10:45:13","1","4","Test_3","74","j","1","805.2999999821186","1280 x 720","1280 x 720","true","1","10","","","","",""
"null","<p style=""font-size: 80px;"">+ 0 points</p>","null","html-keyboard-response","146","975499","0.0-11.0-2.145","595ceea8dd044900012ce64a","6c4zgt","EW","46","F","{""name"":""Chrome"",""chrome"":true,""version"":""106.0"",""blink"":true,""windows"":true,""osname"":""Windows"",""osversion"":""10"",""a"":true}","10:45:13","1","4","Test_4","74","f","0","392.59999999403954","1280 x 720","1280 x 720","true","1","0","","","","",""
"null","<p style=""font-size: 80px;"">+ 10 points</p>","null","html-keyboard-response","147","978305","0.0-11.0-2.146","595ceea8dd044900012ce64a","6c4zgt","EW","46","F","{""name"":""Chrome"",""chrome"":true,""version"":""106.0"",""blink"":true,""windows"":true,""osname"":""Windows"",""osversion"":""10"",""a"":true}","10:45:13","1","4","Test_4","70","f","1","773.2999999821186","1280 x 720","1280 x 720","true","1","10","","","","",""
"null","<p style=""font-size: 80px;"">+ 10 points</p>","null","html-keyboard-response","148","981066","0.0-11.0-2.147","595ceea8dd044900012ce64a","6c4zgt","EW","46","F","{""name"":""Chrome"",""chrome"":true,""version"":""106.0"",""blink"":true,""windows"":true,""osname"":""Windows"",""osversion"":""10"",""a"":true}","10:45:13","1","4","Test_1","74","j","1","747.7999999821186","1280 x 720","1280 x 720","true","1","10","","","","",""
"null","<p style=""font-size: 80px;"">+ 10 points</p>","null","html-keyboard-response","149","983665","0.0-11.0-2.148","595ceea8dd044900012ce64a","6c4zgt","EW","46","F","{""name"":""Chrome"",""chrome"":true,""version"":""106.0"",""blink"":true,""windows"":true,""osname"":""Windows"",""osversion"":""10"",""a"":true}","10:45:13","1","4","Test_4","70","f","1","575.9000000059605","1280 x 720","1280 x 720","true","1","10","","","","",""
"null","<p style=""font-size: 80px;"">+ 10 points</p>","null","html-keyboard-response","150","986360","0.0-11.0-2.149","595ceea8dd044900012ce64a","6c4zgt","EW","46","F","{""name"":""Chrome"",""chrome"":true,""version"":""106.0"",""blink"":true,""windows"":true,""osname"":""Windows"",""osversion"":""10"",""a"":true}","10:45:13","1","4","Test_4","70","f","1","687.8000000119209","1280 x 720","1280 x 720","true","1","10","","","","",""
"null","<p style=""font-size: 80px;"">+ 0 points</p>","null","html-keyboard-response","151","988780","0.0-11.0-2.150","595ceea8dd044900012ce64a","6c4zgt","EW","46","F","{""name"":""Chrome"",""chrome"":true,""version"":""106.0"",""blink"":true,""windows"":true,""osname"":""Windows"",""osversion"":""10"",""a"":true}","10:45:13","1","4","Test_2","74","f","0","400.90000000596046","1280 x 720","1280 x 720","true","1","0","","","","",""
"null","<p style=""font-size: 80px;"">+ 10 points</p>","null","html-keyboard-response","152","991868","0.0-11.0-2.151","595ceea8dd044900012ce64a","6c4zgt","EW","46","F","{""name"":""Chrome"",""chrome"":true,""version"":""106.0"",""blink"":true,""windows"":true,""osname"":""Windows"",""osversion"":""10"",""a"":true}","10:45:13","1","4","Test_4","70","f","1","1066.6000000238419","1280 x 720","1280 x 720","true","1","10","","","","",""
"null","<p style=""font-size: 80px;"">+ 10 points</p>","null","html-keyboard-response","153","995208","0.0-11.0-2.152","595ceea8dd044900012ce64a","6c4zgt","EW","46","F","{""name"":""Chrome"",""chrome"":true,""version"":""106.0"",""blink"":true,""windows"":true,""osname"":""Windows"",""osversion"":""10"",""a"":true}","10:45:13","1","4","Test_1","74","j","1","1319.2000000178814","1280 x 720","1280 x 720","true","1","10","","","","",""
"null","<p style=""font-size: 80px;"">+ 0 points</p>","null","html-keyboard-response","154","997951","0.0-11.0-2.153","595ceea8dd044900012ce64a","6c4zgt","EW","46","F","{""name"":""Chrome"",""chrome"":true,""version"":""106.0"",""blink"":true,""windows"":true,""osname"":""Windows"",""osversion"":""10"",""a"":true}","10:45:13","1","4","Test_4","74","f","0","715.8000000119209","1280 x 720","1280 x 720","true","1","0","","","","",""
"null","<p style=""font-size: 80px;"">+ 10 points</p>","null","html-keyboard-response","155","1000724","0.0-11.0-2.154","595ceea8dd044900012ce64a","6c4zgt","EW","46","F","{""name"":""Chrome"",""chrome"":true,""version"":""106.0"",""blink"":true,""windows"":true,""osname"":""Windows"",""osversion"":""10"",""a"":true}","10:45:13","1","4","Test_1","74","j","1","752.5999999940395","1280 x 720","1280 x 720","true","1","10","","","","",""
"null","<p style=""font-size: 80px;"">+ 10 points</p>","null","html-keyboard-response","156","1003236","0.0-11.0-2.155","595ceea8dd044900012ce64a","6c4zgt","EW","46","F","{""name"":""Chrome"",""chrome"":true,""version"":""106.0"",""blink"":true,""windows"":true,""osname"":""Windows"",""osversion"":""10"",""a"":true}","10:45:13","1","4","Test_2","70","f","1","506.90000000596046","1280 x 720","1280 x 720","true","1","10","","","","",""
"null","<p style=""font-size: 80px;"">+ 10 points</p>","null","html-keyboard-response","157","1005670","0.0-11.0-2.156","595ceea8dd044900012ce64a","6c4zgt","EW","46","F","{""name"":""Chrome"",""chrome"":true,""version"":""106.0"",""blink"":true,""windows"":true,""osname"":""Windows"",""osversion"":""10"",""a"":true}","10:45:13","1","4","Test_2","70","f","1","404.69999998807907","1280 x 720","1280 x 720","true","1","10","","","","",""
"null","<p style=""font-size: 80px;"">+ 10 points</p>","null","html-keyboard-response","158","1008221","0.0-11.0-2.157","595ceea8dd044900012ce64a","6c4zgt","EW","46","F","{""name"":""Chrome"",""chrome"":true,""version"":""106.0"",""blink"":true,""windows"":true,""osname"":""Windows"",""osversion"":""10"",""a"":true}","10:45:13","1","4","Test_3","74","j","1","524.2999999821186","1280 x 720","1280 x 720","true","1","10","","","","",""
"null","<p style=""font-size: 80px;"">+ 0 points</p>","null","html-keyboard-response","159","1010713","0.0-11.0-2.158","595ceea8dd044900012ce64a","6c4zgt","EW","46","F","{""name"":""Chrome"",""chrome"":true,""version"":""106.0"",""blink"":true,""windows"":true,""osname"":""Windows"",""osversion"":""10"",""a"":true}","10:45:13","1","3","Test_2","70","j","0","468.80000001192093","1280 x 720","1280 x 720","true","1","0","","","","",""
"null","<p style=""font-size: 80px;"">+ 10 points</p>","null","html-keyboard-response","160","1013468","0.0-11.0-2.159","595ceea8dd044900012ce64a","6c4zgt","EW","46","F","{""name"":""Chrome"",""chrome"":true,""version"":""106.0"",""blink"":true,""windows"":true,""osname"":""Windows"",""osversion"":""10"",""a"":true}","10:45:13","1","3","Test_4","74","j","1","738.5","1280 x 720","1280 x 720","true","1","10","","","","",""
"null","<p style=""font-size: 80px;"">+ 10 points</p>","null","html-keyboard-response","161","1016125","0.0-11.0-2.160","595ceea8dd044900012ce64a","6c4zgt","EW","46","F","{""name"":""Chrome"",""chrome"":true,""version"":""106.0"",""blink"":true,""windows"":true,""osname"":""Windows"",""osversion"":""10"",""a"":true}","10:45:13","1","3","Test_3","70","f","1","630.8000000119209","1280 x 720","1280 x 720","true","1","10","","","","",""
"null","<p style=""font-size: 80px;"">+ 10 points</p>","null","html-keyboard-response","162","1018654","0.0-11.0-2.161","595ceea8dd044900012ce64a","6c4zgt","EW","46","F","{""name"":""Chrome"",""chrome"":true,""version"":""106.0"",""blink"":true,""windows"":true,""osname"":""Windows"",""osversion"":""10"",""a"":true}","10:45:13","1","3","Test_3","70","f","1","507.2999999821186","1280 x 720","1280 x 720","true","1","10","","","","",""
"null","<p style=""font-size: 80px;"">+ 10 points</p>","null","html-keyboard-response","163","1021270","0.0-11.0-2.162","595ceea8dd044900012ce64a","6c4zgt","EW","46","F","{""name"":""Chrome"",""chrome"":true,""version"":""106.0"",""blink"":true,""windows"":true,""osname"":""Windows"",""osversion"":""10"",""a"":true}","10:45:13","1","3","Test_2","74","j","1","581.1000000238419","1280 x 720","1280 x 720","true","1","10","","","","",""
"null","<p style=""font-size: 80px;"">+ 10 points</p>","null","html-keyboard-response","164","1023701","0.0-11.0-2.163","595ceea8dd044900012ce64a","6c4zgt","EW","46","F","{""name"":""Chrome"",""chrome"":true,""version"":""106.0"",""blink"":true,""windows"":true,""osname"":""Windows"",""osversion"":""10"",""a"":true}","10:45:13","1","3","Test_2","74","j","1","416.69999998807907","1280 x 720","1280 x 720","true","1","10","","","","",""
"null","<p style=""font-size: 80px;"">+ 10 points</p>","null","html-keyboard-response","165","1026263","0.0-11.0-2.164","595ceea8dd044900012ce64a","6c4zgt","EW","46","F","{""name"":""Chrome"",""chrome"":true,""version"":""106.0"",""blink"":true,""windows"":true,""osname"":""Windows"",""osversion"":""10"",""a"":true}","10:45:13","1","3","Test_4","74","j","1","544.9000000059605","1280 x 720","1280 x 720","true","1","10","","","","",""
"null","<p style=""font-size: 80px;"">+ 0 points</p>","null","html-keyboard-response","166","1028773","0.0-11.0-2.165","595ceea8dd044900012ce64a","6c4zgt","EW","46","F","{""name"":""Chrome"",""chrome"":true,""version"":""106.0"",""blink"":true,""windows"":true,""osname"":""Windows"",""osversion"":""10"",""a"":true}","10:45:13","1","3","Test_1","74","f","0","503.7000000178814","1280 x 720","1280 x 720","true","1","0","","","","",""
"null","<p style=""font-size: 80px;"">+ 10 points</p>","null","html-keyboard-response","167","1031358","0.0-11.0-2.166","595ceea8dd044900012ce64a","6c4zgt","EW","46","F","{""name"":""Chrome"",""chrome"":true,""version"":""106.0"",""blink"":true,""windows"":true,""osname"":""Windows"",""osversion"":""10"",""a"":true}","10:45:13","1","3","Test_1","70","f","1","573","1280 x 720","1280 x 720","true","1","10","","","","",""
"null","<p style=""font-size: 80px;"">+ 10 points</p>","null","html-keyboard-response","168","1033756","0.0-11.0-2.167","595ceea8dd044900012ce64a","6c4zgt","EW","46","F","{""name"":""Chrome"",""chrome"":true,""version"":""106.0"",""blink"":true,""windows"":true,""osname"":""Windows"",""osversion"":""10"",""a"":true}","10:45:13","1","3","Test_1","70","f","1","370.40000000596046","1280 x 720","1280 x 720","true","1","10","","","","",""
"null","<p style=""font-size: 80px;"">+ 10 points</p>","null","html-keyboard-response","169","1036416","0.0-11.0-2.168","595ceea8dd044900012ce64a","6c4zgt","EW","46","F","{""name"":""Chrome"",""chrome"":true,""version"":""106.0"",""blink"":true,""windows"":true,""osname"":""Windows"",""osversion"":""10"",""a"":true}","10:45:13","1","3","Test_3","70","f","1","629.7999999821186","1280 x 720","1280 x 720","true","1","10","","","","",""
"null","<p style=""font-size: 80px;"">+ 10 points</p>","null","html-keyboard-response","170","1039062","0.0-11.0-2.169","595ceea8dd044900012ce64a","6c4zgt","EW","46","F","{""name"":""Chrome"",""chrome"":true,""version"":""106.0"",""blink"":true,""windows"":true,""osname"":""Windows"",""osversion"":""10"",""a"":true}","10:45:13","1","3","Test_4","74","j","1","616.7999999821186","1280 x 720","1280 x 720","true","1","10","","","","",""
"null","<p style=""font-size: 80px;"">+ 10 points</p>","null","html-keyboard-response","171","1041566","0.0-11.0-2.170","595ceea8dd044900012ce64a","6c4zgt","EW","46","F","{""name"":""Chrome"",""chrome"":true,""version"":""106.0"",""blink"":true,""windows"":true,""osname"":""Windows"",""osversion"":""10"",""a"":true}","10:45:13","1","3","Test_1","70","f","1","472.7000000178814","1280 x 720","1280 x 720","true","1","10","","","","",""
"null","<p style=""font-size: 80px;"">+ 10 points</p>","null","html-keyboard-response","172","1044153","0.0-11.0-2.171","595ceea8dd044900012ce64a","6c4zgt","EW","46","F","{""name"":""Chrome"",""chrome"":true,""version"":""106.0"",""blink"":true,""windows"":true,""osname"":""Windows"",""osversion"":""10"",""a"":true}","10:45:13","1","3","Test_2","74","j","1","564.5","1280 x 720","1280 x 720","true","1","10","","","","",""
"null","<p style=""font-size: 80px;"">+ 10 points</p>","null","html-keyboard-response","173","1046809","0.0-11.0-2.172","595ceea8dd044900012ce64a","6c4zgt","EW","46","F","{""name"":""Chrome"",""chrome"":true,""version"":""106.0"",""blink"":true,""windows"":true,""osname"":""Windows"",""osversion"":""10"",""a"":true}","10:45:13","1","3","Test_4","74","j","1","632.0999999940395","1280 x 720","1280 x 720","true","1","10","","","","",""
"null","<p style=""font-size: 80px;"">+ 10 points</p>","null","html-keyboard-response","174","1049709","0.0-11.0-2.173","595ceea8dd044900012ce64a","6c4zgt","EW","46","F","{""name"":""Chrome"",""chrome"":true,""version"":""106.0"",""blink"":true,""windows"":true,""osname"":""Windows"",""osversion"":""10"",""a"":true}","10:45:13","1","3","Test_3","70","f","1","875.3000000119209","1280 x 720","1280 x 720","true","1","10","","","","",""
"null","<p style=""font-size: 80px;"">+ 10 points</p>","null","html-keyboard-response","175","1052341","0.0-11.0-2.174","595ceea8dd044900012ce64a","6c4zgt","EW","46","F","{""name"":""Chrome"",""chrome"":true,""version"":""106.0"",""blink"":true,""windows"":true,""osname"":""Windows"",""osversion"":""10"",""a"":true}","10:45:13","1","3","Test_3","70","f","1","615.2000000178814","1280 x 720","1280 x 720","true","1","10","","","","",""
"null","<p style=""font-size: 80px;"">+ 0 points</p>","null","html-keyboard-response","176","1054753","0.0-11.0-2.175","595ceea8dd044900012ce64a","6c4zgt","EW","46","F","{""name"":""Chrome"",""chrome"":true,""version"":""106.0"",""blink"":true,""windows"":true,""osname"":""Windows"",""osversion"":""10"",""a"":true}","10:45:13","1","3","Test_1","74","f","0","394.40000000596046","1280 x 720","1280 x 720","true","1","0","","","","",""
"null","<p style=""font-size: 80px;"">+ 0 points</p>","null","html-keyboard-response","177","1057714","0.0-11.0-2.176","595ceea8dd044900012ce64a","6c4zgt","EW","46","F","{""name"":""Chrome"",""chrome"":true,""version"":""106.0"",""blink"":true,""windows"":true,""osname"":""Windows"",""osversion"":""10"",""a"":true}","10:45:13","1","4","Test_4","74","f","0","945.4000000059605","1280 x 720","1280 x 720","true","1","0","","","","",""
"null","<p style=""font-size: 80px;"">+ 10 points</p>","null","html-keyboard-response","178","1060763","0.0-11.0-2.177","595ceea8dd044900012ce64a","6c4zgt","EW","46","F","{""name"":""Chrome"",""chrome"":true,""version"":""106.0"",""blink"":true,""windows"":true,""osname"":""Windows"",""osversion"":""10"",""a"":true}","10:45:13","1","4","Test_2","70","f","1","1037.5","1280 x 720","1280 x 720","true","1","10","","","","",""
"null","<p style=""font-size: 80px;"">+ 10 points</p>","null","html-keyboard-response","179","1063411","0.0-11.0-2.178","595ceea8dd044900012ce64a","6c4zgt","EW","46","F","{""name"":""Chrome"",""chrome"":true,""version"":""106.0"",""blink"":true,""windows"":true,""osname"":""Windows"",""osversion"":""10"",""a"":true}","10:45:13","1","4","Test_3","74","j","1","632.1999999880791","1280 x 720","1280 x 720","true","1","10","","","","",""
"null","<p style=""font-size: 80px;"">+ 10 points</p>","null","html-keyboard-response","180","1066248","0.0-11.0-2.179","595ceea8dd044900012ce64a","6c4zgt","EW","46","F","{""name"":""Chrome"",""chrome"":true,""version"":""106.0"",""blink"":true,""windows"":true,""osname"":""Windows"",""osversion"":""10"",""a"":true}","10:45:13","1","4","Test_1","74","j","1","809.1999999880791","1280 x 720","1280 x 720","true","1","10","","","","",""
"null","<p style=""font-size: 80px;"">+ 10 points</p>","null","html-keyboard-response","181","1069407","0.0-11.0-2.180","595ceea8dd044900012ce64a","6c4zgt","EW","46","F","{""name"":""Chrome"",""chrome"":true,""version"":""106.0"",""blink"":true,""windows"":true,""osname"":""Windows"",""osversion"":""10"",""a"":true}","10:45:13","1","4","Test_3","74","j","1","1136.5","1280 x 720","1280 x 720","true","1","10","","","","",""
"null","<p style=""font-size: 80px;"">+ 10 points</p>","null","html-keyboard-response","182","1071936","0.0-11.0-2.181","595ceea8dd044900012ce64a","6c4zgt","EW","46","F","{""name"":""Chrome"",""chrome"":true,""version"":""106.0"",""blink"":true,""windows"":true,""osname"":""Windows"",""osversion"":""10"",""a"":true}","10:45:13","1","4","Test_2","70","f","1","502.40000000596046","1280 x 720","1280 x 720","true","1","10","","","","",""
"null","<p style=""font-size: 80px;"">+ 0 points</p>","null","html-keyboard-response","183","1074297","0.0-11.0-2.182","595ceea8dd044900012ce64a","6c4zgt","EW","46","F","{""name"":""Chrome"",""chrome"":true,""version"":""106.0"",""blink"":true,""windows"":true,""osname"":""Windows"",""osversion"":""10"",""a"":true}","10:45:13","1","4","Test_1","70","j","0","353.09999999403954","1280 x 720","1280 x 720","true","1","0","","","","",""
"null","<p style=""font-size: 80px;"">+ 10 points</p>","null","html-keyboard-response","184","1077047","0.0-11.0-2.183","595ceea8dd044900012ce64a","6c4zgt","EW","46","F","{""name"":""Chrome"",""chrome"":true,""version"":""106.0"",""blink"":true,""windows"":true,""osname"":""Windows"",""osversion"":""10"",""a"":true}","10:45:13","1","4","Test_4","70","f","1","720.3000000119209","1280 x 720","1280 x 720","true","1","10","","","","",""
"null","<p style=""font-size: 80px;"">+ 10 points</p>","null","html-keyboard-response","185","1079533","0.0-11.0-2.184","595ceea8dd044900012ce64a","6c4zgt","EW","46","F","{""name"":""Chrome"",""chrome"":true,""version"":""106.0"",""blink"":true,""windows"":true,""osname"":""Windows"",""osversion"":""10"",""a"":true}","10:45:13","1","4","Test_4","70","f","1","466.80000001192093","1280 x 720","1280 x 720","true","1","10","","","","",""
"null","<p style=""font-size: 80px;"">+ 10 points</p>","null","html-keyboard-response","186","1082217","0.0-11.0-2.185","595ceea8dd044900012ce64a","6c4zgt","EW","46","F","{""name"":""Chrome"",""chrome"":true,""version"":""106.0"",""blink"":true,""windows"":true,""osname"":""Windows"",""osversion"":""10"",""a"":true}","10:45:13","1","4","Test_3","74","j","1","673.8999999761581","1280 x 720","1280 x 720","true","1","10","","","","",""
"null","<p style=""font-size: 80px;"">+ 10 points</p>","null","html-keyboard-response","187","1084858","0.0-11.0-2.186","595ceea8dd044900012ce64a","6c4zgt","EW","46","F","{""name"":""Chrome"",""chrome"":true,""version"":""106.0"",""blink"":true,""windows"":true,""osname"":""Windows"",""osversion"":""10"",""a"":true}","10:45:13","1","4","Test_2","70","f","1","613.0999999940395","1280 x 720","1280 x 720","true","1","10","","","","",""
"null","<p style=""font-size: 80px;"">+ 10 points</p>","null","html-keyboard-response","188","1087277","0.0-11.0-2.187","595ceea8dd044900012ce64a","6c4zgt","EW","46","F","{""name"":""Chrome"",""chrome"":true,""version"":""106.0"",""blink"":true,""windows"":true,""osname"":""Windows"",""osversion"":""10"",""a"":true}","10:45:13","1","4","Test_2","70","f","1","396.69999998807907","1280 x 720","1280 x 720","true","1","10","","","","",""
