"rt","stimulus","key_press","trial_type","trial_index","time_elapsed","internal_node_id","Prolific_ID","random_ID","initials","age","gender","pc_info","start_time","Phase","Rule","Stimulus","Response","CorrResp","Accuracy","ResponseTime","screen_resolution","window_resolution","focus","relevant","Points","responses","question_order","rev_check","butterfly_check","passed_practice"
"null","<p style=""font-size: 80px;"">+ 10 points</p>","null","html-keyboard-response","1","199550","0.0-7.0-2.0","57b4e9d152a08d0001d1b9dc","4q3c9w","BL","66","F","{""name"":""Chrome"",""chrome"":true,""version"":""106.0"",""blink"":true,""windows"":true,""osname"":""Windows"",""osversion"":""7"",""a"":true}","9:21:3","0","1","Practice_1","70","f","1","2618.800000000745","1366 x 768","1366 x 768","true","1","10","","","","",""
"null","<p style=""font-size: 80px;"">+ 10 points</p>","null","html-keyboard-response","2","204473","0.0-7.0-2.1","57b4e9d152a08d0001d1b9dc","4q3c9w","BL","66","F","{""name"":""Chrome"",""chrome"":true,""version"":""106.0"",""blink"":true,""windows"":true,""osname"":""Windows"",""osversion"":""7"",""a"":true}","9:21:3","0","1","Practice_1","70","f","1","2894.600000000559","1366 x 768","1366 x 768","true","1","10","","","","",""
"null","<p style=""font-size: 80px;"">+ 0 points</p>","null","html-keyboard-response","3","209660","0.0-7.0-2.2","57b4e9d152a08d0001d1b9dc","4q3c9w","BL","66","F","{""name"":""Chrome"",""chrome"":true,""version"":""106.0"",""blink"":true,""windows"":true,""osname"":""Windows"",""osversion"":""7"",""a"":true}","9:21:3","0","1","Practice_1","74","f","0","3158.100000000559","1366 x 768","1366 x 768","true","1","0","","","","",""
"null","<p style=""font-size: 80px;"">+ 10 points</p>","null","html-keyboard-response","4","213532","0.0-7.0-2.3","57b4e9d152a08d0001d1b9dc","4q3c9w","BL","66","F","{""name"":""Chrome"",""chrome"":true,""version"":""106.0"",""blink"":true,""windows"":true,""osname"":""Windows"",""osversion"":""7"",""a"":true}","9:21:3","0","1","Practice_2","74","j","1","1840.2000000001863","1366 x 768","1366 x 768","true","1","10","","","","",""
"null","<p style=""font-size: 80px;"">+ 10 points</p>","null","html-keyboard-response","5","216909","0.0-7.0-2.4","57b4e9d152a08d0001d1b9dc","4q3c9w","BL","66","F","{""name"":""Chrome"",""chrome"":true,""version"":""106.0"",""blink"":true,""windows"":true,""osname"":""Windows"",""osversion"":""7"",""a"":true}","9:21:3","0","1","Practice_2","74","j","1","1358","1366 x 768","1366 x 768","true","1","10","","","","",""
"null","<p style=""font-size: 80px;"">+ 10 points</p>","null","html-keyboard-response","6","221964","0.0-7.0-2.5","57b4e9d152a08d0001d1b9dc","4q3c9w","BL","66","F","{""name"":""Chrome"",""chrome"":true,""version"":""106.0"",""blink"":true,""windows"":true,""osname"":""Windows"",""osversion"":""7"",""a"":true}","9:21:3","0","1","Practice_3","70","f","1","3022.899999999441","1366 x 768","1366 x 768","true","1","10","","","","",""
"null","<p style=""font-size: 80px;"">+ 10 points</p>","null","html-keyboard-response","7","225226","0.0-7.0-2.6","57b4e9d152a08d0001d1b9dc","4q3c9w","BL","66","F","{""name"":""Chrome"",""chrome"":true,""version"":""106.0"",""blink"":true,""windows"":true,""osname"":""Windows"",""osversion"":""7"",""a"":true}","9:21:3","0","1","Practice_3","70","f","1","1233.7000000001863","1366 x 768","1366 x 768","true","1","10","","","","",""
"null","<p style=""font-size: 80px;"">+ 10 points</p>","null","html-keyboard-response","8","228464","0.0-7.0-2.7","57b4e9d152a08d0001d1b9dc","4q3c9w","BL","66","F","{""name"":""Chrome"",""chrome"":true,""version"":""106.0"",""blink"":true,""windows"":true,""osname"":""Windows"",""osversion"":""7"",""a"":true}","9:21:3","0","1","Practice_3","70","f","1","1203.5","1366 x 768","1366 x 768","true","1","10","","","","",""
"null","<p style=""font-size: 80px;"">+ 0 points</p>","null","html-keyboard-response","9","232114","0.0-7.0-2.8","57b4e9d152a08d0001d1b9dc","4q3c9w","BL","66","F","{""name"":""Chrome"",""chrome"":true,""version"":""106.0"",""blink"":true,""windows"":true,""osname"":""Windows"",""osversion"":""7"",""a"":true}","9:21:3","0","1","Practice_3","74","f","0","1623.7000000001863","1366 x 768","1366 x 768","true","1","0","","","","",""
"null","<p style=""font-size: 80px;"">+ 10 points</p>","null","html-keyboard-response","10","236616","0.0-7.0-2.9","57b4e9d152a08d0001d1b9dc","4q3c9w","BL","66","F","{""name"":""Chrome"",""chrome"":true,""version"":""106.0"",""blink"":true,""windows"":true,""osname"":""Windows"",""osversion"":""7"",""a"":true}","9:21:3","0","1","Practice_4","74","j","1","2471.2000000001863","1366 x 768","1366 x 768","true","1","10","","","","",""
"null","<p style=""font-size: 80px;"">+ 10 points</p>","null","html-keyboard-response","11","240317","0.0-7.0-2.10","57b4e9d152a08d0001d1b9dc","4q3c9w","BL","66","F","{""name"":""Chrome"",""chrome"":true,""version"":""106.0"",""blink"":true,""windows"":true,""osname"":""Windows"",""osversion"":""7"",""a"":true}","9:21:3","0","1","Practice_2","74","j","1","1665","1366 x 768","1366 x 768","true","1","10","","","","",""
"null","<p style=""font-size: 80px;"">+ 10 points</p>","null","html-keyboard-response","12","244816","0.0-7.0-2.11","57b4e9d152a08d0001d1b9dc","4q3c9w","BL","66","F","{""name"":""Chrome"",""chrome"":true,""version"":""106.0"",""blink"":true,""windows"":true,""osname"":""Windows"",""osversion"":""7"",""a"":true}","9:21:3","0","1","Practice_1","70","f","1","2466.9000000003725","1366 x 768","1366 x 768","true","1","10","","","","",""
"null","<p style=""font-size: 80px;"">+ 10 points</p>","null","html-keyboard-response","13","248752","0.0-7.0-2.12","57b4e9d152a08d0001d1b9dc","4q3c9w","BL","66","F","{""name"":""Chrome"",""chrome"":true,""version"":""106.0"",""blink"":true,""windows"":true,""osname"":""Windows"",""osversion"":""7"",""a"":true}","9:21:3","0","1","Practice_4","74","j","1","1902.8999999994412","1366 x 768","1366 x 768","true","1","10","","","","",""
"null","<p style=""font-size: 80px;"">+ 10 points</p>","null","html-keyboard-response","14","252118","0.0-7.0-2.13","57b4e9d152a08d0001d1b9dc","4q3c9w","BL","66","F","{""name"":""Chrome"",""chrome"":true,""version"":""106.0"",""blink"":true,""windows"":true,""osname"":""Windows"",""osversion"":""7"",""a"":true}","9:21:3","0","1","Practice_2","74","j","1","1332.2000000001863","1366 x 768","1366 x 768","true","1","10","","","","",""
"null","<p style=""font-size: 80px;"">+ 0 points</p>","null","html-keyboard-response","15","256534","0.0-7.0-2.14","57b4e9d152a08d0001d1b9dc","4q3c9w","BL","66","F","{""name"":""Chrome"",""chrome"":true,""version"":""106.0"",""blink"":true,""windows"":true,""osname"":""Windows"",""osversion"":""7"",""a"":true}","9:21:3","0","1","Practice_4","70","j","0","2379.9000000003725","1366 x 768","1366 x 768","true","1","0","","","","",""
"null","<p style=""font-size: 80px;"">+ 10 points</p>","null","html-keyboard-response","16","260103","0.0-7.0-2.15","57b4e9d152a08d0001d1b9dc","4q3c9w","BL","66","F","{""name"":""Chrome"",""chrome"":true,""version"":""106.0"",""blink"":true,""windows"":true,""osname"":""Windows"",""osversion"":""7"",""a"":true}","9:21:3","0","1","Practice_3","70","f","1","1542.1000000005588","1366 x 768","1366 x 768","true","1","10","","","","",""
"null","<p style=""font-size: 80px;"">+ 10 points</p>","null","html-keyboard-response","17","263668","0.0-7.0-2.16","57b4e9d152a08d0001d1b9dc","4q3c9w","BL","66","F","{""name"":""Chrome"",""chrome"":true,""version"":""106.0"",""blink"":true,""windows"":true,""osname"":""Windows"",""osversion"":""7"",""a"":true}","9:21:3","0","1","Practice_4","74","j","1","1525.8999999994412","1366 x 768","1366 x 768","true","1","10","","","","",""
"null","<p style=""font-size: 80px;"">+ 10 points</p>","null","html-keyboard-response","18","266652","0.0-7.0-2.17","57b4e9d152a08d0001d1b9dc","4q3c9w","BL","66","F","{""name"":""Chrome"",""chrome"":true,""version"":""106.0"",""blink"":true,""windows"":true,""osname"":""Windows"",""osversion"":""7"",""a"":true}","9:21:3","0","1","Practice_2","74","j","1","947","1366 x 768","1366 x 768","true","1","10","","","","",""
"null","<p style=""font-size: 80px;"">+ 10 points</p>","null","html-keyboard-response","19","270256","0.0-7.0-2.18","57b4e9d152a08d0001d1b9dc","4q3c9w","BL","66","F","{""name"":""Chrome"",""chrome"":true,""version"":""106.0"",""blink"":true,""windows"":true,""osname"":""Windows"",""osversion"":""7"",""a"":true}","9:21:3","0","1","Practice_4","74","j","1","1574.5","1366 x 768","1366 x 768","true","1","10","","","","",""
"null","<p style=""font-size: 80px;"">+ 10 points</p>","null","html-keyboard-response","20","273446","0.0-7.0-2.19","57b4e9d152a08d0001d1b9dc","4q3c9w","BL","66","F","{""name"":""Chrome"",""chrome"":true,""version"":""106.0"",""blink"":true,""windows"":true,""osname"":""Windows"",""osversion"":""7"",""a"":true}","9:21:3","0","1","Practice_1","70","f","1","1164.199999999255","1366 x 768","1366 x 768","true","1","10","","","","",""
"null","<p style=""font-size: 80px;"">+ 0 points</p>","null","html-keyboard-response","21","276454","0.0-7.0-2.20","57b4e9d152a08d0001d1b9dc","4q3c9w","BL","66","F","{""name"":""Chrome"",""chrome"":true,""version"":""106.0"",""blink"":true,""windows"":true,""osname"":""Windows"",""osversion"":""7"",""a"":true}","9:21:3","0","2","Practice_4","74","f","0","987.2999999998137","1366 x 768","1366 x 768","true","1","0","","","","",""
"null","<p style=""font-size: 80px;"">+ 0 points</p>","null","html-keyboard-response","22","279672","0.0-7.0-2.21","57b4e9d152a08d0001d1b9dc","4q3c9w","BL","66","F","{""name"":""Chrome"",""chrome"":true,""version"":""106.0"",""blink"":true,""windows"":true,""osname"":""Windows"",""osversion"":""7"",""a"":true}","9:21:3","0","2","Practice_3","70","j","0","1186.6000000005588","1366 x 768","1366 x 768","true","1","0","","","","",""
"null","<p style=""font-size: 80px;"">+ 0 points</p>","null","html-keyboard-response","23","283172","0.0-7.0-2.22","57b4e9d152a08d0001d1b9dc","4q3c9w","BL","66","F","{""name"":""Chrome"",""chrome"":true,""version"":""106.0"",""blink"":true,""windows"":true,""osname"":""Windows"",""osversion"":""7"",""a"":true}","9:21:3","0","2","Practice_4","74","f","0","1475","1366 x 768","1366 x 768","true","1","0","","","","",""
"null","<p style=""font-size: 80px;"">+ 10 points</p>","null","html-keyboard-response","24","287007","0.0-7.0-2.23","57b4e9d152a08d0001d1b9dc","4q3c9w","BL","66","F","{""name"":""Chrome"",""chrome"":true,""version"":""106.0"",""blink"":true,""windows"":true,""osname"":""Windows"",""osversion"":""7"",""a"":true}","9:21:3","0","2","Practice_1","74","j","1","1803.7000000001863","1366 x 768","1366 x 768","true","1","10","","","","",""
"null","<p style=""font-size: 80px;"">+ 10 points</p>","null","html-keyboard-response","25","291357","0.0-7.0-2.24","57b4e9d152a08d0001d1b9dc","4q3c9w","BL","66","F","{""name"":""Chrome"",""chrome"":true,""version"":""106.0"",""blink"":true,""windows"":true,""osname"":""Windows"",""osversion"":""7"",""a"":true}","9:21:3","0","2","Practice_4","70","f","1","2311.2000000001863","1366 x 768","1366 x 768","true","1","10","","","","",""
"null","<p style=""font-size: 80px;"">+ 0 points</p>","null","html-keyboard-response","26","294691","0.0-7.0-2.25","57b4e9d152a08d0001d1b9dc","4q3c9w","BL","66","F","{""name"":""Chrome"",""chrome"":true,""version"":""106.0"",""blink"":true,""windows"":true,""osname"":""Windows"",""osversion"":""7"",""a"":true}","9:21:3","0","2","Practice_2","74","f","0","1301.7999999998137","1366 x 768","1366 x 768","true","1","0","","","","",""
"null","<p style=""font-size: 80px;"">+ 0 points</p>","null","html-keyboard-response","27","299342","0.0-7.0-2.26","57b4e9d152a08d0001d1b9dc","4q3c9w","BL","66","F","{""name"":""Chrome"",""chrome"":true,""version"":""106.0"",""blink"":true,""windows"":true,""osname"":""Windows"",""osversion"":""7"",""a"":true}","9:21:3","0","2","Practice_1","70","j","0","2617.7000000001863","1366 x 768","1366 x 768","true","1","0","","","","",""
"null","<p style=""font-size: 80px;"">+ 0 points</p>","null","html-keyboard-response","28","302592","0.0-7.0-2.27","57b4e9d152a08d0001d1b9dc","4q3c9w","BL","66","F","{""name"":""Chrome"",""chrome"":true,""version"":""106.0"",""blink"":true,""windows"":true,""osname"":""Windows"",""osversion"":""7"",""a"":true}","9:21:3","0","2","Practice_2","74","f","0","1211","1366 x 768","1366 x 768","true","1","0","","","","",""
"null","<p style=""font-size: 80px;"">+ 0 points</p>","null","html-keyboard-response","29","305826","0.0-7.0-2.28","57b4e9d152a08d0001d1b9dc","4q3c9w","BL","66","F","{""name"":""Chrome"",""chrome"":true,""version"":""106.0"",""blink"":true,""windows"":true,""osname"":""Windows"",""osversion"":""7"",""a"":true}","9:21:3","0","2","Practice_3","70","j","0","1200.3999999994412","1366 x 768","1366 x 768","true","1","0","","","","",""
"null","<p style=""font-size: 80px;"">+ 10 points</p>","null","html-keyboard-response","30","309845","0.0-7.0-2.29","57b4e9d152a08d0001d1b9dc","4q3c9w","BL","66","F","{""name"":""Chrome"",""chrome"":true,""version"":""106.0"",""blink"":true,""windows"":true,""osname"":""Windows"",""osversion"":""7"",""a"":true}","9:21:3","0","2","Practice_1","74","j","1","1992.7999999998137","1366 x 768","1366 x 768","true","1","10","","","","",""
"null","<p style=""font-size: 80px;"">+ 10 points</p>","null","html-keyboard-response","31","313094","0.0-7.0-2.30","57b4e9d152a08d0001d1b9dc","4q3c9w","BL","66","F","{""name"":""Chrome"",""chrome"":true,""version"":""106.0"",""blink"":true,""windows"":true,""osname"":""Windows"",""osversion"":""7"",""a"":true}","9:21:3","0","2","Practice_4","70","f","1","1221.7000000001863","1366 x 768","1366 x 768","true","1","10","","","","",""
"null","<p style=""font-size: 80px;"">+ 10 points</p>","null","html-keyboard-response","32","316295","0.0-7.0-2.31","57b4e9d152a08d0001d1b9dc","4q3c9w","BL","66","F","{""name"":""Chrome"",""chrome"":true,""version"":""106.0"",""blink"":true,""windows"":true,""osname"":""Windows"",""osversion"":""7"",""a"":true}","9:21:3","0","2","Practice_1","74","j","1","1185.2000000001863","1366 x 768","1366 x 768","true","1","10","","","","",""
"null","<p style=""font-size: 80px;"">+ 0 points</p>","null","html-keyboard-response","33","319663","0.0-7.0-2.32","57b4e9d152a08d0001d1b9dc","4q3c9w","BL","66","F","{""name"":""Chrome"",""chrome"":true,""version"":""106.0"",""blink"":true,""windows"":true,""osname"":""Windows"",""osversion"":""7"",""a"":true}","9:21:3","0","2","Practice_3","70","j","0","1342.5","1366 x 768","1366 x 768","true","1","0","","","","",""
"null","<p style=""font-size: 80px;"">+ 10 points</p>","null","html-keyboard-response","34","322979","0.0-7.0-2.33","57b4e9d152a08d0001d1b9dc","4q3c9w","BL","66","F","{""name"":""Chrome"",""chrome"":true,""version"":""106.0"",""blink"":true,""windows"":true,""osname"":""Windows"",""osversion"":""7"",""a"":true}","9:21:3","0","2","Practice_1","74","j","1","1286.3999999994412","1366 x 768","1366 x 768","true","1","10","","","","",""
"null","<p style=""font-size: 80px;"">+ 10 points</p>","null","html-keyboard-response","35","326230","0.0-7.0-2.34","57b4e9d152a08d0001d1b9dc","4q3c9w","BL","66","F","{""name"":""Chrome"",""chrome"":true,""version"":""106.0"",""blink"":true,""windows"":true,""osname"":""Windows"",""osversion"":""7"",""a"":true}","9:21:3","0","2","Practice_4","70","f","1","1221.9000000003725","1366 x 768","1366 x 768","true","1","10","","","","",""
"null","<p style=""font-size: 80px;"">+ 0 points</p>","null","html-keyboard-response","36","329715","0.0-7.0-2.35","57b4e9d152a08d0001d1b9dc","4q3c9w","BL","66","F","{""name"":""Chrome"",""chrome"":true,""version"":""106.0"",""blink"":true,""windows"":true,""osname"":""Windows"",""osversion"":""7"",""a"":true}","9:21:3","0","2","Practice_3","70","j","0","1451","1366 x 768","1366 x 768","true","1","0","","","","",""
"null","<p style=""font-size: 80px;"">+ 0 points</p>","null","html-keyboard-response","37","333049","0.0-7.0-2.36","57b4e9d152a08d0001d1b9dc","4q3c9w","BL","66","F","{""name"":""Chrome"",""chrome"":true,""version"":""106.0"",""blink"":true,""windows"":true,""osname"":""Windows"",""osversion"":""7"",""a"":true}","9:21:3","0","2","Practice_2","74","f","0","1297.7999999998137","1366 x 768","1366 x 768","true","1","0","","","","",""
"null","<p style=""font-size: 80px;"">+ 0 points</p>","null","html-keyboard-response","38","336631","0.0-7.0-2.37","57b4e9d152a08d0001d1b9dc","4q3c9w","BL","66","F","{""name"":""Chrome"",""chrome"":true,""version"":""106.0"",""blink"":true,""windows"":true,""osname"":""Windows"",""osversion"":""7"",""a"":true}","9:21:3","0","2","Practice_2","74","f","0","1547.2000000001863","1366 x 768","1366 x 768","true","1","0","","","","",""
"null","<p style=""font-size: 80px;"">+ 0 points</p>","null","html-keyboard-response","39","339882","0.0-7.0-2.38","57b4e9d152a08d0001d1b9dc","4q3c9w","BL","66","F","{""name"":""Chrome"",""chrome"":true,""version"":""106.0"",""blink"":true,""windows"":true,""osname"":""Windows"",""osversion"":""7"",""a"":true}","9:21:3","0","2","Practice_3","70","j","0","1218.2999999998137","1366 x 768","1366 x 768","true","1","0","","","","",""
"null","<p style=""font-size: 80px;"">+ 0 points</p>","null","html-keyboard-response","40","343200","0.0-7.0-2.39","57b4e9d152a08d0001d1b9dc","4q3c9w","BL","66","F","{""name"":""Chrome"",""chrome"":true,""version"":""106.0"",""blink"":true,""windows"":true,""osname"":""Windows"",""osversion"":""7"",""a"":true}","9:21:3","0","2","Practice_2","74","f","0","1289.7999999998137","1366 x 768","1366 x 768","true","1","0","","","","",""
"35804.90000000037","","","survey-multi-choice","127","379013","0.0-8.0","57b4e9d152a08d0001d1b9dc","4q3c9w","BL","66","F","{""name"":""Chrome"",""chrome"":true,""version"":""106.0"",""blink"":true,""windows"":true,""osname"":""Windows"",""osversion"":""7"",""a"":true}","9:21:3","","","","","","","","","","","1","","{""Q0"":""The green one"",""Q1"":""5""}","[0,1]","5","The green one","0"
"null","<p style=""font-size: 80px;"">+ 10 points</p>","null","html-keyboard-response","1","409011","0.0-9.0-1.0-2.0","57b4e9d152a08d0001d1b9dc","4q3c9w","BL","66","F","{""name"":""Chrome"",""chrome"":true,""version"":""106.0"",""blink"":true,""windows"":true,""osname"":""Windows"",""osversion"":""7"",""a"":true}","9:21:3","0","1","Practice_1","70","f","1","2029.8999999994412","1366 x 768","1366 x 768","true","1","10","","","","",""
"null","<p style=""font-size: 80px;"">+ 10 points</p>","null","html-keyboard-response","2","412945","0.0-9.0-1.0-2.1","57b4e9d152a08d0001d1b9dc","4q3c9w","BL","66","F","{""name"":""Chrome"",""chrome"":true,""version"":""106.0"",""blink"":true,""windows"":true,""osname"":""Windows"",""osversion"":""7"",""a"":true}","9:21:3","0","1","Practice_1","70","f","1","1899.6000000005588","1366 x 768","1366 x 768","true","1","10","","","","",""
"null","<p style=""font-size: 80px;"">+ 10 points</p>","null","html-keyboard-response","3","416313","0.0-9.0-1.0-2.2","57b4e9d152a08d0001d1b9dc","4q3c9w","BL","66","F","{""name"":""Chrome"",""chrome"":true,""version"":""106.0"",""blink"":true,""windows"":true,""osname"":""Windows"",""osversion"":""7"",""a"":true}","9:21:3","0","1","Practice_1","70","f","1","1336.8999999994412","1366 x 768","1366 x 768","true","1","10","","","","",""
"null","<p style=""font-size: 80px;"">+ 10 points</p>","null","html-keyboard-response","4","419963","0.0-9.0-1.0-2.3","57b4e9d152a08d0001d1b9dc","4q3c9w","BL","66","F","{""name"":""Chrome"",""chrome"":true,""version"":""106.0"",""blink"":true,""windows"":true,""osname"":""Windows"",""osversion"":""7"",""a"":true}","9:21:3","0","1","Practice_2","74","j","1","1615.2999999998137","1366 x 768","1366 x 768","true","1","10","","","","",""
"null","<p style=""font-size: 80px;"">+ 10 points</p>","null","html-keyboard-response","5","423147","0.0-9.0-1.0-2.4","57b4e9d152a08d0001d1b9dc","4q3c9w","BL","66","F","{""name"":""Chrome"",""chrome"":true,""version"":""106.0"",""blink"":true,""windows"":true,""osname"":""Windows"",""osversion"":""7"",""a"":true}","9:21:3","0","1","Practice_2","74","j","1","1156.7000000001863","1366 x 768","1366 x 768","true","1","10","","","","",""
"null","<p style=""font-size: 80px;"">+ 10 points</p>","null","html-keyboard-response","6","426565","0.0-9.0-1.0-2.5","57b4e9d152a08d0001d1b9dc","4q3c9w","BL","66","F","{""name"":""Chrome"",""chrome"":true,""version"":""106.0"",""blink"":true,""windows"":true,""osname"":""Windows"",""osversion"":""7"",""a"":true}","9:21:3","0","1","Practice_3","70","f","1","1387.9000000003725","1366 x 768","1366 x 768","true","1","10","","","","",""
"null","<p style=""font-size: 80px;"">+ 10 points</p>","null","html-keyboard-response","7","429783","0.0-9.0-1.0-2.6","57b4e9d152a08d0001d1b9dc","4q3c9w","BL","66","F","{""name"":""Chrome"",""chrome"":true,""version"":""106.0"",""blink"":true,""windows"":true,""osname"":""Windows"",""osversion"":""7"",""a"":true}","9:21:3","0","1","Practice_3","70","f","1","1186.5999999996275","1366 x 768","1366 x 768","true","1","10","","","","",""
"null","<p style=""font-size: 80px;"">+ 10 points</p>","null","html-keyboard-response","8","432817","0.0-9.0-1.0-2.7","57b4e9d152a08d0001d1b9dc","4q3c9w","BL","66","F","{""name"":""Chrome"",""chrome"":true,""version"":""106.0"",""blink"":true,""windows"":true,""osname"":""Windows"",""osversion"":""7"",""a"":true}","9:21:3","0","1","Practice_3","70","f","1","1015.9000000003725","1366 x 768","1366 x 768","true","1","10","","","","",""
"null","<p style=""font-size: 80px;"">+ 10 points</p>","null","html-keyboard-response","9","436234","0.0-9.0-1.0-2.8","57b4e9d152a08d0001d1b9dc","4q3c9w","BL","66","F","{""name"":""Chrome"",""chrome"":true,""version"":""106.0"",""blink"":true,""windows"":true,""osname"":""Windows"",""osversion"":""7"",""a"":true}","9:21:3","0","1","Practice_3","70","f","1","1386.7000000001863","1366 x 768","1366 x 768","true","1","10","","","","",""
"null","<p style=""font-size: 80px;"">+ 10 points</p>","null","html-keyboard-response","10","439968","0.0-9.0-1.0-2.9","57b4e9d152a08d0001d1b9dc","4q3c9w","BL","66","F","{""name"":""Chrome"",""chrome"":true,""version"":""106.0"",""blink"":true,""windows"":true,""osname"":""Windows"",""osversion"":""7"",""a"":true}","9:21:3","0","1","Practice_4","74","j","1","1706","1366 x 768","1366 x 768","true","1","10","","","","",""
"null","<p style=""font-size: 80px;"">+ 10 points</p>","null","html-keyboard-response","11","443837","0.0-9.0-1.0-2.10","57b4e9d152a08d0001d1b9dc","4q3c9w","BL","66","F","{""name"":""Chrome"",""chrome"":true,""version"":""106.0"",""blink"":true,""windows"":true,""osname"":""Windows"",""osversion"":""7"",""a"":true}","9:21:3","0","1","Practice_2","74","j","1","1838.8999999994412","1366 x 768","1366 x 768","true","1","10","","","","",""
"null","<p style=""font-size: 80px;"">+ 10 points</p>","null","html-keyboard-response","12","446986","0.0-9.0-1.0-2.11","57b4e9d152a08d0001d1b9dc","4q3c9w","BL","66","F","{""name"":""Chrome"",""chrome"":true,""version"":""106.0"",""blink"":true,""windows"":true,""osname"":""Windows"",""osversion"":""7"",""a"":true}","9:21:3","0","1","Practice_1","70","f","1","1122.0999999996275","1366 x 768","1366 x 768","true","1","10","","","","",""
"null","<p style=""font-size: 80px;"">+ 10 points</p>","null","html-keyboard-response","13","450052","0.0-9.0-1.0-2.12","57b4e9d152a08d0001d1b9dc","4q3c9w","BL","66","F","{""name"":""Chrome"",""chrome"":true,""version"":""106.0"",""blink"":true,""windows"":true,""osname"":""Windows"",""osversion"":""7"",""a"":true}","9:21:3","0","1","Practice_4","74","j","1","1028","1366 x 768","1366 x 768","true","1","10","","","","",""
"null","<p style=""font-size: 80px;"">+ 10 points</p>","null","html-keyboard-response","14","453136","0.0-9.0-1.0-2.13","57b4e9d152a08d0001d1b9dc","4q3c9w","BL","66","F","{""name"":""Chrome"",""chrome"":true,""version"":""106.0"",""blink"":true,""windows"":true,""osname"":""Windows"",""osversion"":""7"",""a"":true}","9:21:3","0","1","Practice_2","74","j","1","1047.4000000003725","1366 x 768","1366 x 768","true","1","10","","","","",""
"null","<p style=""font-size: 80px;"">+ 10 points</p>","null","html-keyboard-response","15","457304","0.0-9.0-1.0-2.14","57b4e9d152a08d0001d1b9dc","4q3c9w","BL","66","F","{""name"":""Chrome"",""chrome"":true,""version"":""106.0"",""blink"":true,""windows"":true,""osname"":""Windows"",""osversion"":""7"",""a"":true}","9:21:3","0","1","Practice_4","74","j","1","2130","1366 x 768","1366 x 768","true","1","10","","","","",""
"null","<p style=""font-size: 80px;"">+ 10 points</p>","null","html-keyboard-response","16","460605","0.0-9.0-1.0-2.15","57b4e9d152a08d0001d1b9dc","4q3c9w","BL","66","F","{""name"":""Chrome"",""chrome"":true,""version"":""106.0"",""blink"":true,""windows"":true,""osname"":""Windows"",""osversion"":""7"",""a"":true}","9:21:3","0","1","Practice_3","70","f","1","1274.5","1366 x 768","1366 x 768","true","1","10","","","","",""
"null","<p style=""font-size: 80px;"">+ 10 points</p>","null","html-keyboard-response","17","463741","0.0-9.0-1.0-2.16","57b4e9d152a08d0001d1b9dc","4q3c9w","BL","66","F","{""name"":""Chrome"",""chrome"":true,""version"":""106.0"",""blink"":true,""windows"":true,""osname"":""Windows"",""osversion"":""7"",""a"":true}","9:21:3","0","1","Practice_4","74","j","1","1112","1366 x 768","1366 x 768","true","1","10","","","","",""
"null","<p style=""font-size: 80px;"">+ 10 points</p>","null","html-keyboard-response","18","466891","0.0-9.0-1.0-2.17","57b4e9d152a08d0001d1b9dc","4q3c9w","BL","66","F","{""name"":""Chrome"",""chrome"":true,""version"":""106.0"",""blink"":true,""windows"":true,""osname"":""Windows"",""osversion"":""7"",""a"":true}","9:21:3","0","1","Practice_2","74","j","1","1122.2999999988824","1366 x 768","1366 x 768","true","1","10","","","","",""
"null","<p style=""font-size: 80px;"">+ 10 points</p>","null","html-keyboard-response","19","470207","0.0-9.0-1.0-2.18","57b4e9d152a08d0001d1b9dc","4q3c9w","BL","66","F","{""name"":""Chrome"",""chrome"":true,""version"":""106.0"",""blink"":true,""windows"":true,""osname"":""Windows"",""osversion"":""7"",""a"":true}","9:21:3","0","1","Practice_4","74","j","1","1292.5","1366 x 768","1366 x 768","true","1","10","","","","",""
"null","<p style=""font-size: 80px;"">+ 10 points</p>","null","html-keyboard-response","20","473724","0.0-9.0-1.0-2.19","57b4e9d152a08d0001d1b9dc","4q3c9w","BL","66","F","{""name"":""Chrome"",""chrome"":true,""version"":""106.0"",""blink"":true,""windows"":true,""osname"":""Windows"",""osversion"":""7"",""a"":true}","9:21:3","0","1","Practice_1","70","f","1","1479.5","1366 x 768","1366 x 768","true","1","10","","","","",""
"null","<p style=""font-size: 80px;"">+ 0 points</p>","null","html-keyboard-response","21","477008","0.0-9.0-1.0-2.20","57b4e9d152a08d0001d1b9dc","4q3c9w","BL","66","F","{""name"":""Chrome"",""chrome"":true,""version"":""106.0"",""blink"":true,""windows"":true,""osname"":""Windows"",""osversion"":""7"",""a"":true}","9:21:3","0","2","Practice_4","74","f","0","1254","1366 x 768","1366 x 768","true","1","0","","","","",""
"null","<p style=""font-size: 80px;"">+ 0 points</p>","null","html-keyboard-response","22","480340","0.0-9.0-1.0-2.21","57b4e9d152a08d0001d1b9dc","4q3c9w","BL","66","F","{""name"":""Chrome"",""chrome"":true,""version"":""106.0"",""blink"":true,""windows"":true,""osname"":""Windows"",""osversion"":""7"",""a"":true}","9:21:3","0","2","Practice_3","70","j","0","1293.199999999255","1366 x 768","1366 x 768","true","1","0","","","","",""
"null","<p style=""font-size: 80px;"">+ 0 points</p>","null","html-keyboard-response","23","484125","0.0-9.0-1.0-2.22","57b4e9d152a08d0001d1b9dc","4q3c9w","BL","66","F","{""name"":""Chrome"",""chrome"":true,""version"":""106.0"",""blink"":true,""windows"":true,""osname"":""Windows"",""osversion"":""7"",""a"":true}","9:21:3","0","2","Practice_4","74","f","0","1753.699999999255","1366 x 768","1366 x 768","true","1","0","","","","",""
"null","<p style=""font-size: 80px;"">+ 0 points</p>","null","html-keyboard-response","24","488202","0.0-9.0-1.0-2.23","57b4e9d152a08d0001d1b9dc","4q3c9w","BL","66","F","{""name"":""Chrome"",""chrome"":true,""version"":""106.0"",""blink"":true,""windows"":true,""osname"":""Windows"",""osversion"":""7"",""a"":true}","9:21:3","0","2","Practice_1","70","j","0","2051.7999999988824","1366 x 768","1366 x 768","true","1","0","","","","",""
"null","<p style=""font-size: 80px;"">+ 0 points</p>","null","html-keyboard-response","25","491119","0.0-9.0-1.0-2.24","57b4e9d152a08d0001d1b9dc","4q3c9w","BL","66","F","{""name"":""Chrome"",""chrome"":true,""version"":""106.0"",""blink"":true,""windows"":true,""osname"":""Windows"",""osversion"":""7"",""a"":true}","9:21:3","0","2","Practice_4","74","f","0","876","1366 x 768","1366 x 768","true","1","0","","","","",""
"null","<p style=""font-size: 80px;"">+ 0 points</p>","null","html-keyboard-response","26","495636","0.0-9.0-1.0-2.25","57b4e9d152a08d0001d1b9dc","4q3c9w","BL","66","F","{""name"":""Chrome"",""chrome"":true,""version"":""106.0"",""blink"":true,""windows"":true,""osname"":""Windows"",""osversion"":""7"",""a"":true}","9:21:3","0","2","Practice_2","74","f","0","2477.9000000003725","1366 x 768","1366 x 768","true","1","0","","","","",""
"null","<p style=""font-size: 80px;"">+ 0 points</p>","null","html-keyboard-response","27","499306","0.0-9.0-1.0-2.26","57b4e9d152a08d0001d1b9dc","4q3c9w","BL","66","F","{""name"":""Chrome"",""chrome"":true,""version"":""106.0"",""blink"":true,""windows"":true,""osname"":""Windows"",""osversion"":""7"",""a"":true}","9:21:3","0","2","Practice_1","70","j","0","1634.199999999255","1366 x 768","1366 x 768","true","1","0","","","","",""
"null","<p style=""font-size: 80px;"">+ 0 points</p>","null","html-keyboard-response","28","503474","0.0-9.0-1.0-2.27","57b4e9d152a08d0001d1b9dc","4q3c9w","BL","66","F","{""name"":""Chrome"",""chrome"":true,""version"":""106.0"",""blink"":true,""windows"":true,""osname"":""Windows"",""osversion"":""7"",""a"":true}","9:21:3","0","2","Practice_2","74","f","0","2136.300000000745","1366 x 768","1366 x 768","true","1","0","","","","",""
"null","<p style=""font-size: 80px;"">+ 0 points</p>","null","html-keyboard-response","29","506823","0.0-9.0-1.0-2.28","57b4e9d152a08d0001d1b9dc","4q3c9w","BL","66","F","{""name"":""Chrome"",""chrome"":true,""version"":""106.0"",""blink"":true,""windows"":true,""osname"":""Windows"",""osversion"":""7"",""a"":true}","9:21:3","0","2","Practice_3","70","j","0","1324.4000000003725","1366 x 768","1366 x 768","true","1","0","","","","",""
"null","<p style=""font-size: 80px;"">+ 0 points</p>","null","html-keyboard-response","30","511324","0.0-9.0-1.0-2.29","57b4e9d152a08d0001d1b9dc","4q3c9w","BL","66","F","{""name"":""Chrome"",""chrome"":true,""version"":""106.0"",""blink"":true,""windows"":true,""osname"":""Windows"",""osversion"":""7"",""a"":true}","9:21:3","0","2","Practice_1","70","j","0","2464.199999999255","1366 x 768","1366 x 768","true","1","0","","","","",""
"null","<p style=""font-size: 80px;"">+ 10 points</p>","null","html-keyboard-response","31","514973","0.0-9.0-1.0-2.30","57b4e9d152a08d0001d1b9dc","4q3c9w","BL","66","F","{""name"":""Chrome"",""chrome"":true,""version"":""106.0"",""blink"":true,""windows"":true,""osname"":""Windows"",""osversion"":""7"",""a"":true}","9:21:3","0","2","Practice_4","70","f","1","1608.5","1366 x 768","1366 x 768","true","1","10","","","","",""
"null","<p style=""font-size: 80px;"">+ 0 points</p>","null","html-keyboard-response","32","518640","0.0-9.0-1.0-2.31","57b4e9d152a08d0001d1b9dc","4q3c9w","BL","66","F","{""name"":""Chrome"",""chrome"":true,""version"":""106.0"",""blink"":true,""windows"":true,""osname"":""Windows"",""osversion"":""7"",""a"":true}","9:21:3","0","2","Practice_1","70","j","0","1629.3999999985099","1366 x 768","1366 x 768","true","1","0","","","","",""
"null","<p style=""font-size: 80px;"">+ 0 points</p>","null","html-keyboard-response","33","522658","0.0-9.0-1.0-2.32","57b4e9d152a08d0001d1b9dc","4q3c9w","BL","66","F","{""name"":""Chrome"",""chrome"":true,""version"":""106.0"",""blink"":true,""windows"":true,""osname"":""Windows"",""osversion"":""7"",""a"":true}","9:21:3","0","2","Practice_3","70","j","0","1978.2000000011176","1366 x 768","1366 x 768","true","1","0","","","","",""
"null","<p style=""font-size: 80px;"">+ 0 points</p>","null","html-keyboard-response","34","526676","0.0-9.0-1.0-2.33","57b4e9d152a08d0001d1b9dc","4q3c9w","BL","66","F","{""name"":""Chrome"",""chrome"":true,""version"":""106.0"",""blink"":true,""windows"":true,""osname"":""Windows"",""osversion"":""7"",""a"":true}","9:21:3","0","2","Practice_1","70","j","0","1982.5","1366 x 768","1366 x 768","true","1","0","","","","",""
"null","<p style=""font-size: 80px;"">+ 10 points</p>","null","html-keyboard-response","35","530311","0.0-9.0-1.0-2.34","57b4e9d152a08d0001d1b9dc","4q3c9w","BL","66","F","{""name"":""Chrome"",""chrome"":true,""version"":""106.0"",""blink"":true,""windows"":true,""osname"":""Windows"",""osversion"":""7"",""a"":true}","9:21:3","0","2","Practice_4","70","f","1","1606.2000000011176","1366 x 768","1366 x 768","true","1","10","","","","",""
"null","<p style=""font-size: 80px;"">+ 0 points</p>","null","html-keyboard-response","36","533727","0.0-9.0-1.0-2.35","57b4e9d152a08d0001d1b9dc","4q3c9w","BL","66","F","{""name"":""Chrome"",""chrome"":true,""version"":""106.0"",""blink"":true,""windows"":true,""osname"":""Windows"",""osversion"":""7"",""a"":true}","9:21:3","0","2","Practice_3","70","j","0","1382.5","1366 x 768","1366 x 768","true","1","0","","","","",""
"null","<p style=""font-size: 80px;"">+ 0 points</p>","null","html-keyboard-response","37","536777","0.0-9.0-1.0-2.36","57b4e9d152a08d0001d1b9dc","4q3c9w","BL","66","F","{""name"":""Chrome"",""chrome"":true,""version"":""106.0"",""blink"":true,""windows"":true,""osname"":""Windows"",""osversion"":""7"",""a"":true}","9:21:3","0","2","Practice_2","74","f","0","1019.5999999996275","1366 x 768","1366 x 768","true","1","0","","","","",""
"null","<p style=""font-size: 80px;"">+ 0 points</p>","null","html-keyboard-response","38","540627","0.0-9.0-1.0-2.37","57b4e9d152a08d0001d1b9dc","4q3c9w","BL","66","F","{""name"":""Chrome"",""chrome"":true,""version"":""106.0"",""blink"":true,""windows"":true,""osname"":""Windows"",""osversion"":""7"",""a"":true}","9:21:3","0","2","Practice_2","74","f","0","1810.5","1366 x 768","1366 x 768","true","1","0","","","","",""
"null","<p style=""font-size: 80px;"">+ 10 points</p>","null","html-keyboard-response","39","545145","0.0-9.0-1.0-2.38","57b4e9d152a08d0001d1b9dc","4q3c9w","BL","66","F","{""name"":""Chrome"",""chrome"":true,""version"":""106.0"",""blink"":true,""windows"":true,""osname"":""Windows"",""osversion"":""7"",""a"":true}","9:21:3","0","2","Practice_3","74","j","1","2479.300000000745","1366 x 768","1366 x 768","true","1","10","","","","",""
"null","<p style=""font-size: 80px;"">+ 10 points</p>","null","html-keyboard-response","40","548518","0.0-9.0-1.0-2.39","57b4e9d152a08d0001d1b9dc","4q3c9w","BL","66","F","{""name"":""Chrome"",""chrome"":true,""version"":""106.0"",""blink"":true,""windows"":true,""osname"":""Windows"",""osversion"":""7"",""a"":true}","9:21:3","0","2","Practice_2","70","f","1","1328","1366 x 768","1366 x 768","true","1","10","","","","",""
"14039.400000000373","","","survey-multi-choice","249","562566","0.0-9.0-2.0","57b4e9d152a08d0001d1b9dc","4q3c9w","BL","66","F","{""name"":""Chrome"",""chrome"":true,""version"":""106.0"",""blink"":true,""windows"":true,""osname"":""Windows"",""osversion"":""7"",""a"":true}","9:21:3","","","","","","","","","","","1","","{""Q0"":""The green one"",""Q1"":""1""}","[0,1]","1","The green one","1"
"null","<p style=""font-size: 80px;"">+ 10 points</p>","null","html-keyboard-response","1","594428","0.0-11.0-2.0","57b4e9d152a08d0001d1b9dc","4q3c9w","BL","66","F","{""name"":""Chrome"",""chrome"":true,""version"":""106.0"",""blink"":true,""windows"":true,""osname"":""Windows"",""osversion"":""7"",""a"":true}","9:21:3","1","4","Test_3","74","j","1","2255","1366 x 768","1366 x 768","true","1","10","","","","",""
"null","<p style=""font-size: 80px;"">+ 10 points</p>","null","html-keyboard-response","2","599013","0.0-11.0-2.1","57b4e9d152a08d0001d1b9dc","4q3c9w","BL","66","F","{""name"":""Chrome"",""chrome"":true,""version"":""106.0"",""blink"":true,""windows"":true,""osname"":""Windows"",""osversion"":""7"",""a"":true}","9:21:3","1","4","Test_1","74","j","1","2562.39999999851","1366 x 768","1366 x 768","true","1","10","","","","",""
"null","<p style=""font-size: 80px;"">+ 10 points</p>","null","html-keyboard-response","3","603544","0.0-11.0-2.2","57b4e9d152a08d0001d1b9dc","4q3c9w","BL","66","F","{""name"":""Chrome"",""chrome"":true,""version"":""106.0"",""blink"":true,""windows"":true,""osname"":""Windows"",""osversion"":""7"",""a"":true}","9:21:3","1","4","Test_2","70","f","1","2507.300000000745","1366 x 768","1366 x 768","true","1","10","","","","",""
"null","<p style=""font-size: 80px;"">+ 0 points</p>","null","html-keyboard-response","4","607919","0.0-11.0-2.3","57b4e9d152a08d0001d1b9dc","4q3c9w","BL","66","F","{""name"":""Chrome"",""chrome"":true,""version"":""106.0"",""blink"":true,""windows"":true,""osname"":""Windows"",""osversion"":""7"",""a"":true}","9:21:3","1","4","Test_4","74","f","0","2337.300000000745","1366 x 768","1366 x 768","true","1","0","","","","",""
"null","<p style=""font-size: 80px;"">+ 10 points</p>","null","html-keyboard-response","5","611634","0.0-11.0-2.4","57b4e9d152a08d0001d1b9dc","4q3c9w","BL","66","F","{""name"":""Chrome"",""chrome"":true,""version"":""106.0"",""blink"":true,""windows"":true,""osname"":""Windows"",""osversion"":""7"",""a"":true}","9:21:3","1","4","Test_2","70","f","1","1691.5","1366 x 768","1366 x 768","true","1","10","","","","",""
"null","<p style=""font-size: 80px;"">+ 10 points</p>","null","html-keyboard-response","6","614951","0.0-11.0-2.5","57b4e9d152a08d0001d1b9dc","4q3c9w","BL","66","F","{""name"":""Chrome"",""chrome"":true,""version"":""106.0"",""blink"":true,""windows"":true,""osname"":""Windows"",""osversion"":""7"",""a"":true}","9:21:3","1","4","Test_2","70","f","1","1284","1366 x 768","1366 x 768","true","1","10","","","","",""
"null","<p style=""font-size: 80px;"">+ 0 points</p>","null","html-keyboard-response","7","618469","0.0-11.0-2.6","57b4e9d152a08d0001d1b9dc","4q3c9w","BL","66","F","{""name"":""Chrome"",""chrome"":true,""version"":""106.0"",""blink"":true,""windows"":true,""osname"":""Windows"",""osversion"":""7"",""a"":true}","9:21:3","1","4","Test_4","74","f","0","1496.7000000011176","1366 x 768","1366 x 768","true","1","0","","","","",""
"null","<p style=""font-size: 80px;"">+ 10 points</p>","null","html-keyboard-response","8","621853","0.0-11.0-2.7","57b4e9d152a08d0001d1b9dc","4q3c9w","BL","66","F","{""name"":""Chrome"",""chrome"":true,""version"":""106.0"",""blink"":true,""windows"":true,""osname"":""Windows"",""osversion"":""7"",""a"":true}","9:21:3","1","4","Test_1","74","j","1","1351.300000000745","1366 x 768","1366 x 768","true","1","10","","","","",""
"null","<p style=""font-size: 80px;"">+ 0 points</p>","null","html-keyboard-response","9","626283","0.0-11.0-2.8","57b4e9d152a08d0001d1b9dc","4q3c9w","BL","66","F","{""name"":""Chrome"",""chrome"":true,""version"":""106.0"",""blink"":true,""windows"":true,""osname"":""Windows"",""osversion"":""7"",""a"":true}","9:21:3","1","4","Test_4","74","f","0","2398.699999999255","1366 x 768","1366 x 768","true","1","0","","","","",""
"null","<p style=""font-size: 80px;"">+ 0 points</p>","null","html-keyboard-response","10","629851","0.0-11.0-2.9","57b4e9d152a08d0001d1b9dc","4q3c9w","BL","66","F","{""name"":""Chrome"",""chrome"":true,""version"":""106.0"",""blink"":true,""windows"":true,""osname"":""Windows"",""osversion"":""7"",""a"":true}","9:21:3","1","4","Test_1","70","j","0","1538.3999999985099","1366 x 768","1366 x 768","true","1","0","","","","",""
"null","<p style=""font-size: 80px;"">+ 0 points</p>","null","html-keyboard-response","11","633858","0.0-11.0-2.10","57b4e9d152a08d0001d1b9dc","4q3c9w","BL","66","F","{""name"":""Chrome"",""chrome"":true,""version"":""106.0"",""blink"":true,""windows"":true,""osname"":""Windows"",""osversion"":""7"",""a"":true}","9:21:3","1","4","Test_3","70","j","0","1975.800000000745","1366 x 768","1366 x 768","true","1","0","","","","",""
"null","<p style=""font-size: 80px;"">+ 0 points</p>","null","html-keyboard-response","12","637132","0.0-11.0-2.11","57b4e9d152a08d0001d1b9dc","4q3c9w","BL","66","F","{""name"":""Chrome"",""chrome"":true,""version"":""106.0"",""blink"":true,""windows"":true,""osname"":""Windows"",""osversion"":""7"",""a"":true}","9:21:3","1","4","Test_4","74","f","0","1240.699999999255","1366 x 768","1366 x 768","true","1","0","","","","",""
"null","<p style=""font-size: 80px;"">+ 0 points</p>","null","html-keyboard-response","13","641888","0.0-11.0-2.12","57b4e9d152a08d0001d1b9dc","4q3c9w","BL","66","F","{""name"":""Chrome"",""chrome"":true,""version"":""106.0"",""blink"":true,""windows"":true,""osname"":""Windows"",""osversion"":""7"",""a"":true}","9:21:3","1","4","Test_3","70","j","0","2739.9000000003725","1366 x 768","1366 x 768","true","1","0","","","","",""
"null","<p style=""font-size: 80px;"">+ 10 points</p>","null","html-keyboard-response","14","645554","0.0-11.0-2.13","57b4e9d152a08d0001d1b9dc","4q3c9w","BL","66","F","{""name"":""Chrome"",""chrome"":true,""version"":""106.0"",""blink"":true,""windows"":true,""osname"":""Windows"",""osversion"":""7"",""a"":true}","9:21:3","1","4","Test_1","74","j","1","1633.4000000003725","1366 x 768","1366 x 768","true","1","10","","","","",""
"null","<p style=""font-size: 80px;"">+ 0 points</p>","null","html-keyboard-response","15","649388","0.0-11.0-2.14","57b4e9d152a08d0001d1b9dc","4q3c9w","BL","66","F","{""name"":""Chrome"",""chrome"":true,""version"":""106.0"",""blink"":true,""windows"":true,""osname"":""Windows"",""osversion"":""7"",""a"":true}","9:21:3","1","4","Test_2","74","f","0","1807.300000000745","1366 x 768","1366 x 768","true","1","0","","","","",""
"null","<p style=""font-size: 80px;"">+ 0 points</p>","null","html-keyboard-response","16","652988","0.0-11.0-2.15","57b4e9d152a08d0001d1b9dc","4q3c9w","BL","66","F","{""name"":""Chrome"",""chrome"":true,""version"":""106.0"",""blink"":true,""windows"":true,""osname"":""Windows"",""osversion"":""7"",""a"":true}","9:21:3","1","4","Test_3","70","j","0","1563.7000000011176","1366 x 768","1366 x 768","true","1","0","","","","",""
"null","<p style=""font-size: 80px;"">+ 10 points</p>","null","html-keyboard-response","17","656253","0.0-11.0-2.16","57b4e9d152a08d0001d1b9dc","4q3c9w","BL","66","F","{""name"":""Chrome"",""chrome"":true,""version"":""106.0"",""blink"":true,""windows"":true,""osname"":""Windows"",""osversion"":""7"",""a"":true}","9:21:3","1","3","Test_3","70","f","1","1226.5999999996275","1366 x 768","1366 x 768","true","1","10","","","","",""
"null","<p style=""font-size: 80px;"">+ 10 points</p>","null","html-keyboard-response","18","659890","0.0-11.0-2.17","57b4e9d152a08d0001d1b9dc","4q3c9w","BL","66","F","{""name"":""Chrome"",""chrome"":true,""version"":""106.0"",""blink"":true,""windows"":true,""osname"":""Windows"",""osversion"":""7"",""a"":true}","9:21:3","1","3","Test_3","70","f","1","1615.199999999255","1366 x 768","1366 x 768","true","1","10","","","","",""
"null","<p style=""font-size: 80px;"">+ 10 points</p>","null","html-keyboard-response","19","663774","0.0-11.0-2.18","57b4e9d152a08d0001d1b9dc","4q3c9w","BL","66","F","{""name"":""Chrome"",""chrome"":true,""version"":""106.0"",""blink"":true,""windows"":true,""osname"":""Windows"",""osversion"":""7"",""a"":true}","9:21:3","1","3","Test_1","70","f","1","1870.699999999255","1366 x 768","1366 x 768","true","1","10","","","","",""
"null","<p style=""font-size: 80px;"">+ 0 points</p>","null","html-keyboard-response","20","667108","0.0-11.0-2.19","57b4e9d152a08d0001d1b9dc","4q3c9w","BL","66","F","{""name"":""Chrome"",""chrome"":true,""version"":""106.0"",""blink"":true,""windows"":true,""osname"":""Windows"",""osversion"":""7"",""a"":true}","9:21:3","1","3","Test_3","74","f","0","1300.5","1366 x 768","1366 x 768","true","1","0","","","","",""
"null","<p style=""font-size: 80px;"">+ 10 points</p>","null","html-keyboard-response","21","670393","0.0-11.0-2.20","57b4e9d152a08d0001d1b9dc","4q3c9w","BL","66","F","{""name"":""Chrome"",""chrome"":true,""version"":""106.0"",""blink"":true,""windows"":true,""osname"":""Windows"",""osversion"":""7"",""a"":true}","9:21:3","1","3","Test_3","70","f","1","1252.1000000014901","1366 x 768","1366 x 768","true","1","10","","","","",""
"null","<p style=""font-size: 80px;"">+ 10 points</p>","null","html-keyboard-response","22","673811","0.0-11.0-2.21","57b4e9d152a08d0001d1b9dc","4q3c9w","BL","66","F","{""name"":""Chrome"",""chrome"":true,""version"":""106.0"",""blink"":true,""windows"":true,""osname"":""Windows"",""osversion"":""7"",""a"":true}","9:21:3","1","3","Test_1","70","f","1","1377","1366 x 768","1366 x 768","true","1","10","","","","",""
"null","<p style=""font-size: 80px;"">+ 10 points</p>","null","html-keyboard-response","23","677042","0.0-11.0-2.22","57b4e9d152a08d0001d1b9dc","4q3c9w","BL","66","F","{""name"":""Chrome"",""chrome"":true,""version"":""106.0"",""blink"":true,""windows"":true,""osname"":""Windows"",""osversion"":""7"",""a"":true}","9:21:3","1","3","Test_4","74","j","1","1193.0999999996275","1366 x 768","1366 x 768","true","1","10","","","","",""
"null","<p style=""font-size: 80px;"">+ 10 points</p>","null","html-keyboard-response","24","680294","0.0-11.0-2.23","57b4e9d152a08d0001d1b9dc","4q3c9w","BL","66","F","{""name"":""Chrome"",""chrome"":true,""version"":""106.0"",""blink"":true,""windows"":true,""osname"":""Windows"",""osversion"":""7"",""a"":true}","9:21:3","1","3","Test_4","74","j","1","1222.699999999255","1366 x 768","1366 x 768","true","1","10","","","","",""
"null","<p style=""font-size: 80px;"">+ 10 points</p>","null","html-keyboard-response","25","683311","0.0-11.0-2.24","57b4e9d152a08d0001d1b9dc","4q3c9w","BL","66","F","{""name"":""Chrome"",""chrome"":true,""version"":""106.0"",""blink"":true,""windows"":true,""osname"":""Windows"",""osversion"":""7"",""a"":true}","9:21:3","1","3","Test_4","74","j","1","978.4000000003725","1366 x 768","1366 x 768","true","1","10","","","","",""
"null","<p style=""font-size: 80px;"">+ 0 points</p>","null","html-keyboard-response","26","687045","0.0-11.0-2.25","57b4e9d152a08d0001d1b9dc","4q3c9w","BL","66","F","{""name"":""Chrome"",""chrome"":true,""version"":""106.0"",""blink"":true,""windows"":true,""osname"":""Windows"",""osversion"":""7"",""a"":true}","9:21:3","1","3","Test_2","70","j","0","1703.699999999255","1366 x 768","1366 x 768","true","1","0","","","","",""
"null","<p style=""font-size: 80px;"">+ 10 points</p>","null","html-keyboard-response","27","690214","0.0-11.0-2.26","57b4e9d152a08d0001d1b9dc","4q3c9w","BL","66","F","{""name"":""Chrome"",""chrome"":true,""version"":""106.0"",""blink"":true,""windows"":true,""osname"":""Windows"",""osversion"":""7"",""a"":true}","9:21:3","1","3","Test_2","74","j","1","1139","1366 x 768","1366 x 768","true","1","10","","","","",""
"null","<p style=""font-size: 80px;"">+ 10 points</p>","null","html-keyboard-response","28","694029","0.0-11.0-2.27","57b4e9d152a08d0001d1b9dc","4q3c9w","BL","66","F","{""name"":""Chrome"",""chrome"":true,""version"":""106.0"",""blink"":true,""windows"":true,""osname"":""Windows"",""osversion"":""7"",""a"":true}","9:21:3","1","3","Test_1","70","f","1","1782.9000000003725","1366 x 768","1366 x 768","true","1","10","","","","",""
"null","<p style=""font-size: 80px;"">+ 0 points</p>","null","html-keyboard-response","29","697515","0.0-11.0-2.28","57b4e9d152a08d0001d1b9dc","4q3c9w","BL","66","F","{""name"":""Chrome"",""chrome"":true,""version"":""106.0"",""blink"":true,""windows"":true,""osname"":""Windows"",""osversion"":""7"",""a"":true}","9:21:3","1","3","Test_2","70","j","0","1459.6000000014901","1366 x 768","1366 x 768","true","1","0","","","","",""
"null","<p style=""font-size: 80px;"">+ 0 points</p>","null","html-keyboard-response","30","701548","0.0-11.0-2.29","57b4e9d152a08d0001d1b9dc","4q3c9w","BL","66","F","{""name"":""Chrome"",""chrome"":true,""version"":""106.0"",""blink"":true,""windows"":true,""osname"":""Windows"",""osversion"":""7"",""a"":true}","9:21:3","1","3","Test_4","70","j","0","2009.4000000003725","1366 x 768","1366 x 768","true","1","0","","","","",""
"null","<p style=""font-size: 80px;"">+ 0 points</p>","null","html-keyboard-response","31","705566","0.0-11.0-2.30","57b4e9d152a08d0001d1b9dc","4q3c9w","BL","66","F","{""name"":""Chrome"",""chrome"":true,""version"":""106.0"",""blink"":true,""windows"":true,""osname"":""Windows"",""osversion"":""7"",""a"":true}","9:21:3","1","3","Test_1","74","f","0","1992.9000000003725","1366 x 768","1366 x 768","true","1","0","","","","",""
"null","<p style=""font-size: 80px;"">+ 0 points</p>","null","html-keyboard-response","32","709200","0.0-11.0-2.31","57b4e9d152a08d0001d1b9dc","4q3c9w","BL","66","F","{""name"":""Chrome"",""chrome"":true,""version"":""106.0"",""blink"":true,""windows"":true,""osname"":""Windows"",""osversion"":""7"",""a"":true}","9:21:3","1","3","Test_4","70","j","0","1608.2999999988824","1366 x 768","1366 x 768","true","1","0","","","","",""
"null","<p style=""font-size: 80px;"">+ 0 points</p>","null","html-keyboard-response","33","712816","0.0-11.0-2.32","57b4e9d152a08d0001d1b9dc","4q3c9w","BL","66","F","{""name"":""Chrome"",""chrome"":true,""version"":""106.0"",""blink"":true,""windows"":true,""osname"":""Windows"",""osversion"":""7"",""a"":true}","9:21:3","1","3","Test_3","74","f","0","1579.2000000011176","1366 x 768","1366 x 768","true","1","0","","","","",""
"null","<p style=""font-size: 80px;"">+ 10 points</p>","null","html-keyboard-response","34","715821","0.0-11.0-2.33","57b4e9d152a08d0001d1b9dc","4q3c9w","BL","66","F","{""name"":""Chrome"",""chrome"":true,""version"":""106.0"",""blink"":true,""windows"":true,""osname"":""Windows"",""osversion"":""7"",""a"":true}","9:21:3","1","3","Test_2","74","j","1","970.3000000007451","1366 x 768","1366 x 768","true","1","10","","","","",""
"null","<p style=""font-size: 80px;"">+ 10 points</p>","null","html-keyboard-response","35","719239","0.0-11.0-2.34","57b4e9d152a08d0001d1b9dc","4q3c9w","BL","66","F","{""name"":""Chrome"",""chrome"":true,""version"":""106.0"",""blink"":true,""windows"":true,""osname"":""Windows"",""osversion"":""7"",""a"":true}","9:21:3","1","3","Test_1","70","f","1","1392.5","1366 x 768","1366 x 768","true","1","10","","","","",""
"null","<p style=""font-size: 80px;"">+ 10 points</p>","null","html-keyboard-response","36","723200","0.0-11.0-2.35","57b4e9d152a08d0001d1b9dc","4q3c9w","BL","66","F","{""name"":""Chrome"",""chrome"":true,""version"":""106.0"",""blink"":true,""windows"":true,""osname"":""Windows"",""osversion"":""7"",""a"":true}","9:21:3","1","3","Test_4","74","j","1","1929.5","1366 x 768","1366 x 768","true","1","10","","","","",""
"null","<p style=""font-size: 80px;"">+ 10 points</p>","null","html-keyboard-response","37","726851","0.0-11.0-2.36","57b4e9d152a08d0001d1b9dc","4q3c9w","BL","66","F","{""name"":""Chrome"",""chrome"":true,""version"":""106.0"",""blink"":true,""windows"":true,""osname"":""Windows"",""osversion"":""7"",""a"":true}","9:21:3","1","3","Test_3","70","f","1","1613.4000000003725","1366 x 768","1366 x 768","true","1","10","","","","",""
"null","<p style=""font-size: 80px;"">+ 10 points</p>","null","html-keyboard-response","38","730143","0.0-11.0-2.37","57b4e9d152a08d0001d1b9dc","4q3c9w","BL","66","F","{""name"":""Chrome"",""chrome"":true,""version"":""106.0"",""blink"":true,""windows"":true,""osname"":""Windows"",""osversion"":""7"",""a"":true}","9:21:3","1","3","Test_2","74","j","1","1275.7000000011176","1366 x 768","1366 x 768","true","1","10","","","","",""
"null","<p style=""font-size: 80px;"">+ 10 points</p>","null","html-keyboard-response","39","733344","0.0-11.0-2.38","57b4e9d152a08d0001d1b9dc","4q3c9w","BL","66","F","{""name"":""Chrome"",""chrome"":true,""version"":""106.0"",""blink"":true,""windows"":true,""osname"":""Windows"",""osversion"":""7"",""a"":true}","9:21:3","1","3","Test_1","70","f","1","1171","1366 x 768","1366 x 768","true","1","10","","","","",""
"null","<p style=""font-size: 80px;"">+ 10 points</p>","null","html-keyboard-response","40","736394","0.0-11.0-2.39","57b4e9d152a08d0001d1b9dc","4q3c9w","BL","66","F","{""name"":""Chrome"",""chrome"":true,""version"":""106.0"",""blink"":true,""windows"":true,""osname"":""Windows"",""osversion"":""7"",""a"":true}","9:21:3","1","3","Test_2","74","j","1","1014.2999999988824","1366 x 768","1366 x 768","true","1","10","","","","",""
"null","<p style=""font-size: 80px;"">+ 0 points</p>","null","html-keyboard-response","41","739895","0.0-11.0-2.40","57b4e9d152a08d0001d1b9dc","4q3c9w","BL","66","F","{""name"":""Chrome"",""chrome"":true,""version"":""106.0"",""blink"":true,""windows"":true,""osname"":""Windows"",""osversion"":""7"",""a"":true}","9:21:3","1","4","Test_2","74","f","0","1470.199999999255","1366 x 768","1366 x 768","true","1","0","","","","",""
"null","<p style=""font-size: 80px;"">+ 0 points</p>","null","html-keyboard-response","42","743065","0.0-11.0-2.41","57b4e9d152a08d0001d1b9dc","4q3c9w","BL","66","F","{""name"":""Chrome"",""chrome"":true,""version"":""106.0"",""blink"":true,""windows"":true,""osname"":""Windows"",""osversion"":""7"",""a"":true}","9:21:3","1","4","Test_1","70","j","0","1144.300000000745","1366 x 768","1366 x 768","true","1","0","","","","",""
"null","<p style=""font-size: 80px;"">+ 10 points</p>","null","html-keyboard-response","43","746798","0.0-11.0-2.42","57b4e9d152a08d0001d1b9dc","4q3c9w","BL","66","F","{""name"":""Chrome"",""chrome"":true,""version"":""106.0"",""blink"":true,""windows"":true,""osname"":""Windows"",""osversion"":""7"",""a"":true}","9:21:3","1","4","Test_1","74","j","1","1700.7000000011176","1366 x 768","1366 x 768","true","1","10","","","","",""
"null","<p style=""font-size: 80px;"">+ 10 points</p>","null","html-keyboard-response","44","750479","0.0-11.0-2.43","57b4e9d152a08d0001d1b9dc","4q3c9w","BL","66","F","{""name"":""Chrome"",""chrome"":true,""version"":""106.0"",""blink"":true,""windows"":true,""osname"":""Windows"",""osversion"":""7"",""a"":true}","9:21:3","1","4","Test_4","70","f","1","1645","1366 x 768","1366 x 768","true","1","10","","","","",""
"null","<p style=""font-size: 80px;"">+ 10 points</p>","null","html-keyboard-response","45","753880","0.0-11.0-2.44","57b4e9d152a08d0001d1b9dc","4q3c9w","BL","66","F","{""name"":""Chrome"",""chrome"":true,""version"":""106.0"",""blink"":true,""windows"":true,""osname"":""Windows"",""osversion"":""7"",""a"":true}","9:21:3","1","4","Test_4","70","f","1","1381.7000000011176","1366 x 768","1366 x 768","true","1","10","","","","",""
"null","<p style=""font-size: 80px;"">+ 0 points</p>","null","html-keyboard-response","46","756930","0.0-11.0-2.45","57b4e9d152a08d0001d1b9dc","4q3c9w","BL","66","F","{""name"":""Chrome"",""chrome"":true,""version"":""106.0"",""blink"":true,""windows"":true,""osname"":""Windows"",""osversion"":""7"",""a"":true}","9:21:3","1","4","Test_3","70","j","0","1011.1999999992549","1366 x 768","1366 x 768","true","1","0","","","","",""
"null","<p style=""font-size: 80px;"">+ 10 points</p>","null","html-keyboard-response","47","760532","0.0-11.0-2.46","57b4e9d152a08d0001d1b9dc","4q3c9w","BL","66","F","{""name"":""Chrome"",""chrome"":true,""version"":""106.0"",""blink"":true,""windows"":true,""osname"":""Windows"",""osversion"":""7"",""a"":true}","9:21:3","1","4","Test_2","70","f","1","1569.699999999255","1366 x 768","1366 x 768","true","1","10","","","","",""
"null","<p style=""font-size: 80px;"">+ 0 points</p>","null","html-keyboard-response","48","763518","0.0-11.0-2.47","57b4e9d152a08d0001d1b9dc","4q3c9w","BL","66","F","{""name"":""Chrome"",""chrome"":true,""version"":""106.0"",""blink"":true,""windows"":true,""osname"":""Windows"",""osversion"":""7"",""a"":true}","9:21:3","1","4","Test_4","74","f","0","948","1366 x 768","1366 x 768","true","1","0","","","","",""
"null","<p style=""font-size: 80px;"">+ 10 points</p>","null","html-keyboard-response","49","766482","0.0-11.0-2.48","57b4e9d152a08d0001d1b9dc","4q3c9w","BL","66","F","{""name"":""Chrome"",""chrome"":true,""version"":""106.0"",""blink"":true,""windows"":true,""osname"":""Windows"",""osversion"":""7"",""a"":true}","9:21:3","1","4","Test_2","70","f","1","932.9000000003725","1366 x 768","1366 x 768","true","1","10","","","","",""
"null","<p style=""font-size: 80px;"">+ 0 points</p>","null","html-keyboard-response","50","769387","0.0-11.0-2.49","57b4e9d152a08d0001d1b9dc","4q3c9w","BL","66","F","{""name"":""Chrome"",""chrome"":true,""version"":""106.0"",""blink"":true,""windows"":true,""osname"":""Windows"",""osversion"":""7"",""a"":true}","9:21:3","1","4","Test_1","70","j","0","877.2000000011176","1366 x 768","1366 x 768","true","1","0","","","","",""
"null","<p style=""font-size: 80px;"">+ 0 points</p>","null","html-keyboard-response","51","772601","0.0-11.0-2.50","57b4e9d152a08d0001d1b9dc","4q3c9w","BL","66","F","{""name"":""Chrome"",""chrome"":true,""version"":""106.0"",""blink"":true,""windows"":true,""osname"":""Windows"",""osversion"":""7"",""a"":true}","9:21:3","1","4","Test_2","74","f","0","1182.300000000745","1366 x 768","1366 x 768","true","1","0","","","","",""
"null","<p style=""font-size: 80px;"">+ 10 points</p>","null","html-keyboard-response","52","775919","0.0-11.0-2.51","57b4e9d152a08d0001d1b9dc","4q3c9w","BL","66","F","{""name"":""Chrome"",""chrome"":true,""version"":""106.0"",""blink"":true,""windows"":true,""osname"":""Windows"",""osversion"":""7"",""a"":true}","9:21:3","1","4","Test_3","74","j","1","1283.800000000745","1366 x 768","1366 x 768","true","1","10","","","","",""
"null","<p style=""font-size: 80px;"">+ 0 points</p>","null","html-keyboard-response","53","779687","0.0-11.0-2.52","57b4e9d152a08d0001d1b9dc","4q3c9w","BL","66","F","{""name"":""Chrome"",""chrome"":true,""version"":""106.0"",""blink"":true,""windows"":true,""osname"":""Windows"",""osversion"":""7"",""a"":true}","9:21:3","1","4","Test_4","74","f","0","1742","1366 x 768","1366 x 768","true","1","0","","","","",""
"null","<p style=""font-size: 80px;"">+ 10 points</p>","null","html-keyboard-response","54","782636","0.0-11.0-2.53","57b4e9d152a08d0001d1b9dc","4q3c9w","BL","66","F","{""name"":""Chrome"",""chrome"":true,""version"":""106.0"",""blink"":true,""windows"":true,""osname"":""Windows"",""osversion"":""7"",""a"":true}","9:21:3","1","4","Test_4","70","f","1","917.5","1366 x 768","1366 x 768","true","1","10","","","","",""
"null","<p style=""font-size: 80px;"">+ 0 points</p>","null","html-keyboard-response","55","785655","0.0-11.0-2.54","57b4e9d152a08d0001d1b9dc","4q3c9w","BL","66","F","{""name"":""Chrome"",""chrome"":true,""version"":""106.0"",""blink"":true,""windows"":true,""osname"":""Windows"",""osversion"":""7"",""a"":true}","9:21:3","1","4","Test_3","70","j","0","986.0999999996275","1366 x 768","1366 x 768","true","1","0","","","","",""
"null","<p style=""font-size: 80px;"">+ 0 points</p>","null","html-keyboard-response","56","788403","0.0-11.0-2.55","57b4e9d152a08d0001d1b9dc","4q3c9w","BL","66","F","{""name"":""Chrome"",""chrome"":true,""version"":""106.0"",""blink"":true,""windows"":true,""osname"":""Windows"",""osversion"":""7"",""a"":true}","9:21:3","1","4","Test_3","70","j","0","713.5999999996275","1366 x 768","1366 x 768","true","1","0","","","","",""
"null","<p style=""font-size: 80px;"">+ 0 points</p>","null","html-keyboard-response","57","791682","0.0-11.0-2.56","57b4e9d152a08d0001d1b9dc","4q3c9w","BL","66","F","{""name"":""Chrome"",""chrome"":true,""version"":""106.0"",""blink"":true,""windows"":true,""osname"":""Windows"",""osversion"":""7"",""a"":true}","9:21:3","1","4","Test_2","74","f","0","1241.5999999996275","1366 x 768","1366 x 768","true","1","0","","","","",""
"null","<p style=""font-size: 80px;"">+ 10 points</p>","null","html-keyboard-response","58","794565","0.0-11.0-2.57","57b4e9d152a08d0001d1b9dc","4q3c9w","BL","66","F","{""name"":""Chrome"",""chrome"":true,""version"":""106.0"",""blink"":true,""windows"":true,""osname"":""Windows"",""osversion"":""7"",""a"":true}","9:21:3","1","4","Test_1","74","j","1","847.7000000011176","1366 x 768","1366 x 768","true","1","10","","","","",""
"null","<p style=""font-size: 80px;"">+ 0 points</p>","null","html-keyboard-response","59","797399","0.0-11.0-2.58","57b4e9d152a08d0001d1b9dc","4q3c9w","BL","66","F","{""name"":""Chrome"",""chrome"":true,""version"":""106.0"",""blink"":true,""windows"":true,""osname"":""Windows"",""osversion"":""7"",""a"":true}","9:21:3","1","3","Test_1","74","f","0","807.1999999992549","1366 x 768","1366 x 768","true","1","0","","","","",""
"null","<p style=""font-size: 80px;"">+ 10 points</p>","null","html-keyboard-response","60","800333","0.0-11.0-2.59","57b4e9d152a08d0001d1b9dc","4q3c9w","BL","66","F","{""name"":""Chrome"",""chrome"":true,""version"":""106.0"",""blink"":true,""windows"":true,""osname"":""Windows"",""osversion"":""7"",""a"":true}","9:21:3","1","3","Test_3","70","f","1","900.5","1366 x 768","1366 x 768","true","1","10","","","","",""
"null","<p style=""font-size: 80px;"">+ 10 points</p>","null","html-keyboard-response","61","803366","0.0-11.0-2.60","57b4e9d152a08d0001d1b9dc","4q3c9w","BL","66","F","{""name"":""Chrome"",""chrome"":true,""version"":""106.0"",""blink"":true,""windows"":true,""osname"":""Windows"",""osversion"":""7"",""a"":true}","9:21:3","1","3","Test_3","70","f","1","996","1366 x 768","1366 x 768","true","1","10","","","","",""
"null","<p style=""font-size: 80px;"">+ 10 points</p>","null","html-keyboard-response","62","806167","0.0-11.0-2.61","57b4e9d152a08d0001d1b9dc","4q3c9w","BL","66","F","{""name"":""Chrome"",""chrome"":true,""version"":""106.0"",""blink"":true,""windows"":true,""osname"":""Windows"",""osversion"":""7"",""a"":true}","9:21:3","1","3","Test_3","70","f","1","773.7999999988824","1366 x 768","1366 x 768","true","1","10","","","","",""
"null","<p style=""font-size: 80px;"">+ 0 points</p>","null","html-keyboard-response","63","809419","0.0-11.0-2.62","57b4e9d152a08d0001d1b9dc","4q3c9w","BL","66","F","{""name"":""Chrome"",""chrome"":true,""version"":""106.0"",""blink"":true,""windows"":true,""osname"":""Windows"",""osversion"":""7"",""a"":true}","9:21:3","1","3","Test_4","70","j","0","1228.699999999255","1366 x 768","1366 x 768","true","1","0","","","","",""
"null","<p style=""font-size: 80px;"">+ 10 points</p>","null","html-keyboard-response","64","812637","0.0-11.0-2.63","57b4e9d152a08d0001d1b9dc","4q3c9w","BL","66","F","{""name"":""Chrome"",""chrome"":true,""version"":""106.0"",""blink"":true,""windows"":true,""osname"":""Windows"",""osversion"":""7"",""a"":true}","9:21:3","1","3","Test_2","74","j","1","1183","1366 x 768","1366 x 768","true","1","10","","","","",""
"null","<p style=""font-size: 80px;"">+ 0 points</p>","null","html-keyboard-response","65","815887","0.0-11.0-2.64","57b4e9d152a08d0001d1b9dc","4q3c9w","BL","66","F","{""name"":""Chrome"",""chrome"":true,""version"":""106.0"",""blink"":true,""windows"":true,""osname"":""Windows"",""osversion"":""7"",""a"":true}","9:21:3","1","3","Test_4","70","j","0","1214.4000000003725","1366 x 768","1366 x 768","true","1","0","","","","",""
"null","<p style=""font-size: 80px;"">+ 0 points</p>","null","html-keyboard-response","66","819056","0.0-11.0-2.65","57b4e9d152a08d0001d1b9dc","4q3c9w","BL","66","F","{""name"":""Chrome"",""chrome"":true,""version"":""106.0"",""blink"":true,""windows"":true,""osname"":""Windows"",""osversion"":""7"",""a"":true}","9:21:3","1","3","Test_1","74","f","0","1146.0999999996275","1366 x 768","1366 x 768","true","1","0","","","","",""
"null","<p style=""font-size: 80px;"">+ 0 points</p>","null","html-keyboard-response","67","822170","0.0-11.0-2.66","57b4e9d152a08d0001d1b9dc","4q3c9w","BL","66","F","{""name"":""Chrome"",""chrome"":true,""version"":""106.0"",""blink"":true,""windows"":true,""osname"":""Windows"",""osversion"":""7"",""a"":true}","9:21:3","1","3","Test_2","70","j","0","1089.9000000003725","1366 x 768","1366 x 768","true","1","0","","","","",""
"null","<p style=""font-size: 80px;"">+ 10 points</p>","null","html-keyboard-response","68","826154","0.0-11.0-2.67","57b4e9d152a08d0001d1b9dc","4q3c9w","BL","66","F","{""name"":""Chrome"",""chrome"":true,""version"":""106.0"",""blink"":true,""windows"":true,""osname"":""Windows"",""osversion"":""7"",""a"":true}","9:21:3","1","3","Test_4","74","j","1","1953.0999999996275","1366 x 768","1366 x 768","true","1","10","","","","",""
"null","<p style=""font-size: 80px;"">+ 10 points</p>","null","html-keyboard-response","69","829888","0.0-11.0-2.68","57b4e9d152a08d0001d1b9dc","4q3c9w","BL","66","F","{""name"":""Chrome"",""chrome"":true,""version"":""106.0"",""blink"":true,""windows"":true,""osname"":""Windows"",""osversion"":""7"",""a"":true}","9:21:3","1","3","Test_2","74","j","1","1707.5","1366 x 768","1366 x 768","true","1","10","","","","",""
"null","<p style=""font-size: 80px;"">+ 10 points</p>","null","html-keyboard-response","70","832938","0.0-11.0-2.69","57b4e9d152a08d0001d1b9dc","4q3c9w","BL","66","F","{""name"":""Chrome"",""chrome"":true,""version"":""106.0"",""blink"":true,""windows"":true,""osname"":""Windows"",""osversion"":""7"",""a"":true}","9:21:3","1","3","Test_2","74","j","1","1023.3999999985099","1366 x 768","1366 x 768","true","1","10","","","","",""
"null","<p style=""font-size: 80px;"">+ 0 points</p>","null","html-keyboard-response","71","835939","0.0-11.0-2.70","57b4e9d152a08d0001d1b9dc","4q3c9w","BL","66","F","{""name"":""Chrome"",""chrome"":true,""version"":""106.0"",""blink"":true,""windows"":true,""osname"":""Windows"",""osversion"":""7"",""a"":true}","9:21:3","1","3","Test_1","74","f","0","972.5999999996275","1366 x 768","1366 x 768","true","1","0","","","","",""
"null","<p style=""font-size: 80px;"">+ 10 points</p>","null","html-keyboard-response","72","838839","0.0-11.0-2.71","57b4e9d152a08d0001d1b9dc","4q3c9w","BL","66","F","{""name"":""Chrome"",""chrome"":true,""version"":""106.0"",""blink"":true,""windows"":true,""osname"":""Windows"",""osversion"":""7"",""a"":true}","9:21:3","1","3","Test_1","70","f","1","867","1366 x 768","1366 x 768","true","1","10","","","","",""
"null","<p style=""font-size: 80px;"">+ 10 points</p>","null","html-keyboard-response","73","841958","0.0-11.0-2.72","57b4e9d152a08d0001d1b9dc","4q3c9w","BL","66","F","{""name"":""Chrome"",""chrome"":true,""version"":""106.0"",""blink"":true,""windows"":true,""osname"":""Windows"",""osversion"":""7"",""a"":true}","9:21:3","1","3","Test_4","74","j","1","1090.4000000003725","1366 x 768","1366 x 768","true","1","10","","","","",""
"null","<p style=""font-size: 80px;"">+ 0 points</p>","null","html-keyboard-response","74","844975","0.0-11.0-2.73","57b4e9d152a08d0001d1b9dc","4q3c9w","BL","66","F","{""name"":""Chrome"",""chrome"":true,""version"":""106.0"",""blink"":true,""windows"":true,""osname"":""Windows"",""osversion"":""7"",""a"":true}","9:21:3","1","3","Test_3","74","f","0","989.4000000003725","1366 x 768","1366 x 768","true","1","0","","","","",""
"null","<p style=""font-size: 80px;"">+ 0 points</p>","null","html-keyboard-response","75","848410","0.0-11.0-2.74","57b4e9d152a08d0001d1b9dc","4q3c9w","BL","66","F","{""name"":""Chrome"",""chrome"":true,""version"":""106.0"",""blink"":true,""windows"":true,""osname"":""Windows"",""osversion"":""7"",""a"":true}","9:21:3","1","4","Test_3","70","j","0","1408.0999999996275","1366 x 768","1366 x 768","true","1","0","","","","",""
"null","<p style=""font-size: 80px;"">+ 0 points</p>","null","html-keyboard-response","76","851332","0.0-11.0-2.75","57b4e9d152a08d0001d1b9dc","4q3c9w","BL","66","F","{""name"":""Chrome"",""chrome"":true,""version"":""106.0"",""blink"":true,""windows"":true,""osname"":""Windows"",""osversion"":""7"",""a"":true}","9:21:3","1","4","Test_4","74","f","0","896.5999999996275","1366 x 768","1366 x 768","true","1","0","","","","",""
"null","<p style=""font-size: 80px;"">+ 0 points</p>","null","html-keyboard-response","77","855103","0.0-11.0-2.76","57b4e9d152a08d0001d1b9dc","4q3c9w","BL","66","F","{""name"":""Chrome"",""chrome"":true,""version"":""106.0"",""blink"":true,""windows"":true,""osname"":""Windows"",""osversion"":""7"",""a"":true}","9:21:3","1","4","Test_1","70","j","0","1741.699999999255","1366 x 768","1366 x 768","true","1","0","","","","",""
"null","<p style=""font-size: 80px;"">+ 10 points</p>","null","html-keyboard-response","78","858138","0.0-11.0-2.77","57b4e9d152a08d0001d1b9dc","4q3c9w","BL","66","F","{""name"":""Chrome"",""chrome"":true,""version"":""106.0"",""blink"":true,""windows"":true,""osname"":""Windows"",""osversion"":""7"",""a"":true}","9:21:3","1","4","Test_1","74","j","1","998.5","1366 x 768","1366 x 768","true","1","10","","","","",""
"null","<p style=""font-size: 80px;"">+ 0 points</p>","null","html-keyboard-response","79","861271","0.0-11.0-2.78","57b4e9d152a08d0001d1b9dc","4q3c9w","BL","66","F","{""name"":""Chrome"",""chrome"":true,""version"":""106.0"",""blink"":true,""windows"":true,""osname"":""Windows"",""osversion"":""7"",""a"":true}","9:21:3","1","4","Test_3","70","j","0","1104.199999999255","1366 x 768","1366 x 768","true","1","0","","","","",""
"null","<p style=""font-size: 80px;"">+ 10 points</p>","null","html-keyboard-response","80","864053","0.0-11.0-2.79","57b4e9d152a08d0001d1b9dc","4q3c9w","BL","66","F","{""name"":""Chrome"",""chrome"":true,""version"":""106.0"",""blink"":true,""windows"":true,""osname"":""Windows"",""osversion"":""7"",""a"":true}","9:21:3","1","4","Test_4","70","f","1","745.0999999996275","1366 x 768","1366 x 768","true","1","10","","","","",""
"null","<p style=""font-size: 80px;"">+ 0 points</p>","null","html-keyboard-response","81","867121","0.0-11.0-2.80","57b4e9d152a08d0001d1b9dc","4q3c9w","BL","66","F","{""name"":""Chrome"",""chrome"":true,""version"":""106.0"",""blink"":true,""windows"":true,""osname"":""Windows"",""osversion"":""7"",""a"":true}","9:21:3","1","4","Test_2","74","f","0","1041.8999999985099","1366 x 768","1366 x 768","true","1","0","","","","",""
"null","<p style=""font-size: 80px;"">+ 0 points</p>","null","html-keyboard-response","82","870172","0.0-11.0-2.81","57b4e9d152a08d0001d1b9dc","4q3c9w","BL","66","F","{""name"":""Chrome"",""chrome"":true,""version"":""106.0"",""blink"":true,""windows"":true,""osname"":""Windows"",""osversion"":""7"",""a"":true}","9:21:3","1","4","Test_3","70","j","0","1016.0999999996275","1366 x 768","1366 x 768","true","1","0","","","","",""
"null","<p style=""font-size: 80px;"">+ 0 points</p>","null","html-keyboard-response","83","873245","0.0-11.0-2.82","57b4e9d152a08d0001d1b9dc","4q3c9w","BL","66","F","{""name"":""Chrome"",""chrome"":true,""version"":""106.0"",""blink"":true,""windows"":true,""osname"":""Windows"",""osversion"":""7"",""a"":true}","9:21:3","1","4","Test_1","70","j","0","1045.300000000745","1366 x 768","1366 x 768","true","1","0","","","","",""
"null","<p style=""font-size: 80px;"">+ 0 points</p>","null","html-keyboard-response","84","876922","0.0-11.0-2.83","57b4e9d152a08d0001d1b9dc","4q3c9w","BL","66","F","{""name"":""Chrome"",""chrome"":true,""version"":""106.0"",""blink"":true,""windows"":true,""osname"":""Windows"",""osversion"":""7"",""a"":true}","9:21:3","1","4","Test_3","70","j","0","1646","1366 x 768","1366 x 768","true","1","0","","","","",""
"null","<p style=""font-size: 80px;"">+ 10 points</p>","null","html-keyboard-response","85","879940","0.0-11.0-2.84","57b4e9d152a08d0001d1b9dc","4q3c9w","BL","66","F","{""name"":""Chrome"",""chrome"":true,""version"":""106.0"",""blink"":true,""windows"":true,""osname"":""Windows"",""osversion"":""7"",""a"":true}","9:21:3","1","4","Test_1","74","j","1","995","1366 x 768","1366 x 768","true","1","10","","","","",""
"null","<p style=""font-size: 80px;"">+ 10 points</p>","null","html-keyboard-response","86","883090","0.0-11.0-2.85","57b4e9d152a08d0001d1b9dc","4q3c9w","BL","66","F","{""name"":""Chrome"",""chrome"":true,""version"":""106.0"",""blink"":true,""windows"":true,""osname"":""Windows"",""osversion"":""7"",""a"":true}","9:21:3","1","4","Test_4","70","f","1","1122.4000000003725","1366 x 768","1366 x 768","true","1","10","","","","",""
"null","<p style=""font-size: 80px;"">+ 0 points</p>","null","html-keyboard-response","87","886041","0.0-11.0-2.86","57b4e9d152a08d0001d1b9dc","4q3c9w","BL","66","F","{""name"":""Chrome"",""chrome"":true,""version"":""106.0"",""blink"":true,""windows"":true,""osname"":""Windows"",""osversion"":""7"",""a"":true}","9:21:3","1","4","Test_2","74","f","0","915","1366 x 768","1366 x 768","true","1","0","","","","",""
"null","<p style=""font-size: 80px;"">+ 0 points</p>","null","html-keyboard-response","88","888976","0.0-11.0-2.87","57b4e9d152a08d0001d1b9dc","4q3c9w","BL","66","F","{""name"":""Chrome"",""chrome"":true,""version"":""106.0"",""blink"":true,""windows"":true,""osname"":""Windows"",""osversion"":""7"",""a"":true}","9:21:3","1","4","Test_2","74","f","0","899.3999999985099","1366 x 768","1366 x 768","true","1","0","","","","",""
"null","<p style=""font-size: 80px;"">+ 10 points</p>","null","html-keyboard-response","89","892242","0.0-11.0-2.88","57b4e9d152a08d0001d1b9dc","4q3c9w","BL","66","F","{""name"":""Chrome"",""chrome"":true,""version"":""106.0"",""blink"":true,""windows"":true,""osname"":""Windows"",""osversion"":""7"",""a"":true}","9:21:3","1","4","Test_2","70","f","1","1230.199999999255","1366 x 768","1366 x 768","true","1","10","","","","",""
"null","<p style=""font-size: 80px;"">+ 10 points</p>","null","html-keyboard-response","90","895559","0.0-11.0-2.89","57b4e9d152a08d0001d1b9dc","4q3c9w","BL","66","F","{""name"":""Chrome"",""chrome"":true,""version"":""106.0"",""blink"":true,""windows"":true,""osname"":""Windows"",""osversion"":""7"",""a"":true}","9:21:3","1","4","Test_3","74","j","1","1278.3999999985099","1366 x 768","1366 x 768","true","1","10","","","","",""
"null","<p style=""font-size: 80px;"">+ 0 points</p>","null","html-keyboard-response","91","898494","0.0-11.0-2.90","57b4e9d152a08d0001d1b9dc","4q3c9w","BL","66","F","{""name"":""Chrome"",""chrome"":true,""version"":""106.0"",""blink"":true,""windows"":true,""osname"":""Windows"",""osversion"":""7"",""a"":true}","9:21:3","1","4","Test_4","74","f","0","898.1000000014901","1366 x 768","1366 x 768","true","1","0","","","","",""
"null","<p style=""font-size: 80px;"">+ 10 points</p>","null","html-keyboard-response","92","901726","0.0-11.0-2.91","57b4e9d152a08d0001d1b9dc","4q3c9w","BL","66","F","{""name"":""Chrome"",""chrome"":true,""version"":""106.0"",""blink"":true,""windows"":true,""osname"":""Windows"",""osversion"":""7"",""a"":true}","9:21:3","1","3","Test_3","70","f","1","1193.5999999996275","1366 x 768","1366 x 768","true","1","10","","","","",""
"null","<p style=""font-size: 80px;"">+ 10 points</p>","null","html-keyboard-response","93","904728","0.0-11.0-2.92","57b4e9d152a08d0001d1b9dc","4q3c9w","BL","66","F","{""name"":""Chrome"",""chrome"":true,""version"":""106.0"",""blink"":true,""windows"":true,""osname"":""Windows"",""osversion"":""7"",""a"":true}","9:21:3","1","3","Test_3","70","f","1","970.1999999992549","1366 x 768","1366 x 768","true","1","10","","","","",""
"null","<p style=""font-size: 80px;"">+ 0 points</p>","null","html-keyboard-response","94","907745","0.0-11.0-2.93","57b4e9d152a08d0001d1b9dc","4q3c9w","BL","66","F","{""name"":""Chrome"",""chrome"":true,""version"":""106.0"",""blink"":true,""windows"":true,""osname"":""Windows"",""osversion"":""7"",""a"":true}","9:21:3","1","3","Test_1","74","f","0","991.5","1366 x 768","1366 x 768","true","1","0","","","","",""
"null","<p style=""font-size: 80px;"">+ 0 points</p>","null","html-keyboard-response","95","910692","0.0-11.0-2.94","57b4e9d152a08d0001d1b9dc","4q3c9w","BL","66","F","{""name"":""Chrome"",""chrome"":true,""version"":""106.0"",""blink"":true,""windows"":true,""osname"":""Windows"",""osversion"":""7"",""a"":true}","9:21:3","1","3","Test_2","70","j","0","918.3000000007451","1366 x 768","1366 x 768","true","1","0","","","","",""
"null","<p style=""font-size: 80px;"">+ 10 points</p>","null","html-keyboard-response","96","914137","0.0-11.0-2.95","57b4e9d152a08d0001d1b9dc","4q3c9w","BL","66","F","{""name"":""Chrome"",""chrome"":true,""version"":""106.0"",""blink"":true,""windows"":true,""osname"":""Windows"",""osversion"":""7"",""a"":true}","9:21:3","1","3","Test_4","74","j","1","1409.7000000011176","1366 x 768","1366 x 768","true","1","10","","","","",""
"null","<p style=""font-size: 80px;"">+ 10 points</p>","null","html-keyboard-response","97","917325","0.0-11.0-2.96","57b4e9d152a08d0001d1b9dc","4q3c9w","BL","66","F","{""name"":""Chrome"",""chrome"":true,""version"":""106.0"",""blink"":true,""windows"":true,""osname"":""Windows"",""osversion"":""7"",""a"":true}","9:21:3","1","3","Test_1","70","f","1","1159","1366 x 768","1366 x 768","true","1","10","","","","",""
"null","<p style=""font-size: 80px;"">+ 0 points</p>","null","html-keyboard-response","98","920175","0.0-11.0-2.97","57b4e9d152a08d0001d1b9dc","4q3c9w","BL","66","F","{""name"":""Chrome"",""chrome"":true,""version"":""106.0"",""blink"":true,""windows"":true,""osname"":""Windows"",""osversion"":""7"",""a"":true}","9:21:3","1","3","Test_2","70","j","0","812.9000000003725","1366 x 768","1366 x 768","true","1","0","","","","",""
"null","<p style=""font-size: 80px;"">+ 0 points</p>","null","html-keyboard-response","99","923261","0.0-11.0-2.98","57b4e9d152a08d0001d1b9dc","4q3c9w","BL","66","F","{""name"":""Chrome"",""chrome"":true,""version"":""106.0"",""blink"":true,""windows"":true,""osname"":""Windows"",""osversion"":""7"",""a"":true}","9:21:3","1","3","Test_4","70","j","0","1057.9000000003725","1366 x 768","1366 x 768","true","1","0","","","","",""
"null","<p style=""font-size: 80px;"">+ 10 points</p>","null","html-keyboard-response","100","926144","0.0-11.0-2.99","57b4e9d152a08d0001d1b9dc","4q3c9w","BL","66","F","{""name"":""Chrome"",""chrome"":true,""version"":""106.0"",""blink"":true,""windows"":true,""osname"":""Windows"",""osversion"":""7"",""a"":true}","9:21:3","1","3","Test_4","74","j","1","858.6999999992549","1366 x 768","1366 x 768","true","1","10","","","","",""
"null","<p style=""font-size: 80px;"">+ 10 points</p>","null","html-keyboard-response","101","929048","0.0-11.0-2.100","57b4e9d152a08d0001d1b9dc","4q3c9w","BL","66","F","{""name"":""Chrome"",""chrome"":true,""version"":""106.0"",""blink"":true,""windows"":true,""osname"":""Windows"",""osversion"":""7"",""a"":true}","9:21:3","1","3","Test_1","70","f","1","870.4000000003725","1366 x 768","1366 x 768","true","1","10","","","","",""
"null","<p style=""font-size: 80px;"">+ 0 points</p>","null","html-keyboard-response","102","932312","0.0-11.0-2.101","57b4e9d152a08d0001d1b9dc","4q3c9w","BL","66","F","{""name"":""Chrome"",""chrome"":true,""version"":""106.0"",""blink"":true,""windows"":true,""osname"":""Windows"",""osversion"":""7"",""a"":true}","9:21:3","1","3","Test_3","74","f","0","1233.5999999996275","1366 x 768","1366 x 768","true","1","0","","","","",""
"null","<p style=""font-size: 80px;"">+ 0 points</p>","null","html-keyboard-response","103","935813","0.0-11.0-2.102","57b4e9d152a08d0001d1b9dc","4q3c9w","BL","66","F","{""name"":""Chrome"",""chrome"":true,""version"":""106.0"",""blink"":true,""windows"":true,""osname"":""Windows"",""osversion"":""7"",""a"":true}","9:21:3","1","3","Test_4","70","j","0","1476.800000000745","1366 x 768","1366 x 768","true","1","0","","","","",""
"null","<p style=""font-size: 80px;"">+ 0 points</p>","null","html-keyboard-response","104","939065","0.0-11.0-2.103","57b4e9d152a08d0001d1b9dc","4q3c9w","BL","66","F","{""name"":""Chrome"",""chrome"":true,""version"":""106.0"",""blink"":true,""windows"":true,""osname"":""Windows"",""osversion"":""7"",""a"":true}","9:21:3","1","3","Test_4","70","j","0","1216.7999999988824","1366 x 768","1366 x 768","true","1","0","","","","",""
"null","<p style=""font-size: 80px;"">+ 0 points</p>","null","html-keyboard-response","105","942163","0.0-11.0-2.104","57b4e9d152a08d0001d1b9dc","4q3c9w","BL","66","F","{""name"":""Chrome"",""chrome"":true,""version"":""106.0"",""blink"":true,""windows"":true,""osname"":""Windows"",""osversion"":""7"",""a"":true}","9:21:3","1","3","Test_2","70","j","0","1060.2999999988824","1366 x 768","1366 x 768","true","1","0","","","","",""
"null","<p style=""font-size: 80px;"">+ 0 points</p>","null","html-keyboard-response","106","945248","0.0-11.0-2.105","57b4e9d152a08d0001d1b9dc","4q3c9w","BL","66","F","{""name"":""Chrome"",""chrome"":true,""version"":""106.0"",""blink"":true,""windows"":true,""osname"":""Windows"",""osversion"":""7"",""a"":true}","9:21:3","1","3","Test_1","74","f","0","1049.2000000011176","1366 x 768","1366 x 768","true","1","0","","","","",""
"null","<p style=""font-size: 80px;"">+ 10 points</p>","null","html-keyboard-response","107","948214","0.0-11.0-2.106","57b4e9d152a08d0001d1b9dc","4q3c9w","BL","66","F","{""name"":""Chrome"",""chrome"":true,""version"":""106.0"",""blink"":true,""windows"":true,""osname"":""Windows"",""osversion"":""7"",""a"":true}","9:21:3","1","3","Test_2","74","j","1","928.4000000003725","1366 x 768","1366 x 768","true","1","10","","","","",""
"null","<p style=""font-size: 80px;"">+ 0 points</p>","null","html-keyboard-response","108","951399","0.0-11.0-2.107","57b4e9d152a08d0001d1b9dc","4q3c9w","BL","66","F","{""name"":""Chrome"",""chrome"":true,""version"":""106.0"",""blink"":true,""windows"":true,""osname"":""Windows"",""osversion"":""7"",""a"":true}","9:21:3","1","3","Test_1","74","f","0","1172.4000000003725","1366 x 768","1366 x 768","true","1","0","","","","",""
"null","<p style=""font-size: 80px;"">+ 0 points</p>","null","html-keyboard-response","109","954550","0.0-11.0-2.108","57b4e9d152a08d0001d1b9dc","4q3c9w","BL","66","F","{""name"":""Chrome"",""chrome"":true,""version"":""106.0"",""blink"":true,""windows"":true,""osname"":""Windows"",""osversion"":""7"",""a"":true}","9:21:3","1","3","Test_4","70","j","0","1120.7999999988824","1366 x 768","1366 x 768","true","1","0","","","","",""
"null","<p style=""font-size: 80px;"">+ 10 points</p>","null","html-keyboard-response","110","975648","0.0-11.0-2.109","57b4e9d152a08d0001d1b9dc","4q3c9w","BL","66","F","{""name"":""Chrome"",""chrome"":true,""version"":""106.0"",""blink"":true,""windows"":true,""osname"":""Windows"",""osversion"":""7"",""a"":true}","9:21:3","1","3","Test_2","74","j","1","878.7999999988824","1366 x 768","1366 x 768","true","1","10","","","","",""
"null","<p style=""font-size: 80px;"">+ 0 points</p>","null","html-keyboard-response","111","978815","0.0-11.0-2.110","57b4e9d152a08d0001d1b9dc","4q3c9w","BL","66","F","{""name"":""Chrome"",""chrome"":true,""version"":""106.0"",""blink"":true,""windows"":true,""osname"":""Windows"",""osversion"":""7"",""a"":true}","9:21:3","1","3","Test_1","74","f","0","1135.5","1366 x 768","1366 x 768","true","1","0","","","","",""
"null","<p style=""font-size: 80px;"">+ 10 points</p>","null","html-keyboard-response","112","982649","0.0-11.0-2.111","57b4e9d152a08d0001d1b9dc","4q3c9w","BL","66","F","{""name"":""Chrome"",""chrome"":true,""version"":""106.0"",""blink"":true,""windows"":true,""osname"":""Windows"",""osversion"":""7"",""a"":true}","9:21:3","1","3","Test_2","74","j","1","1802.300000000745","1366 x 768","1366 x 768","true","1","10","","","","",""
"null","<p style=""font-size: 80px;"">+ 10 points</p>","null","html-keyboard-response","113","986183","0.0-11.0-2.112","57b4e9d152a08d0001d1b9dc","4q3c9w","BL","66","F","{""name"":""Chrome"",""chrome"":true,""version"":""106.0"",""blink"":true,""windows"":true,""osname"":""Windows"",""osversion"":""7"",""a"":true}","9:21:3","1","3","Test_3","70","f","1","1505.4000000003725","1366 x 768","1366 x 768","true","1","10","","","","",""
"null","<p style=""font-size: 80px;"">+ 10 points</p>","null","html-keyboard-response","114","989541","0.0-11.0-2.113","57b4e9d152a08d0001d1b9dc","4q3c9w","BL","66","F","{""name"":""Chrome"",""chrome"":true,""version"":""106.0"",""blink"":true,""windows"":true,""osname"":""Windows"",""osversion"":""7"",""a"":true}","9:21:3","1","3","Test_3","70","f","1","1327.5999999996275","1366 x 768","1366 x 768","true","1","10","","","","",""
"null","<p style=""font-size: 80px;"">+ 10 points</p>","null","html-keyboard-response","115","992534","0.0-11.0-2.114","57b4e9d152a08d0001d1b9dc","4q3c9w","BL","66","F","{""name"":""Chrome"",""chrome"":true,""version"":""106.0"",""blink"":true,""windows"":true,""osname"":""Windows"",""osversion"":""7"",""a"":true}","9:21:3","1","4","Test_1","74","j","1","959.0999999996275","1366 x 768","1366 x 768","true","1","10","","","","",""
"null","<p style=""font-size: 80px;"">+ 0 points</p>","null","html-keyboard-response","116","995602","0.0-11.0-2.115","57b4e9d152a08d0001d1b9dc","4q3c9w","BL","66","F","{""name"":""Chrome"",""chrome"":true,""version"":""106.0"",""blink"":true,""windows"":true,""osname"":""Windows"",""osversion"":""7"",""a"":true}","9:21:3","1","4","Test_3","70","j","0","1027.5999999996275","1366 x 768","1366 x 768","true","1","0","","","","",""
"null","<p style=""font-size: 80px;"">+ 0 points</p>","null","html-keyboard-response","117","998769","0.0-11.0-2.116","57b4e9d152a08d0001d1b9dc","4q3c9w","BL","66","F","{""name"":""Chrome"",""chrome"":true,""version"":""106.0"",""blink"":true,""windows"":true,""osname"":""Windows"",""osversion"":""7"",""a"":true}","9:21:3","1","4","Test_4","74","f","0","1140.7999999988824","1366 x 768","1366 x 768","true","1","0","","","","",""
"null","<p style=""font-size: 80px;"">+ 0 points</p>","null","html-keyboard-response","118","1002169","0.0-11.0-2.117","57b4e9d152a08d0001d1b9dc","4q3c9w","BL","66","F","{""name"":""Chrome"",""chrome"":true,""version"":""106.0"",""blink"":true,""windows"":true,""osname"":""Windows"",""osversion"":""7"",""a"":true}","9:21:3","1","4","Test_2","74","f","0","1359.5999999996275","1366 x 768","1366 x 768","true","1","0","","","","",""
"null","<p style=""font-size: 80px;"">+ 10 points</p>","null","html-keyboard-response","119","1005020","0.0-11.0-2.118","57b4e9d152a08d0001d1b9dc","4q3c9w","BL","66","F","{""name"":""Chrome"",""chrome"":true,""version"":""106.0"",""blink"":true,""windows"":true,""osname"":""Windows"",""osversion"":""7"",""a"":true}","9:21:3","1","4","Test_2","70","f","1","824.2000000011176","1366 x 768","1366 x 768","true","1","10","","","","",""
"null","<p style=""font-size: 80px;"">+ 10 points</p>","null","html-keyboard-response","120","1008071","0.0-11.0-2.119","57b4e9d152a08d0001d1b9dc","4q3c9w","BL","66","F","{""name"":""Chrome"",""chrome"":true,""version"":""106.0"",""blink"":true,""windows"":true,""osname"":""Windows"",""osversion"":""7"",""a"":true}","9:21:3","1","4","Test_3","74","j","1","1025.9000000003725","1366 x 768","1366 x 768","true","1","10","","","","",""
"null","<p style=""font-size: 80px;"">+ 0 points</p>","null","html-keyboard-response","121","1010969","0.0-11.0-2.120","57b4e9d152a08d0001d1b9dc","4q3c9w","BL","66","F","{""name"":""Chrome"",""chrome"":true,""version"":""106.0"",""blink"":true,""windows"":true,""osname"":""Windows"",""osversion"":""7"",""a"":true}","9:21:3","1","4","Test_4","74","f","0","859.9000000003725","1366 x 768","1366 x 768","true","1","0","","","","",""
"null","<p style=""font-size: 80px;"">+ 10 points</p>","null","html-keyboard-response","122","1014104","0.0-11.0-2.121","57b4e9d152a08d0001d1b9dc","4q3c9w","BL","66","F","{""name"":""Chrome"",""chrome"":true,""version"":""106.0"",""blink"":true,""windows"":true,""osname"":""Windows"",""osversion"":""7"",""a"":true}","9:21:3","1","4","Test_4","70","f","1","1098.0999999996275","1366 x 768","1366 x 768","true","1","10","","","","",""
"null","<p style=""font-size: 80px;"">+ 10 points</p>","null","html-keyboard-response","123","1017222","0.0-11.0-2.122","57b4e9d152a08d0001d1b9dc","4q3c9w","BL","66","F","{""name"":""Chrome"",""chrome"":true,""version"":""106.0"",""blink"":true,""windows"":true,""osname"":""Windows"",""osversion"":""7"",""a"":true}","9:21:3","1","4","Test_4","70","f","1","1085.9000000003725","1366 x 768","1366 x 768","true","1","10","","","","",""
"null","<p style=""font-size: 80px;"">+ 0 points</p>","null","html-keyboard-response","124","1020256","0.0-11.0-2.123","57b4e9d152a08d0001d1b9dc","4q3c9w","BL","66","F","{""name"":""Chrome"",""chrome"":true,""version"":""106.0"",""blink"":true,""windows"":true,""osname"":""Windows"",""osversion"":""7"",""a"":true}","9:21:3","1","4","Test_3","70","j","0","1003","1366 x 768","1366 x 768","true","1","0","","","","",""
"null","<p style=""font-size: 80px;"">+ 0 points</p>","null","html-keyboard-response","125","1023390","0.0-11.0-2.124","57b4e9d152a08d0001d1b9dc","4q3c9w","BL","66","F","{""name"":""Chrome"",""chrome"":true,""version"":""106.0"",""blink"":true,""windows"":true,""osname"":""Windows"",""osversion"":""7"",""a"":true}","9:21:3","1","4","Test_4","74","f","0","1099.800000000745","1366 x 768","1366 x 768","true","1","0","","","","",""
"null","<p style=""font-size: 80px;"">+ 0 points</p>","null","html-keyboard-response","126","1026640","0.0-11.0-2.125","57b4e9d152a08d0001d1b9dc","4q3c9w","BL","66","F","{""name"":""Chrome"",""chrome"":true,""version"":""106.0"",""blink"":true,""windows"":true,""osname"":""Windows"",""osversion"":""7"",""a"":true}","9:21:3","1","4","Test_2","74","f","0","1216.199999999255","1366 x 768","1366 x 768","true","1","0","","","","",""
"null","<p style=""font-size: 80px;"">+ 0 points</p>","null","html-keyboard-response","127","1029991","0.0-11.0-2.126","57b4e9d152a08d0001d1b9dc","4q3c9w","BL","66","F","{""name"":""Chrome"",""chrome"":true,""version"":""106.0"",""blink"":true,""windows"":true,""osname"":""Windows"",""osversion"":""7"",""a"":true}","9:21:3","1","4","Test_1","70","j","0","1325.2000000011176","1366 x 768","1366 x 768","true","1","0","","","","",""
"null","<p style=""font-size: 80px;"">+ 10 points</p>","null","html-keyboard-response","128","1033241","0.0-11.0-2.127","57b4e9d152a08d0001d1b9dc","4q3c9w","BL","66","F","{""name"":""Chrome"",""chrome"":true,""version"":""106.0"",""blink"":true,""windows"":true,""osname"":""Windows"",""osversion"":""7"",""a"":true}","9:21:3","1","4","Test_1","74","j","1","1215.5","1366 x 768","1366 x 768","true","1","10","","","","",""
"null","<p style=""font-size: 80px;"">+ 0 points</p>","null","html-keyboard-response","129","1035992","0.0-11.0-2.128","57b4e9d152a08d0001d1b9dc","4q3c9w","BL","66","F","{""name"":""Chrome"",""chrome"":true,""version"":""106.0"",""blink"":true,""windows"":true,""osname"":""Windows"",""osversion"":""7"",""a"":true}","9:21:3","1","4","Test_2","74","f","0","718.5999999996275","1366 x 768","1366 x 768","true","1","0","","","","",""
"null","<p style=""font-size: 80px;"">+ 0 points</p>","null","html-keyboard-response","130","1038946","0.0-11.0-2.129","57b4e9d152a08d0001d1b9dc","4q3c9w","BL","66","F","{""name"":""Chrome"",""chrome"":true,""version"":""106.0"",""blink"":true,""windows"":true,""osname"":""Windows"",""osversion"":""7"",""a"":true}","9:21:3","1","4","Test_2","74","f","0","914.9000000003725","1366 x 768","1366 x 768","true","1","0","","","","",""
"null","<p style=""font-size: 80px;"">+ 10 points</p>","null","html-keyboard-response","131","1041892","0.0-11.0-2.130","57b4e9d152a08d0001d1b9dc","4q3c9w","BL","66","F","{""name"":""Chrome"",""chrome"":true,""version"":""106.0"",""blink"":true,""windows"":true,""osname"":""Windows"",""osversion"":""7"",""a"":true}","9:21:3","1","4","Test_1","74","j","1","912.6999999992549","1366 x 768","1366 x 768","true","1","10","","","","",""
"null","<p style=""font-size: 80px;"">+ 0 points</p>","null","html-keyboard-response","132","1045245","0.0-11.0-2.131","57b4e9d152a08d0001d1b9dc","4q3c9w","BL","66","F","{""name"":""Chrome"",""chrome"":true,""version"":""106.0"",""blink"":true,""windows"":true,""osname"":""Windows"",""osversion"":""7"",""a"":true}","9:21:3","1","4","Test_3","70","j","0","1320.4000000003725","1366 x 768","1366 x 768","true","1","0","","","","",""
"null","<p style=""font-size: 80px;"">+ 10 points</p>","null","html-keyboard-response","133","1048213","0.0-11.0-2.132","57b4e9d152a08d0001d1b9dc","4q3c9w","BL","66","F","{""name"":""Chrome"",""chrome"":true,""version"":""106.0"",""blink"":true,""windows"":true,""osname"":""Windows"",""osversion"":""7"",""a"":true}","9:21:3","1","4","Test_1","74","j","1","939.0999999996275","1366 x 768","1366 x 768","true","1","10","","","","",""
"null","<p style=""font-size: 80px;"">+ 0 points</p>","null","html-keyboard-response","134","1050994","0.0-11.0-2.133","57b4e9d152a08d0001d1b9dc","4q3c9w","BL","66","F","{""name"":""Chrome"",""chrome"":true,""version"":""106.0"",""blink"":true,""windows"":true,""osname"":""Windows"",""osversion"":""7"",""a"":true}","9:21:3","1","3","Test_1","74","f","0","741.2999999988824","1366 x 768","1366 x 768","true","1","0","","","","",""
"null","<p style=""font-size: 80px;"">+ 10 points</p>","null","html-keyboard-response","135","1054044","0.0-11.0-2.134","57b4e9d152a08d0001d1b9dc","4q3c9w","BL","66","F","{""name"":""Chrome"",""chrome"":true,""version"":""106.0"",""blink"":true,""windows"":true,""osname"":""Windows"",""osversion"":""7"",""a"":true}","9:21:3","1","3","Test_3","70","f","1","1014.2999999988824","1366 x 768","1366 x 768","true","1","10","","","","",""
"null","<p style=""font-size: 80px;"">+ 0 points</p>","null","html-keyboard-response","136","1056979","0.0-11.0-2.135","57b4e9d152a08d0001d1b9dc","4q3c9w","BL","66","F","{""name"":""Chrome"",""chrome"":true,""version"":""106.0"",""blink"":true,""windows"":true,""osname"":""Windows"",""osversion"":""7"",""a"":true}","9:21:3","1","3","Test_4","70","j","0","899.8000000007451","1366 x 768","1366 x 768","true","1","0","","","","",""
"null","<p style=""font-size: 80px;"">+ 10 points</p>","null","html-keyboard-response","137","1060063","0.0-11.0-2.136","57b4e9d152a08d0001d1b9dc","4q3c9w","BL","66","F","{""name"":""Chrome"",""chrome"":true,""version"":""106.0"",""blink"":true,""windows"":true,""osname"":""Windows"",""osversion"":""7"",""a"":true}","9:21:3","1","3","Test_3","70","f","1","1051.0999999996275","1366 x 768","1366 x 768","true","1","10","","","","",""
"null","<p style=""font-size: 80px;"">+ 0 points</p>","null","html-keyboard-response","138","1062964","0.0-11.0-2.137","57b4e9d152a08d0001d1b9dc","4q3c9w","BL","66","F","{""name"":""Chrome"",""chrome"":true,""version"":""106.0"",""blink"":true,""windows"":true,""osname"":""Windows"",""osversion"":""7"",""a"":true}","9:21:3","1","3","Test_4","70","j","0","871.5","1366 x 768","1366 x 768","true","1","0","","","","",""
"null","<p style=""font-size: 80px;"">+ 10 points</p>","null","html-keyboard-response","139","1065881","0.0-11.0-2.138","57b4e9d152a08d0001d1b9dc","4q3c9w","BL","66","F","{""name"":""Chrome"",""chrome"":true,""version"":""106.0"",""blink"":true,""windows"":true,""osname"":""Windows"",""osversion"":""7"",""a"":true}","9:21:3","1","3","Test_2","74","j","1","880.3000000007451","1366 x 768","1366 x 768","true","1","10","","","","",""
"null","<p style=""font-size: 80px;"">+ 0 points</p>","null","html-keyboard-response","140","1068631","0.0-11.0-2.139","57b4e9d152a08d0001d1b9dc","4q3c9w","BL","66","F","{""name"":""Chrome"",""chrome"":true,""version"":""106.0"",""blink"":true,""windows"":true,""osname"":""Windows"",""osversion"":""7"",""a"":true}","9:21:3","1","3","Test_1","74","f","0","713.2000000011176","1366 x 768","1366 x 768","true","1","0","","","","",""
"null","<p style=""font-size: 80px;"">+ 10 points</p>","null","html-keyboard-response","141","1071382","0.0-11.0-2.140","57b4e9d152a08d0001d1b9dc","4q3c9w","BL","66","F","{""name"":""Chrome"",""chrome"":true,""version"":""106.0"",""blink"":true,""windows"":true,""osname"":""Windows"",""osversion"":""7"",""a"":true}","9:21:3","1","3","Test_2","74","j","1","713.0999999996275","1366 x 768","1366 x 768","true","1","10","","","","",""
"null","<p style=""font-size: 80px;"">+ 10 points</p>","null","html-keyboard-response","142","1074382","0.0-11.0-2.141","57b4e9d152a08d0001d1b9dc","4q3c9w","BL","66","F","{""name"":""Chrome"",""chrome"":true,""version"":""106.0"",""blink"":true,""windows"":true,""osname"":""Windows"",""osversion"":""7"",""a"":true}","9:21:3","1","3","Test_3","70","f","1","967.3000000007451","1366 x 768","1366 x 768","true","1","10","","","","",""
"null","<p style=""font-size: 80px;"">+ 10 points</p>","null","html-keyboard-response","143","1077217","0.0-11.0-2.142","57b4e9d152a08d0001d1b9dc","4q3c9w","BL","66","F","{""name"":""Chrome"",""chrome"":true,""version"":""106.0"",""blink"":true,""windows"":true,""osname"":""Windows"",""osversion"":""7"",""a"":true}","9:21:3","1","3","Test_2","74","j","1","795.5999999996275","1366 x 768","1366 x 768","true","1","10","","","","",""
"null","<p style=""font-size: 80px;"">+ 10 points</p>","null","html-keyboard-response","144","1080117","0.0-11.0-2.143","57b4e9d152a08d0001d1b9dc","4q3c9w","BL","66","F","{""name"":""Chrome"",""chrome"":true,""version"":""106.0"",""blink"":true,""windows"":true,""osname"":""Windows"",""osversion"":""7"",""a"":true}","9:21:3","1","3","Test_2","74","j","1","867.4000000003725","1366 x 768","1366 x 768","true","1","10","","","","",""
"null","<p style=""font-size: 80px;"">+ 0 points</p>","null","html-keyboard-response","145","1082934","0.0-11.0-2.144","57b4e9d152a08d0001d1b9dc","4q3c9w","BL","66","F","{""name"":""Chrome"",""chrome"":true,""version"":""106.0"",""blink"":true,""windows"":true,""osname"":""Windows"",""osversion"":""7"",""a"":true}","9:21:3","1","3","Test_1","74","f","0","788.8999999985099","1366 x 768","1366 x 768","true","1","0","","","","",""
"null","<p style=""font-size: 80px;"">+ 10 points</p>","null","html-keyboard-response","146","1085669","0.0-11.0-2.145","57b4e9d152a08d0001d1b9dc","4q3c9w","BL","66","F","{""name"":""Chrome"",""chrome"":true,""version"":""106.0"",""blink"":true,""windows"":true,""osname"":""Windows"",""osversion"":""7"",""a"":true}","9:21:3","1","3","Test_2","74","j","1","695.9000000003725","1366 x 768","1366 x 768","true","1","10","","","","",""
"null","<p style=""font-size: 80px;"">+ 0 points</p>","null","html-keyboard-response","147","1088585","0.0-11.0-2.146","57b4e9d152a08d0001d1b9dc","4q3c9w","BL","66","F","{""name"":""Chrome"",""chrome"":true,""version"":""106.0"",""blink"":true,""windows"":true,""osname"":""Windows"",""osversion"":""7"",""a"":true}","9:21:3","1","3","Test_4","70","j","0","888.3999999985099","1366 x 768","1366 x 768","true","1","0","","","","",""
"null","<p style=""font-size: 80px;"">+ 0 points</p>","null","html-keyboard-response","148","1091435","0.0-11.0-2.147","57b4e9d152a08d0001d1b9dc","4q3c9w","BL","66","F","{""name"":""Chrome"",""chrome"":true,""version"":""106.0"",""blink"":true,""windows"":true,""osname"":""Windows"",""osversion"":""7"",""a"":true}","9:21:3","1","3","Test_1","74","f","0","814.9000000003725","1366 x 768","1366 x 768","true","1","0","","","","",""
"null","<p style=""font-size: 80px;"">+ 0 points</p>","null","html-keyboard-response","149","1094242","0.0-11.0-2.148","57b4e9d152a08d0001d1b9dc","4q3c9w","BL","66","F","{""name"":""Chrome"",""chrome"":true,""version"":""106.0"",""blink"":true,""windows"":true,""osname"":""Windows"",""osversion"":""7"",""a"":true}","9:21:3","1","3","Test_1","74","f","0","784.2000000011176","1366 x 768","1366 x 768","true","1","0","","","","",""
