"rt","stimulus","key_press","trial_type","trial_index","time_elapsed","internal_node_id","Prolific_ID","random_ID","initials","age","gender","pc_info","start_time","Phase","Rule","Stimulus","Response","CorrResp","Accuracy","ResponseTime","screen_resolution","window_resolution","focus","relevant","Points","responses","question_order","rev_check","butterfly_check","passed_practice"
"null","<p style=""font-size: 80px; line-height: 1.4em;"">Too late</br> Speed up!</p>","null","html-keyboard-response","1","86515","0.0-7.0-2.0","5f61371454efa10bdcfc588d","wxm6a0","AJ","61","M","{""name"":""Firefox"",""firefox"":true,""version"":""105.0"",""gecko"":true,""windows"":true,""osname"":""Windows"",""osversion"":""10"",""a"":true}","9:20:33","0","1","Practice_1","null","f","0","null","3840 x 2160","3840 x 2160","true","1","0","","","","",""
"null","<p style=""font-size: 80px;"">+ 0 points</p>","null","html-keyboard-response","2","89690","0.0-7.0-2.1","5f61371454efa10bdcfc588d","wxm6a0","AJ","61","M","{""name"":""Firefox"",""firefox"":true,""version"":""105.0"",""gecko"":true,""windows"":true,""osname"":""Windows"",""osversion"":""10"",""a"":true}","9:20:33","0","1","Practice_1","74","f","0","1170","3840 x 2160","3840 x 2160","true","1","0","","","","",""
"null","<p style=""font-size: 80px;"">+ 10 points</p>","null","html-keyboard-response","3","93095","0.0-7.0-2.2","5f61371454efa10bdcfc588d","wxm6a0","AJ","61","M","{""name"":""Firefox"",""firefox"":true,""version"":""105.0"",""gecko"":true,""windows"":true,""osname"":""Windows"",""osversion"":""10"",""a"":true}","9:20:33","0","1","Practice_4","74","j","1","1402","3840 x 2160","3840 x 2160","true","1","10","","","","",""
"null","<p style=""font-size: 80px;"">+ 0 points</p>","null","html-keyboard-response","4","96435","0.0-7.0-2.3","5f61371454efa10bdcfc588d","wxm6a0","AJ","61","M","{""name"":""Firefox"",""firefox"":true,""version"":""105.0"",""gecko"":true,""windows"":true,""osname"":""Windows"",""osversion"":""10"",""a"":true}","9:20:33","0","1","Practice_3","74","f","0","1333","3840 x 2160","3840 x 2160","true","1","0","","","","",""
"null","<p style=""font-size: 80px;"">+ 10 points</p>","null","html-keyboard-response","5","99626","0.0-7.0-2.4","5f61371454efa10bdcfc588d","wxm6a0","AJ","61","M","{""name"":""Firefox"",""firefox"":true,""version"":""105.0"",""gecko"":true,""windows"":true,""osname"":""Windows"",""osversion"":""10"",""a"":true}","9:20:33","0","1","Practice_3","70","f","1","1188","3840 x 2160","3840 x 2160","true","1","10","","","","",""
"null","<p style=""font-size: 80px;"">+ 0 points</p>","null","html-keyboard-response","6","103753","0.0-7.0-2.5","5f61371454efa10bdcfc588d","wxm6a0","AJ","61","M","{""name"":""Firefox"",""firefox"":true,""version"":""105.0"",""gecko"":true,""windows"":true,""osname"":""Windows"",""osversion"":""10"",""a"":true}","9:20:33","0","1","Practice_2","70","j","0","2121","3840 x 2160","3840 x 2160","true","1","0","","","","",""
"null","<p style=""font-size: 80px;"">+ 10 points</p>","null","html-keyboard-response","7","107616","0.0-7.0-2.6","5f61371454efa10bdcfc588d","wxm6a0","AJ","61","M","{""name"":""Firefox"",""firefox"":true,""version"":""105.0"",""gecko"":true,""windows"":true,""osname"":""Windows"",""osversion"":""10"",""a"":true}","9:20:33","0","1","Practice_4","74","j","1","1859","3840 x 2160","3840 x 2160","true","1","10","","","","",""
"null","<p style=""font-size: 80px;"">+ 10 points</p>","null","html-keyboard-response","8","112262","0.0-7.0-2.7","5f61371454efa10bdcfc588d","wxm6a0","AJ","61","M","{""name"":""Firefox"",""firefox"":true,""version"":""105.0"",""gecko"":true,""windows"":true,""osname"":""Windows"",""osversion"":""10"",""a"":true}","9:20:33","0","1","Practice_2","74","j","1","2642","3840 x 2160","3840 x 2160","true","1","10","","","","",""
"null","<p style=""font-size: 80px;"">+ 0 points</p>","null","html-keyboard-response","9","115285","0.0-7.0-2.8","5f61371454efa10bdcfc588d","wxm6a0","AJ","61","M","{""name"":""Firefox"",""firefox"":true,""version"":""105.0"",""gecko"":true,""windows"":true,""osname"":""Windows"",""osversion"":""10"",""a"":true}","9:20:33","0","1","Practice_1","74","f","0","1022","3840 x 2160","3840 x 2160","true","1","0","","","","",""
"null","<p style=""font-size: 80px;"">+ 10 points</p>","null","html-keyboard-response","10","118535","0.0-7.0-2.9","5f61371454efa10bdcfc588d","wxm6a0","AJ","61","M","{""name"":""Firefox"",""firefox"":true,""version"":""105.0"",""gecko"":true,""windows"":true,""osname"":""Windows"",""osversion"":""10"",""a"":true}","9:20:33","0","1","Practice_3","70","f","1","1246","3840 x 2160","3840 x 2160","true","1","10","","","","",""
"null","<p style=""font-size: 80px;"">+ 10 points</p>","null","html-keyboard-response","11","121965","0.0-7.0-2.10","5f61371454efa10bdcfc588d","wxm6a0","AJ","61","M","{""name"":""Firefox"",""firefox"":true,""version"":""105.0"",""gecko"":true,""windows"":true,""osname"":""Windows"",""osversion"":""10"",""a"":true}","9:20:33","0","1","Practice_2","74","j","1","1427","3840 x 2160","3840 x 2160","true","1","10","","","","",""
"null","<p style=""font-size: 80px;"">+ 10 points</p>","null","html-keyboard-response","12","124941","0.0-7.0-2.11","5f61371454efa10bdcfc588d","wxm6a0","AJ","61","M","{""name"":""Firefox"",""firefox"":true,""version"":""105.0"",""gecko"":true,""windows"":true,""osname"":""Windows"",""osversion"":""10"",""a"":true}","9:20:33","0","1","Practice_2","74","j","1","973","3840 x 2160","3840 x 2160","true","1","10","","","","",""
"null","<p style=""font-size: 80px;"">+ 0 points</p>","null","html-keyboard-response","13","128303","0.0-7.0-2.12","5f61371454efa10bdcfc588d","wxm6a0","AJ","61","M","{""name"":""Firefox"",""firefox"":true,""version"":""105.0"",""gecko"":true,""windows"":true,""osname"":""Windows"",""osversion"":""10"",""a"":true}","9:20:33","0","1","Practice_4","70","j","0","1358","3840 x 2160","3840 x 2160","true","1","0","","","","",""
"null","<p style=""font-size: 80px;"">+ 0 points</p>","null","html-keyboard-response","14","131781","0.0-7.0-2.13","5f61371454efa10bdcfc588d","wxm6a0","AJ","61","M","{""name"":""Firefox"",""firefox"":true,""version"":""105.0"",""gecko"":true,""windows"":true,""osname"":""Windows"",""osversion"":""10"",""a"":true}","9:20:33","0","1","Practice_2","70","j","0","1475","3840 x 2160","3840 x 2160","true","1","0","","","","",""
"null","<p style=""font-size: 80px;"">+ 0 points</p>","null","html-keyboard-response","15","135093","0.0-7.0-2.14","5f61371454efa10bdcfc588d","wxm6a0","AJ","61","M","{""name"":""Firefox"",""firefox"":true,""version"":""105.0"",""gecko"":true,""windows"":true,""osname"":""Windows"",""osversion"":""10"",""a"":true}","9:20:33","0","1","Practice_4","70","j","0","1310","3840 x 2160","3840 x 2160","true","1","0","","","","",""
"null","<p style=""font-size: 80px;"">+ 0 points</p>","null","html-keyboard-response","16","137734","0.0-7.0-2.15","5f61371454efa10bdcfc588d","wxm6a0","AJ","61","M","{""name"":""Firefox"",""firefox"":true,""version"":""105.0"",""gecko"":true,""windows"":true,""osname"":""Windows"",""osversion"":""10"",""a"":true}","9:20:33","0","1","Practice_3","74","f","0","639","3840 x 2160","3840 x 2160","true","1","0","","","","",""
"null","<p style=""font-size: 80px;"">+ 0 points</p>","null","html-keyboard-response","17","140960","0.0-7.0-2.16","5f61371454efa10bdcfc588d","wxm6a0","AJ","61","M","{""name"":""Firefox"",""firefox"":true,""version"":""105.0"",""gecko"":true,""windows"":true,""osname"":""Windows"",""osversion"":""10"",""a"":true}","9:20:33","0","1","Practice_3","74","f","0","1222","3840 x 2160","3840 x 2160","true","1","0","","","","",""
"null","<p style=""font-size: 80px;"">+ 0 points</p>","null","html-keyboard-response","18","144129","0.0-7.0-2.17","5f61371454efa10bdcfc588d","wxm6a0","AJ","61","M","{""name"":""Firefox"",""firefox"":true,""version"":""105.0"",""gecko"":true,""windows"":true,""osname"":""Windows"",""osversion"":""10"",""a"":true}","9:20:33","0","1","Practice_1","74","f","0","1166","3840 x 2160","3840 x 2160","true","1","0","","","","",""
"null","<p style=""font-size: 80px;"">+ 10 points</p>","null","html-keyboard-response","19","147215","0.0-7.0-2.18","5f61371454efa10bdcfc588d","wxm6a0","AJ","61","M","{""name"":""Firefox"",""firefox"":true,""version"":""105.0"",""gecko"":true,""windows"":true,""osname"":""Windows"",""osversion"":""10"",""a"":true}","9:20:33","0","1","Practice_1","70","f","1","1083","3840 x 2160","3840 x 2160","true","1","10","","","","",""
"null","<p style=""font-size: 80px;"">+ 10 points</p>","null","html-keyboard-response","20","150853","0.0-7.0-2.19","5f61371454efa10bdcfc588d","wxm6a0","AJ","61","M","{""name"":""Firefox"",""firefox"":true,""version"":""105.0"",""gecko"":true,""windows"":true,""osname"":""Windows"",""osversion"":""10"",""a"":true}","9:20:33","0","1","Practice_4","74","j","1","1636","3840 x 2160","3840 x 2160","true","1","10","","","","",""
"null","<p style=""font-size: 80px;"">+ 10 points</p>","null","html-keyboard-response","21","153654","0.0-7.0-2.20","5f61371454efa10bdcfc588d","wxm6a0","AJ","61","M","{""name"":""Firefox"",""firefox"":true,""version"":""105.0"",""gecko"":true,""windows"":true,""osname"":""Windows"",""osversion"":""10"",""a"":true}","9:20:33","0","2","Practice_3","74","j","1","798","3840 x 2160","3840 x 2160","true","1","10","","","","",""
"null","<p style=""font-size: 80px;"">+ 0 points</p>","null","html-keyboard-response","22","156447","0.0-7.0-2.21","5f61371454efa10bdcfc588d","wxm6a0","AJ","61","M","{""name"":""Firefox"",""firefox"":true,""version"":""105.0"",""gecko"":true,""windows"":true,""osname"":""Windows"",""osversion"":""10"",""a"":true}","9:20:33","0","2","Practice_4","74","f","0","789","3840 x 2160","3840 x 2160","true","1","0","","","","",""
"null","<p style=""font-size: 80px;"">+ 10 points</p>","null","html-keyboard-response","23","159247","0.0-7.0-2.22","5f61371454efa10bdcfc588d","wxm6a0","AJ","61","M","{""name"":""Firefox"",""firefox"":true,""version"":""105.0"",""gecko"":true,""windows"":true,""osname"":""Windows"",""osversion"":""10"",""a"":true}","9:20:33","0","2","Practice_1","74","j","1","795","3840 x 2160","3840 x 2160","true","1","10","","","","",""
"null","<p style=""font-size: 80px;"">+ 0 points</p>","null","html-keyboard-response","24","162615","0.0-7.0-2.23","5f61371454efa10bdcfc588d","wxm6a0","AJ","61","M","{""name"":""Firefox"",""firefox"":true,""version"":""105.0"",""gecko"":true,""windows"":true,""osname"":""Windows"",""osversion"":""10"",""a"":true}","9:20:33","0","2","Practice_2","74","f","0","1365","3840 x 2160","3840 x 2160","true","1","0","","","","",""
"null","<p style=""font-size: 80px;"">+ 10 points</p>","null","html-keyboard-response","25","165343","0.0-7.0-2.24","5f61371454efa10bdcfc588d","wxm6a0","AJ","61","M","{""name"":""Firefox"",""firefox"":true,""version"":""105.0"",""gecko"":true,""windows"":true,""osname"":""Windows"",""osversion"":""10"",""a"":true}","9:20:33","0","2","Practice_2","70","f","1","725","3840 x 2160","3840 x 2160","true","1","10","","","","",""
"null","<p style=""font-size: 80px;"">+ 0 points</p>","null","html-keyboard-response","26","168407","0.0-7.0-2.25","5f61371454efa10bdcfc588d","wxm6a0","AJ","61","M","{""name"":""Firefox"",""firefox"":true,""version"":""105.0"",""gecko"":true,""windows"":true,""osname"":""Windows"",""osversion"":""10"",""a"":true}","9:20:33","0","2","Practice_4","74","f","0","1061","3840 x 2160","3840 x 2160","true","1","0","","","","",""
"null","<p style=""font-size: 80px;"">+ 0 points</p>","null","html-keyboard-response","27","172065","0.0-7.0-2.26","5f61371454efa10bdcfc588d","wxm6a0","AJ","61","M","{""name"":""Firefox"",""firefox"":true,""version"":""105.0"",""gecko"":true,""windows"":true,""osname"":""Windows"",""osversion"":""10"",""a"":true}","9:20:33","0","2","Practice_1","70","j","0","1655","3840 x 2160","3840 x 2160","true","1","0","","","","",""
"null","<p style=""font-size: 80px;"">+ 10 points</p>","null","html-keyboard-response","28","175184","0.0-7.0-2.27","5f61371454efa10bdcfc588d","wxm6a0","AJ","61","M","{""name"":""Firefox"",""firefox"":true,""version"":""105.0"",""gecko"":true,""windows"":true,""osname"":""Windows"",""osversion"":""10"",""a"":true}","9:20:33","0","2","Practice_1","74","j","1","1117","3840 x 2160","3840 x 2160","true","1","10","","","","",""
"null","<p style=""font-size: 80px;"">+ 10 points</p>","null","html-keyboard-response","29","178125","0.0-7.0-2.28","5f61371454efa10bdcfc588d","wxm6a0","AJ","61","M","{""name"":""Firefox"",""firefox"":true,""version"":""105.0"",""gecko"":true,""windows"":true,""osname"":""Windows"",""osversion"":""10"",""a"":true}","9:20:33","0","2","Practice_4","70","f","1","938","3840 x 2160","3840 x 2160","true","1","10","","","","",""
"null","<p style=""font-size: 80px;"">+ 0 points</p>","null","html-keyboard-response","30","181078","0.0-7.0-2.29","5f61371454efa10bdcfc588d","wxm6a0","AJ","61","M","{""name"":""Firefox"",""firefox"":true,""version"":""105.0"",""gecko"":true,""windows"":true,""osname"":""Windows"",""osversion"":""10"",""a"":true}","9:20:33","0","2","Practice_3","70","j","0","951","3840 x 2160","3840 x 2160","true","1","0","","","","",""
"null","<p style=""font-size: 80px;"">+ 10 points</p>","null","html-keyboard-response","31","183838","0.0-7.0-2.30","5f61371454efa10bdcfc588d","wxm6a0","AJ","61","M","{""name"":""Firefox"",""firefox"":true,""version"":""105.0"",""gecko"":true,""windows"":true,""osname"":""Windows"",""osversion"":""10"",""a"":true}","9:20:33","0","2","Practice_3","74","j","1","760","3840 x 2160","3840 x 2160","true","1","10","","","","",""
"null","<p style=""font-size: 80px;"">+ 10 points</p>","null","html-keyboard-response","32","186967","0.0-7.0-2.31","5f61371454efa10bdcfc588d","wxm6a0","AJ","61","M","{""name"":""Firefox"",""firefox"":true,""version"":""105.0"",""gecko"":true,""windows"":true,""osname"":""Windows"",""osversion"":""10"",""a"":true}","9:20:33","0","2","Practice_2","70","f","1","1125","3840 x 2160","3840 x 2160","true","1","10","","","","",""
"null","<p style=""font-size: 80px;"">+ 0 points</p>","null","html-keyboard-response","33","190103","0.0-7.0-2.32","5f61371454efa10bdcfc588d","wxm6a0","AJ","61","M","{""name"":""Firefox"",""firefox"":true,""version"":""105.0"",""gecko"":true,""windows"":true,""osname"":""Windows"",""osversion"":""10"",""a"":true}","9:20:33","0","2","Practice_1","70","j","0","1132","3840 x 2160","3840 x 2160","true","1","0","","","","",""
"null","<p style=""font-size: 80px;"">+ 0 points</p>","null","html-keyboard-response","34","192870","0.0-7.0-2.33","5f61371454efa10bdcfc588d","wxm6a0","AJ","61","M","{""name"":""Firefox"",""firefox"":true,""version"":""105.0"",""gecko"":true,""windows"":true,""osname"":""Windows"",""osversion"":""10"",""a"":true}","9:20:33","0","2","Practice_2","74","f","0","766","3840 x 2160","3840 x 2160","true","1","0","","","","",""
"null","<p style=""font-size: 80px;"">+ 10 points</p>","null","html-keyboard-response","35","196014","0.0-7.0-2.34","5f61371454efa10bdcfc588d","wxm6a0","AJ","61","M","{""name"":""Firefox"",""firefox"":true,""version"":""105.0"",""gecko"":true,""windows"":true,""osname"":""Windows"",""osversion"":""10"",""a"":true}","9:20:33","0","2","Practice_1","74","j","1","1141","3840 x 2160","3840 x 2160","true","1","10","","","","",""
"null","<p style=""font-size: 80px;"">+ 0 points</p>","null","html-keyboard-response","36","201181","0.0-7.0-2.35","5f61371454efa10bdcfc588d","wxm6a0","AJ","61","M","{""name"":""Firefox"",""firefox"":true,""version"":""105.0"",""gecko"":true,""windows"":true,""osname"":""Windows"",""osversion"":""10"",""a"":true}","9:20:33","0","2","Practice_2","74","f","0","3163","3840 x 2160","3840 x 2160","true","1","0","","","","",""
"null","<p style=""font-size: 80px;"">+ 10 points</p>","null","html-keyboard-response","37","204543","0.0-7.0-2.36","5f61371454efa10bdcfc588d","wxm6a0","AJ","61","M","{""name"":""Firefox"",""firefox"":true,""version"":""105.0"",""gecko"":true,""windows"":true,""osname"":""Windows"",""osversion"":""10"",""a"":true}","9:20:33","0","2","Practice_3","74","j","1","1358","3840 x 2160","3840 x 2160","true","1","10","","","","",""
"null","<p style=""font-size: 80px;"">+ 0 points</p>","null","html-keyboard-response","38","207840","0.0-7.0-2.37","5f61371454efa10bdcfc588d","wxm6a0","AJ","61","M","{""name"":""Firefox"",""firefox"":true,""version"":""105.0"",""gecko"":true,""windows"":true,""osname"":""Windows"",""osversion"":""10"",""a"":true}","9:20:33","0","2","Practice_4","74","f","0","1295","3840 x 2160","3840 x 2160","true","1","0","","","","",""
"null","<p style=""font-size: 80px;"">+ 10 points</p>","null","html-keyboard-response","39","210877","0.0-7.0-2.38","5f61371454efa10bdcfc588d","wxm6a0","AJ","61","M","{""name"":""Firefox"",""firefox"":true,""version"":""105.0"",""gecko"":true,""windows"":true,""osname"":""Windows"",""osversion"":""10"",""a"":true}","9:20:33","0","2","Practice_4","70","f","1","1034","3840 x 2160","3840 x 2160","true","1","10","","","","",""
"null","<p style=""font-size: 80px;"">+ 0 points</p>","null","html-keyboard-response","40","213751","0.0-7.0-2.39","5f61371454efa10bdcfc588d","wxm6a0","AJ","61","M","{""name"":""Firefox"",""firefox"":true,""version"":""105.0"",""gecko"":true,""windows"":true,""osname"":""Windows"",""osversion"":""10"",""a"":true}","9:20:33","0","2","Practice_3","70","j","0","871","3840 x 2160","3840 x 2160","true","1","0","","","","",""
"12643","","","survey-multi-choice","127","226398","0.0-8.0","5f61371454efa10bdcfc588d","wxm6a0","AJ","61","M","{""name"":""Firefox"",""firefox"":true,""version"":""105.0"",""gecko"":true,""windows"":true,""osname"":""Windows"",""osversion"":""10"",""a"":true}","9:20:33","","","","","","","","","","","1","","{""Q0"":""The green one"",""Q1"":""5""}","[0,1]","5","The green one","0"
"null","<p style=""font-size: 80px;"">+ 10 points</p>","null","html-keyboard-response","1","238286","0.0-9.0-1.0-2.0","5f61371454efa10bdcfc588d","wxm6a0","AJ","61","M","{""name"":""Firefox"",""firefox"":true,""version"":""105.0"",""gecko"":true,""windows"":true,""osname"":""Windows"",""osversion"":""10"",""a"":true}","9:20:33","0","1","Practice_1","70","f","1","1397","3840 x 2160","3840 x 2160","true","1","10","","","","",""
"null","<p style=""font-size: 80px;"">+ 10 points</p>","null","html-keyboard-response","2","241103","0.0-9.0-1.0-2.1","5f61371454efa10bdcfc588d","wxm6a0","AJ","61","M","{""name"":""Firefox"",""firefox"":true,""version"":""105.0"",""gecko"":true,""windows"":true,""osname"":""Windows"",""osversion"":""10"",""a"":true}","9:20:33","0","1","Practice_1","70","f","1","813","3840 x 2160","3840 x 2160","true","1","10","","","","",""
"null","<p style=""font-size: 80px;"">+ 10 points</p>","null","html-keyboard-response","3","246614","0.0-9.0-1.0-2.2","5f61371454efa10bdcfc588d","wxm6a0","AJ","61","M","{""name"":""Firefox"",""firefox"":true,""version"":""105.0"",""gecko"":true,""windows"":true,""osname"":""Windows"",""osversion"":""10"",""a"":true}","9:20:33","0","1","Practice_4","74","j","1","3507","3840 x 2160","3840 x 2160","true","1","10","","","","",""
"null","<p style=""font-size: 80px;"">+ 0 points</p>","null","html-keyboard-response","4","250263","0.0-9.0-1.0-2.3","5f61371454efa10bdcfc588d","wxm6a0","AJ","61","M","{""name"":""Firefox"",""firefox"":true,""version"":""105.0"",""gecko"":true,""windows"":true,""osname"":""Windows"",""osversion"":""10"",""a"":true}","9:20:33","0","1","Practice_3","74","f","0","1646","3840 x 2160","3840 x 2160","true","1","0","","","","",""
"null","<p style=""font-size: 80px;"">+ 10 points</p>","null","html-keyboard-response","5","253073","0.0-9.0-1.0-2.4","5f61371454efa10bdcfc588d","wxm6a0","AJ","61","M","{""name"":""Firefox"",""firefox"":true,""version"":""105.0"",""gecko"":true,""windows"":true,""osname"":""Windows"",""osversion"":""10"",""a"":true}","9:20:33","0","1","Practice_3","70","f","1","805","3840 x 2160","3840 x 2160","true","1","10","","","","",""
"null","<p style=""font-size: 80px;"">+ 10 points</p>","null","html-keyboard-response","6","255999","0.0-9.0-1.0-2.5","5f61371454efa10bdcfc588d","wxm6a0","AJ","61","M","{""name"":""Firefox"",""firefox"":true,""version"":""105.0"",""gecko"":true,""windows"":true,""osname"":""Windows"",""osversion"":""10"",""a"":true}","9:20:33","0","1","Practice_2","74","j","1","922","3840 x 2160","3840 x 2160","true","1","10","","","","",""
"null","<p style=""font-size: 80px;"">+ 0 points</p>","null","html-keyboard-response","7","259213","0.0-9.0-1.0-2.6","5f61371454efa10bdcfc588d","wxm6a0","AJ","61","M","{""name"":""Firefox"",""firefox"":true,""version"":""105.0"",""gecko"":true,""windows"":true,""osname"":""Windows"",""osversion"":""10"",""a"":true}","9:20:33","0","1","Practice_4","70","j","0","1211","3840 x 2160","3840 x 2160","true","1","0","","","","",""
"null","<p style=""font-size: 80px;"">+ 0 points</p>","null","html-keyboard-response","8","263862","0.0-9.0-1.0-2.7","5f61371454efa10bdcfc588d","wxm6a0","AJ","61","M","{""name"":""Firefox"",""firefox"":true,""version"":""105.0"",""gecko"":true,""windows"":true,""osname"":""Windows"",""osversion"":""10"",""a"":true}","9:20:33","0","1","Practice_2","70","j","0","2645","3840 x 2160","3840 x 2160","true","1","0","","","","",""
"null","<p style=""font-size: 80px;"">+ 10 points</p>","null","html-keyboard-response","9","266598","0.0-9.0-1.0-2.8","5f61371454efa10bdcfc588d","wxm6a0","AJ","61","M","{""name"":""Firefox"",""firefox"":true,""version"":""105.0"",""gecko"":true,""windows"":true,""osname"":""Windows"",""osversion"":""10"",""a"":true}","9:20:33","0","1","Practice_1","70","f","1","733","3840 x 2160","3840 x 2160","true","1","10","","","","",""
"null","<p style=""font-size: 80px;"">+ 0 points</p>","null","html-keyboard-response","10","269943","0.0-9.0-1.0-2.9","5f61371454efa10bdcfc588d","wxm6a0","AJ","61","M","{""name"":""Firefox"",""firefox"":true,""version"":""105.0"",""gecko"":true,""windows"":true,""osname"":""Windows"",""osversion"":""10"",""a"":true}","9:20:33","0","1","Practice_3","74","f","0","1342","3840 x 2160","3840 x 2160","true","1","0","","","","",""
"null","<p style=""font-size: 80px;"">+ 10 points</p>","null","html-keyboard-response","11","272609","0.0-9.0-1.0-2.10","5f61371454efa10bdcfc588d","wxm6a0","AJ","61","M","{""name"":""Firefox"",""firefox"":true,""version"":""105.0"",""gecko"":true,""windows"":true,""osname"":""Windows"",""osversion"":""10"",""a"":true}","9:20:33","0","1","Practice_2","74","j","1","662","3840 x 2160","3840 x 2160","true","1","10","","","","",""
"null","<p style=""font-size: 80px;"">+ 10 points</p>","null","html-keyboard-response","12","275959","0.0-9.0-1.0-2.11","5f61371454efa10bdcfc588d","wxm6a0","AJ","61","M","{""name"":""Firefox"",""firefox"":true,""version"":""105.0"",""gecko"":true,""windows"":true,""osname"":""Windows"",""osversion"":""10"",""a"":true}","9:20:33","0","1","Practice_2","74","j","1","1345","3840 x 2160","3840 x 2160","true","1","10","","","","",""
"null","<p style=""font-size: 80px;"">+ 0 points</p>","null","html-keyboard-response","13","279766","0.0-9.0-1.0-2.12","5f61371454efa10bdcfc588d","wxm6a0","AJ","61","M","{""name"":""Firefox"",""firefox"":true,""version"":""105.0"",""gecko"":true,""windows"":true,""osname"":""Windows"",""osversion"":""10"",""a"":true}","9:20:33","0","1","Practice_4","70","j","0","1804","3840 x 2160","3840 x 2160","true","1","0","","","","",""
"null","<p style=""font-size: 80px;"">+ 10 points</p>","null","html-keyboard-response","14","283263","0.0-9.0-1.0-2.13","5f61371454efa10bdcfc588d","wxm6a0","AJ","61","M","{""name"":""Firefox"",""firefox"":true,""version"":""105.0"",""gecko"":true,""windows"":true,""osname"":""Windows"",""osversion"":""10"",""a"":true}","9:20:33","0","1","Practice_2","74","j","1","1493","3840 x 2160","3840 x 2160","true","1","10","","","","",""
"null","<p style=""font-size: 80px;"">+ 0 points</p>","null","html-keyboard-response","15","286313","0.0-9.0-1.0-2.14","5f61371454efa10bdcfc588d","wxm6a0","AJ","61","M","{""name"":""Firefox"",""firefox"":true,""version"":""105.0"",""gecko"":true,""windows"":true,""osname"":""Windows"",""osversion"":""10"",""a"":true}","9:20:33","0","1","Practice_4","70","j","0","1045","3840 x 2160","3840 x 2160","true","1","0","","","","",""
"null","<p style=""font-size: 80px;"">+ 0 points</p>","null","html-keyboard-response","16","289062","0.0-9.0-1.0-2.15","5f61371454efa10bdcfc588d","wxm6a0","AJ","61","M","{""name"":""Firefox"",""firefox"":true,""version"":""105.0"",""gecko"":true,""windows"":true,""osname"":""Windows"",""osversion"":""10"",""a"":true}","9:20:33","0","1","Practice_3","74","f","0","746","3840 x 2160","3840 x 2160","true","1","0","","","","",""
"null","<p style=""font-size: 80px;"">+ 0 points</p>","null","html-keyboard-response","17","291973","0.0-9.0-1.0-2.16","5f61371454efa10bdcfc588d","wxm6a0","AJ","61","M","{""name"":""Firefox"",""firefox"":true,""version"":""105.0"",""gecko"":true,""windows"":true,""osname"":""Windows"",""osversion"":""10"",""a"":true}","9:20:33","0","1","Practice_3","74","f","0","909","3840 x 2160","3840 x 2160","true","1","0","","","","",""
"null","<p style=""font-size: 80px;"">+ 0 points</p>","null","html-keyboard-response","18","294912","0.0-9.0-1.0-2.17","5f61371454efa10bdcfc588d","wxm6a0","AJ","61","M","{""name"":""Firefox"",""firefox"":true,""version"":""105.0"",""gecko"":true,""windows"":true,""osname"":""Windows"",""osversion"":""10"",""a"":true}","9:20:33","0","1","Practice_1","74","f","0","936","3840 x 2160","3840 x 2160","true","1","0","","","","",""
"null","<p style=""font-size: 80px;"">+ 10 points</p>","null","html-keyboard-response","19","298060","0.0-9.0-1.0-2.18","5f61371454efa10bdcfc588d","wxm6a0","AJ","61","M","{""name"":""Firefox"",""firefox"":true,""version"":""105.0"",""gecko"":true,""windows"":true,""osname"":""Windows"",""osversion"":""10"",""a"":true}","9:20:33","0","1","Practice_1","70","f","1","1147","3840 x 2160","3840 x 2160","true","1","10","","","","",""
"null","<p style=""font-size: 80px;"">+ 10 points</p>","null","html-keyboard-response","20","301776","0.0-9.0-1.0-2.19","5f61371454efa10bdcfc588d","wxm6a0","AJ","61","M","{""name"":""Firefox"",""firefox"":true,""version"":""105.0"",""gecko"":true,""windows"":true,""osname"":""Windows"",""osversion"":""10"",""a"":true}","9:20:33","0","1","Practice_4","74","j","1","1712","3840 x 2160","3840 x 2160","true","1","10","","","","",""
"null","<p style=""font-size: 80px;"">+ 10 points</p>","null","html-keyboard-response","21","304974","0.0-9.0-1.0-2.20","5f61371454efa10bdcfc588d","wxm6a0","AJ","61","M","{""name"":""Firefox"",""firefox"":true,""version"":""105.0"",""gecko"":true,""windows"":true,""osname"":""Windows"",""osversion"":""10"",""a"":true}","9:20:33","0","2","Practice_3","74","j","1","1195","3840 x 2160","3840 x 2160","true","1","10","","","","",""
"null","<p style=""font-size: 80px;"">+ 0 points</p>","null","html-keyboard-response","22","307975","0.0-9.0-1.0-2.21","5f61371454efa10bdcfc588d","wxm6a0","AJ","61","M","{""name"":""Firefox"",""firefox"":true,""version"":""105.0"",""gecko"":true,""windows"":true,""osname"":""Windows"",""osversion"":""10"",""a"":true}","9:20:33","0","2","Practice_4","74","f","0","999","3840 x 2160","3840 x 2160","true","1","0","","","","",""
"null","<p style=""font-size: 80px;"">+ 0 points</p>","null","html-keyboard-response","23","311373","0.0-9.0-1.0-2.22","5f61371454efa10bdcfc588d","wxm6a0","AJ","61","M","{""name"":""Firefox"",""firefox"":true,""version"":""105.0"",""gecko"":true,""windows"":true,""osname"":""Windows"",""osversion"":""10"",""a"":true}","9:20:33","0","2","Practice_1","70","j","0","1396","3840 x 2160","3840 x 2160","true","1","0","","","","",""
"null","<p style=""font-size: 80px;"">+ 10 points</p>","null","html-keyboard-response","24","314072","0.0-9.0-1.0-2.23","5f61371454efa10bdcfc588d","wxm6a0","AJ","61","M","{""name"":""Firefox"",""firefox"":true,""version"":""105.0"",""gecko"":true,""windows"":true,""osname"":""Windows"",""osversion"":""10"",""a"":true}","9:20:33","0","2","Practice_2","70","f","1","696","3840 x 2160","3840 x 2160","true","1","10","","","","",""
"null","<p style=""font-size: 80px;"">+ 10 points</p>","null","html-keyboard-response","25","317078","0.0-9.0-1.0-2.24","5f61371454efa10bdcfc588d","wxm6a0","AJ","61","M","{""name"":""Firefox"",""firefox"":true,""version"":""105.0"",""gecko"":true,""windows"":true,""osname"":""Windows"",""osversion"":""10"",""a"":true}","9:20:33","0","2","Practice_2","70","f","1","1004","3840 x 2160","3840 x 2160","true","1","10","","","","",""
"null","<p style=""font-size: 80px;"">+ 0 points</p>","null","html-keyboard-response","26","321351","0.0-9.0-1.0-2.25","5f61371454efa10bdcfc588d","wxm6a0","AJ","61","M","{""name"":""Firefox"",""firefox"":true,""version"":""105.0"",""gecko"":true,""windows"":true,""osname"":""Windows"",""osversion"":""10"",""a"":true}","9:20:33","0","2","Practice_4","74","f","0","2268","3840 x 2160","3840 x 2160","true","1","0","","","","",""
"null","<p style=""font-size: 80px;"">+ 10 points</p>","null","html-keyboard-response","27","324063","0.0-9.0-1.0-2.26","5f61371454efa10bdcfc588d","wxm6a0","AJ","61","M","{""name"":""Firefox"",""firefox"":true,""version"":""105.0"",""gecko"":true,""windows"":true,""osname"":""Windows"",""osversion"":""10"",""a"":true}","9:20:33","0","2","Practice_1","74","j","1","710","3840 x 2160","3840 x 2160","true","1","10","","","","",""
"null","<p style=""font-size: 80px;"">+ 10 points</p>","null","html-keyboard-response","28","327120","0.0-9.0-1.0-2.27","5f61371454efa10bdcfc588d","wxm6a0","AJ","61","M","{""name"":""Firefox"",""firefox"":true,""version"":""105.0"",""gecko"":true,""windows"":true,""osname"":""Windows"",""osversion"":""10"",""a"":true}","9:20:33","0","2","Practice_1","74","j","1","1053","3840 x 2160","3840 x 2160","true","1","10","","","","",""
"null","<p style=""font-size: 80px;"">+ 10 points</p>","null","html-keyboard-response","29","330447","0.0-9.0-1.0-2.28","5f61371454efa10bdcfc588d","wxm6a0","AJ","61","M","{""name"":""Firefox"",""firefox"":true,""version"":""105.0"",""gecko"":true,""windows"":true,""osname"":""Windows"",""osversion"":""10"",""a"":true}","9:20:33","0","2","Practice_4","70","f","1","1325","3840 x 2160","3840 x 2160","true","1","10","","","","",""
"null","<p style=""font-size: 80px;"">+ 0 points</p>","null","html-keyboard-response","30","334190","0.0-9.0-1.0-2.29","5f61371454efa10bdcfc588d","wxm6a0","AJ","61","M","{""name"":""Firefox"",""firefox"":true,""version"":""105.0"",""gecko"":true,""windows"":true,""osname"":""Windows"",""osversion"":""10"",""a"":true}","9:20:33","0","2","Practice_3","70","j","0","1740","3840 x 2160","3840 x 2160","true","1","0","","","","",""
"null","<p style=""font-size: 80px;"">+ 10 points</p>","null","html-keyboard-response","31","336949","0.0-9.0-1.0-2.30","5f61371454efa10bdcfc588d","wxm6a0","AJ","61","M","{""name"":""Firefox"",""firefox"":true,""version"":""105.0"",""gecko"":true,""windows"":true,""osname"":""Windows"",""osversion"":""10"",""a"":true}","9:20:33","0","2","Practice_3","74","j","1","758","3840 x 2160","3840 x 2160","true","1","10","","","","",""
"null","<p style=""font-size: 80px;"">+ 10 points</p>","null","html-keyboard-response","32","339959","0.0-9.0-1.0-2.31","5f61371454efa10bdcfc588d","wxm6a0","AJ","61","M","{""name"":""Firefox"",""firefox"":true,""version"":""105.0"",""gecko"":true,""windows"":true,""osname"":""Windows"",""osversion"":""10"",""a"":true}","9:20:33","0","2","Practice_2","70","f","1","1007","3840 x 2160","3840 x 2160","true","1","10","","","","",""
"null","<p style=""font-size: 80px;"">+ 0 points</p>","null","html-keyboard-response","33","342951","0.0-9.0-1.0-2.32","5f61371454efa10bdcfc588d","wxm6a0","AJ","61","M","{""name"":""Firefox"",""firefox"":true,""version"":""105.0"",""gecko"":true,""windows"":true,""osname"":""Windows"",""osversion"":""10"",""a"":true}","9:20:33","0","2","Practice_1","70","j","0","988","3840 x 2160","3840 x 2160","true","1","0","","","","",""
"null","<p style=""font-size: 80px;"">+ 0 points</p>","null","html-keyboard-response","34","345736","0.0-9.0-1.0-2.33","5f61371454efa10bdcfc588d","wxm6a0","AJ","61","M","{""name"":""Firefox"",""firefox"":true,""version"":""105.0"",""gecko"":true,""windows"":true,""osname"":""Windows"",""osversion"":""10"",""a"":true}","9:20:33","0","2","Practice_2","74","f","0","782","3840 x 2160","3840 x 2160","true","1","0","","","","",""
"null","<p style=""font-size: 80px;"">+ 10 points</p>","null","html-keyboard-response","35","348703","0.0-9.0-1.0-2.34","5f61371454efa10bdcfc588d","wxm6a0","AJ","61","M","{""name"":""Firefox"",""firefox"":true,""version"":""105.0"",""gecko"":true,""windows"":true,""osname"":""Windows"",""osversion"":""10"",""a"":true}","9:20:33","0","2","Practice_1","74","j","1","964","3840 x 2160","3840 x 2160","true","1","10","","","","",""
"null","<p style=""font-size: 80px;"">+ 0 points</p>","null","html-keyboard-response","36","352446","0.0-9.0-1.0-2.35","5f61371454efa10bdcfc588d","wxm6a0","AJ","61","M","{""name"":""Firefox"",""firefox"":true,""version"":""105.0"",""gecko"":true,""windows"":true,""osname"":""Windows"",""osversion"":""10"",""a"":true}","9:20:33","0","2","Practice_2","74","f","0","1741","3840 x 2160","3840 x 2160","true","1","0","","","","",""
"null","<p style=""font-size: 80px;"">+ 0 points</p>","null","html-keyboard-response","37","356103","0.0-9.0-1.0-2.36","5f61371454efa10bdcfc588d","wxm6a0","AJ","61","M","{""name"":""Firefox"",""firefox"":true,""version"":""105.0"",""gecko"":true,""windows"":true,""osname"":""Windows"",""osversion"":""10"",""a"":true}","9:20:33","0","2","Practice_3","70","j","0","1654","3840 x 2160","3840 x 2160","true","1","0","","","","",""
"null","<p style=""font-size: 80px;"">+ 10 points</p>","null","html-keyboard-response","38","360142","0.0-9.0-1.0-2.37","5f61371454efa10bdcfc588d","wxm6a0","AJ","61","M","{""name"":""Firefox"",""firefox"":true,""version"":""105.0"",""gecko"":true,""windows"":true,""osname"":""Windows"",""osversion"":""10"",""a"":true}","9:20:33","0","2","Practice_4","70","f","1","2037","3840 x 2160","3840 x 2160","true","1","10","","","","",""
"null","<p style=""font-size: 80px;"">+ 10 points</p>","null","html-keyboard-response","39","363293","0.0-9.0-1.0-2.38","5f61371454efa10bdcfc588d","wxm6a0","AJ","61","M","{""name"":""Firefox"",""firefox"":true,""version"":""105.0"",""gecko"":true,""windows"":true,""osname"":""Windows"",""osversion"":""10"",""a"":true}","9:20:33","0","2","Practice_4","70","f","1","1147","3840 x 2160","3840 x 2160","true","1","10","","","","",""
"null","<p style=""font-size: 80px;"">+ 0 points</p>","null","html-keyboard-response","40","366294","0.0-9.0-1.0-2.39","5f61371454efa10bdcfc588d","wxm6a0","AJ","61","M","{""name"":""Firefox"",""firefox"":true,""version"":""105.0"",""gecko"":true,""windows"":true,""osname"":""Windows"",""osversion"":""10"",""a"":true}","9:20:33","0","2","Practice_3","70","j","0","998","3840 x 2160","3840 x 2160","true","1","0","","","","",""
"9822","","","survey-multi-choice","249","376118","0.0-9.0-2.0","5f61371454efa10bdcfc588d","wxm6a0","AJ","61","M","{""name"":""Firefox"",""firefox"":true,""version"":""105.0"",""gecko"":true,""windows"":true,""osname"":""Windows"",""osversion"":""10"",""a"":true}","9:20:33","","","","","","","","","","","1","","{""Q0"":""The red one"",""Q1"":""5""}","[0,1]","5","The red one","1"
"null","<p style=""font-size: 80px;"">+ 10 points</p>","null","html-keyboard-response","1","393983","0.0-11.0-2.0","5f61371454efa10bdcfc588d","wxm6a0","AJ","61","M","{""name"":""Firefox"",""firefox"":true,""version"":""105.0"",""gecko"":true,""windows"":true,""osname"":""Windows"",""osversion"":""10"",""a"":true}","9:20:33","1","4","Test_4","70","f","1","1726","3840 x 2160","3840 x 2160","true","1","10","","","","",""
"null","<p style=""font-size: 80px;"">+ 10 points</p>","null","html-keyboard-response","2","398857","0.0-11.0-2.1","5f61371454efa10bdcfc588d","wxm6a0","AJ","61","M","{""name"":""Firefox"",""firefox"":true,""version"":""105.0"",""gecko"":true,""windows"":true,""osname"":""Windows"",""osversion"":""10"",""a"":true}","9:20:33","1","4","Test_3","74","j","1","2870","3840 x 2160","3840 x 2160","true","1","10","","","","",""
"null","<p style=""font-size: 80px;"">+ 10 points</p>","null","html-keyboard-response","3","401976","0.0-11.0-2.2","5f61371454efa10bdcfc588d","wxm6a0","AJ","61","M","{""name"":""Firefox"",""firefox"":true,""version"":""105.0"",""gecko"":true,""windows"":true,""osname"":""Windows"",""osversion"":""10"",""a"":true}","9:20:33","1","4","Test_4","70","f","1","1117","3840 x 2160","3840 x 2160","true","1","10","","","","",""
"null","<p style=""font-size: 80px;"">+ 10 points</p>","null","html-keyboard-response","4","405640","0.0-11.0-2.3","5f61371454efa10bdcfc588d","wxm6a0","AJ","61","M","{""name"":""Firefox"",""firefox"":true,""version"":""105.0"",""gecko"":true,""windows"":true,""osname"":""Windows"",""osversion"":""10"",""a"":true}","9:20:33","1","4","Test_1","74","j","1","1662","3840 x 2160","3840 x 2160","true","1","10","","","","",""
"null","<p style=""font-size: 80px;"">+ 10 points</p>","null","html-keyboard-response","5","409320","0.0-11.0-2.4","5f61371454efa10bdcfc588d","wxm6a0","AJ","61","M","{""name"":""Firefox"",""firefox"":true,""version"":""105.0"",""gecko"":true,""windows"":true,""osname"":""Windows"",""osversion"":""10"",""a"":true}","9:20:33","1","4","Test_4","70","f","1","1675","3840 x 2160","3840 x 2160","true","1","10","","","","",""
"null","<p style=""font-size: 80px;"">+ 10 points</p>","null","html-keyboard-response","6","412689","0.0-11.0-2.5","5f61371454efa10bdcfc588d","wxm6a0","AJ","61","M","{""name"":""Firefox"",""firefox"":true,""version"":""105.0"",""gecko"":true,""windows"":true,""osname"":""Windows"",""osversion"":""10"",""a"":true}","9:20:33","1","4","Test_2","70","f","1","1364","3840 x 2160","3840 x 2160","true","1","10","","","","",""
"null","<p style=""font-size: 80px;"">+ 10 points</p>","null","html-keyboard-response","7","416416","0.0-11.0-2.6","5f61371454efa10bdcfc588d","wxm6a0","AJ","61","M","{""name"":""Firefox"",""firefox"":true,""version"":""105.0"",""gecko"":true,""windows"":true,""osname"":""Windows"",""osversion"":""10"",""a"":true}","9:20:33","1","4","Test_4","70","f","1","1724","3840 x 2160","3840 x 2160","true","1","10","","","","",""
"null","<p style=""font-size: 80px;"">+ 10 points</p>","null","html-keyboard-response","8","419591","0.0-11.0-2.7","5f61371454efa10bdcfc588d","wxm6a0","AJ","61","M","{""name"":""Firefox"",""firefox"":true,""version"":""105.0"",""gecko"":true,""windows"":true,""osname"":""Windows"",""osversion"":""10"",""a"":true}","9:20:33","1","4","Test_2","70","f","1","1172","3840 x 2160","3840 x 2160","true","1","10","","","","",""
"null","<p style=""font-size: 80px;"">+ 10 points</p>","null","html-keyboard-response","9","422782","0.0-11.0-2.8","5f61371454efa10bdcfc588d","wxm6a0","AJ","61","M","{""name"":""Firefox"",""firefox"":true,""version"":""105.0"",""gecko"":true,""windows"":true,""osname"":""Windows"",""osversion"":""10"",""a"":true}","9:20:33","1","4","Test_3","74","j","1","1189","3840 x 2160","3840 x 2160","true","1","10","","","","",""
"null","<p style=""font-size: 80px;"">+ 10 points</p>","null","html-keyboard-response","10","425887","0.0-11.0-2.9","5f61371454efa10bdcfc588d","wxm6a0","AJ","61","M","{""name"":""Firefox"",""firefox"":true,""version"":""105.0"",""gecko"":true,""windows"":true,""osname"":""Windows"",""osversion"":""10"",""a"":true}","9:20:33","1","4","Test_3","74","j","1","1101","3840 x 2160","3840 x 2160","true","1","10","","","","",""
"null","<p style=""font-size: 80px;"">+ 10 points</p>","null","html-keyboard-response","11","429249","0.0-11.0-2.10","5f61371454efa10bdcfc588d","wxm6a0","AJ","61","M","{""name"":""Firefox"",""firefox"":true,""version"":""105.0"",""gecko"":true,""windows"":true,""osname"":""Windows"",""osversion"":""10"",""a"":true}","9:20:33","1","4","Test_1","74","j","1","1358","3840 x 2160","3840 x 2160","true","1","10","","","","",""
"null","<p style=""font-size: 80px;"">+ 10 points</p>","null","html-keyboard-response","12","432414","0.0-11.0-2.11","5f61371454efa10bdcfc588d","wxm6a0","AJ","61","M","{""name"":""Firefox"",""firefox"":true,""version"":""105.0"",""gecko"":true,""windows"":true,""osname"":""Windows"",""osversion"":""10"",""a"":true}","9:20:33","1","4","Test_2","70","f","1","1161","3840 x 2160","3840 x 2160","true","1","10","","","","",""
"null","<p style=""font-size: 80px;"">+ 10 points</p>","null","html-keyboard-response","13","435696","0.0-11.0-2.12","5f61371454efa10bdcfc588d","wxm6a0","AJ","61","M","{""name"":""Firefox"",""firefox"":true,""version"":""105.0"",""gecko"":true,""windows"":true,""osname"":""Windows"",""osversion"":""10"",""a"":true}","9:20:33","1","4","Test_1","74","j","1","1278","3840 x 2160","3840 x 2160","true","1","10","","","","",""
"null","<p style=""font-size: 80px;"">+ 10 points</p>","null","html-keyboard-response","14","439398","0.0-11.0-2.13","5f61371454efa10bdcfc588d","wxm6a0","AJ","61","M","{""name"":""Firefox"",""firefox"":true,""version"":""105.0"",""gecko"":true,""windows"":true,""osname"":""Windows"",""osversion"":""10"",""a"":true}","9:20:33","1","4","Test_2","70","f","1","1700","3840 x 2160","3840 x 2160","true","1","10","","","","",""
"null","<p style=""font-size: 80px;"">+ 10 points</p>","null","html-keyboard-response","15","442616","0.0-11.0-2.14","5f61371454efa10bdcfc588d","wxm6a0","AJ","61","M","{""name"":""Firefox"",""firefox"":true,""version"":""105.0"",""gecko"":true,""windows"":true,""osname"":""Windows"",""osversion"":""10"",""a"":true}","9:20:33","1","4","Test_3","74","j","1","1215","3840 x 2160","3840 x 2160","true","1","10","","","","",""
"null","<p style=""font-size: 80px;"">+ 10 points</p>","null","html-keyboard-response","16","445837","0.0-11.0-2.15","5f61371454efa10bdcfc588d","wxm6a0","AJ","61","M","{""name"":""Firefox"",""firefox"":true,""version"":""105.0"",""gecko"":true,""windows"":true,""osname"":""Windows"",""osversion"":""10"",""a"":true}","9:20:33","1","4","Test_1","74","j","1","1219","3840 x 2160","3840 x 2160","true","1","10","","","","",""
"null","<p style=""font-size: 80px;"">+ 0 points</p>","null","html-keyboard-response","17","449677","0.0-11.0-2.16","5f61371454efa10bdcfc588d","wxm6a0","AJ","61","M","{""name"":""Firefox"",""firefox"":true,""version"":""105.0"",""gecko"":true,""windows"":true,""osname"":""Windows"",""osversion"":""10"",""a"":true}","9:20:33","1","3","Test_4","70","j","0","1837","3840 x 2160","3840 x 2160","true","1","0","","","","",""
"null","<p style=""font-size: 80px;"">+ 10 points</p>","null","html-keyboard-response","18","453198","0.0-11.0-2.17","5f61371454efa10bdcfc588d","wxm6a0","AJ","61","M","{""name"":""Firefox"",""firefox"":true,""version"":""105.0"",""gecko"":true,""windows"":true,""osname"":""Windows"",""osversion"":""10"",""a"":true}","9:20:33","1","3","Test_1","70","f","1","1517","3840 x 2160","3840 x 2160","true","1","10","","","","",""
"null","<p style=""font-size: 80px;"">+ 10 points</p>","null","html-keyboard-response","19","456342","0.0-11.0-2.18","5f61371454efa10bdcfc588d","wxm6a0","AJ","61","M","{""name"":""Firefox"",""firefox"":true,""version"":""105.0"",""gecko"":true,""windows"":true,""osname"":""Windows"",""osversion"":""10"",""a"":true}","9:20:33","1","3","Test_1","70","f","1","1140","3840 x 2160","3840 x 2160","true","1","10","","","","",""
"null","<p style=""font-size: 80px;"">+ 0 points</p>","null","html-keyboard-response","20","459519","0.0-11.0-2.19","5f61371454efa10bdcfc588d","wxm6a0","AJ","61","M","{""name"":""Firefox"",""firefox"":true,""version"":""105.0"",""gecko"":true,""windows"":true,""osname"":""Windows"",""osversion"":""10"",""a"":true}","9:20:33","1","3","Test_2","70","j","0","1174","3840 x 2160","3840 x 2160","true","1","0","","","","",""
"null","<p style=""font-size: 80px;"">+ 10 points</p>","null","html-keyboard-response","21","462760","0.0-11.0-2.20","5f61371454efa10bdcfc588d","wxm6a0","AJ","61","M","{""name"":""Firefox"",""firefox"":true,""version"":""105.0"",""gecko"":true,""windows"":true,""osname"":""Windows"",""osversion"":""10"",""a"":true}","9:20:33","1","3","Test_4","74","j","1","1238","3840 x 2160","3840 x 2160","true","1","10","","","","",""
"null","<p style=""font-size: 80px;"">+ 10 points</p>","null","html-keyboard-response","22","466631","0.0-11.0-2.21","5f61371454efa10bdcfc588d","wxm6a0","AJ","61","M","{""name"":""Firefox"",""firefox"":true,""version"":""105.0"",""gecko"":true,""windows"":true,""osname"":""Windows"",""osversion"":""10"",""a"":true}","9:20:33","1","3","Test_3","70","f","1","1867","3840 x 2160","3840 x 2160","true","1","10","","","","",""
"null","<p style=""font-size: 80px;"">+ 10 points</p>","null","html-keyboard-response","23","470102","0.0-11.0-2.22","5f61371454efa10bdcfc588d","wxm6a0","AJ","61","M","{""name"":""Firefox"",""firefox"":true,""version"":""105.0"",""gecko"":true,""windows"":true,""osname"":""Windows"",""osversion"":""10"",""a"":true}","9:20:33","1","3","Test_3","70","f","1","1468","3840 x 2160","3840 x 2160","true","1","10","","","","",""
"null","<p style=""font-size: 80px;"">+ 10 points</p>","null","html-keyboard-response","24","473206","0.0-11.0-2.23","5f61371454efa10bdcfc588d","wxm6a0","AJ","61","M","{""name"":""Firefox"",""firefox"":true,""version"":""105.0"",""gecko"":true,""windows"":true,""osname"":""Windows"",""osversion"":""10"",""a"":true}","9:20:33","1","3","Test_4","74","j","1","1101","3840 x 2160","3840 x 2160","true","1","10","","","","",""
"null","<p style=""font-size: 80px;"">+ 0 points</p>","null","html-keyboard-response","25","478071","0.0-11.0-2.24","5f61371454efa10bdcfc588d","wxm6a0","AJ","61","M","{""name"":""Firefox"",""firefox"":true,""version"":""105.0"",""gecko"":true,""windows"":true,""osname"":""Windows"",""osversion"":""10"",""a"":true}","9:20:33","1","3","Test_2","70","j","0","2862","3840 x 2160","3840 x 2160","true","1","0","","","","",""
"null","<p style=""font-size: 80px;"">+ 10 points</p>","null","html-keyboard-response","26","481207","0.0-11.0-2.25","5f61371454efa10bdcfc588d","wxm6a0","AJ","61","M","{""name"":""Firefox"",""firefox"":true,""version"":""105.0"",""gecko"":true,""windows"":true,""osname"":""Windows"",""osversion"":""10"",""a"":true}","9:20:33","1","3","Test_2","74","j","1","1134","3840 x 2160","3840 x 2160","true","1","10","","","","",""
"null","<p style=""font-size: 80px;"">+ 10 points</p>","null","html-keyboard-response","27","484247","0.0-11.0-2.26","5f61371454efa10bdcfc588d","wxm6a0","AJ","61","M","{""name"":""Firefox"",""firefox"":true,""version"":""105.0"",""gecko"":true,""windows"":true,""osname"":""Windows"",""osversion"":""10"",""a"":true}","9:20:33","1","3","Test_3","70","f","1","1037","3840 x 2160","3840 x 2160","true","1","10","","","","",""
"null","<p style=""font-size: 80px;"">+ 10 points</p>","null","html-keyboard-response","28","487432","0.0-11.0-2.27","5f61371454efa10bdcfc588d","wxm6a0","AJ","61","M","{""name"":""Firefox"",""firefox"":true,""version"":""105.0"",""gecko"":true,""windows"":true,""osname"":""Windows"",""osversion"":""10"",""a"":true}","9:20:33","1","3","Test_4","74","j","1","1180","3840 x 2160","3840 x 2160","true","1","10","","","","",""
"null","<p style=""font-size: 80px;"">+ 10 points</p>","null","html-keyboard-response","29","491103","0.0-11.0-2.28","5f61371454efa10bdcfc588d","wxm6a0","AJ","61","M","{""name"":""Firefox"",""firefox"":true,""version"":""105.0"",""gecko"":true,""windows"":true,""osname"":""Windows"",""osversion"":""10"",""a"":true}","9:20:33","1","3","Test_3","70","f","1","1668","3840 x 2160","3840 x 2160","true","1","10","","","","",""
"null","<p style=""font-size: 80px;"">+ 10 points</p>","null","html-keyboard-response","30","494295","0.0-11.0-2.29","5f61371454efa10bdcfc588d","wxm6a0","AJ","61","M","{""name"":""Firefox"",""firefox"":true,""version"":""105.0"",""gecko"":true,""windows"":true,""osname"":""Windows"",""osversion"":""10"",""a"":true}","9:20:33","1","3","Test_2","74","j","1","1187","3840 x 2160","3840 x 2160","true","1","10","","","","",""
"null","<p style=""font-size: 80px;"">+ 10 points</p>","null","html-keyboard-response","31","497433","0.0-11.0-2.30","5f61371454efa10bdcfc588d","wxm6a0","AJ","61","M","{""name"":""Firefox"",""firefox"":true,""version"":""105.0"",""gecko"":true,""windows"":true,""osname"":""Windows"",""osversion"":""10"",""a"":true}","9:20:33","1","3","Test_2","74","j","1","1133","3840 x 2160","3840 x 2160","true","1","10","","","","",""
"null","<p style=""font-size: 80px;"">+ 10 points</p>","null","html-keyboard-response","32","500382","0.0-11.0-2.31","5f61371454efa10bdcfc588d","wxm6a0","AJ","61","M","{""name"":""Firefox"",""firefox"":true,""version"":""105.0"",""gecko"":true,""windows"":true,""osname"":""Windows"",""osversion"":""10"",""a"":true}","9:20:33","1","3","Test_1","70","f","1","946","3840 x 2160","3840 x 2160","true","1","10","","","","",""
"null","<p style=""font-size: 80px;"">+ 10 points</p>","null","html-keyboard-response","33","503503","0.0-11.0-2.32","5f61371454efa10bdcfc588d","wxm6a0","AJ","61","M","{""name"":""Firefox"",""firefox"":true,""version"":""105.0"",""gecko"":true,""windows"":true,""osname"":""Windows"",""osversion"":""10"",""a"":true}","9:20:33","1","3","Test_1","70","f","1","1118","3840 x 2160","3840 x 2160","true","1","10","","","","",""
"null","<p style=""font-size: 80px;"">+ 10 points</p>","null","html-keyboard-response","34","506814","0.0-11.0-2.33","5f61371454efa10bdcfc588d","wxm6a0","AJ","61","M","{""name"":""Firefox"",""firefox"":true,""version"":""105.0"",""gecko"":true,""windows"":true,""osname"":""Windows"",""osversion"":""10"",""a"":true}","9:20:33","1","3","Test_1","70","f","1","1310","3840 x 2160","3840 x 2160","true","1","10","","","","",""
"null","<p style=""font-size: 80px;"">+ 10 points</p>","null","html-keyboard-response","35","510181","0.0-11.0-2.34","5f61371454efa10bdcfc588d","wxm6a0","AJ","61","M","{""name"":""Firefox"",""firefox"":true,""version"":""105.0"",""gecko"":true,""windows"":true,""osname"":""Windows"",""osversion"":""10"",""a"":true}","9:20:33","1","3","Test_4","74","j","1","1366","3840 x 2160","3840 x 2160","true","1","10","","","","",""
"null","<p style=""font-size: 80px;"">+ 10 points</p>","null","html-keyboard-response","36","513622","0.0-11.0-2.35","5f61371454efa10bdcfc588d","wxm6a0","AJ","61","M","{""name"":""Firefox"",""firefox"":true,""version"":""105.0"",""gecko"":true,""windows"":true,""osname"":""Windows"",""osversion"":""10"",""a"":true}","9:20:33","1","3","Test_3","70","f","1","1438","3840 x 2160","3840 x 2160","true","1","10","","","","",""
"null","<p style=""font-size: 80px;"">+ 0 points</p>","null","html-keyboard-response","37","517990","0.0-11.0-2.36","5f61371454efa10bdcfc588d","wxm6a0","AJ","61","M","{""name"":""Firefox"",""firefox"":true,""version"":""105.0"",""gecko"":true,""windows"":true,""osname"":""Windows"",""osversion"":""10"",""a"":true}","9:20:33","1","4","Test_4","74","f","0","2366","3840 x 2160","3840 x 2160","true","1","0","","","","",""
"null","<p style=""font-size: 80px;"">+ 10 points</p>","null","html-keyboard-response","38","522352","0.0-11.0-2.37","5f61371454efa10bdcfc588d","wxm6a0","AJ","61","M","{""name"":""Firefox"",""firefox"":true,""version"":""105.0"",""gecko"":true,""windows"":true,""osname"":""Windows"",""osversion"":""10"",""a"":true}","9:20:33","1","4","Test_2","70","f","1","2358","3840 x 2160","3840 x 2160","true","1","10","","","","",""
"null","<p style=""font-size: 80px;"">+ 10 points</p>","null","html-keyboard-response","39","525471","0.0-11.0-2.38","5f61371454efa10bdcfc588d","wxm6a0","AJ","61","M","{""name"":""Firefox"",""firefox"":true,""version"":""105.0"",""gecko"":true,""windows"":true,""osname"":""Windows"",""osversion"":""10"",""a"":true}","9:20:33","1","4","Test_3","74","j","1","1116","3840 x 2160","3840 x 2160","true","1","10","","","","",""
"null","<p style=""font-size: 80px;"">+ 10 points</p>","null","html-keyboard-response","40","529519","0.0-11.0-2.39","5f61371454efa10bdcfc588d","wxm6a0","AJ","61","M","{""name"":""Firefox"",""firefox"":true,""version"":""105.0"",""gecko"":true,""windows"":true,""osname"":""Windows"",""osversion"":""10"",""a"":true}","9:20:33","1","4","Test_1","74","j","1","2046","3840 x 2160","3840 x 2160","true","1","10","","","","",""
"null","<p style=""font-size: 80px;"">+ 10 points</p>","null","html-keyboard-response","41","533087","0.0-11.0-2.40","5f61371454efa10bdcfc588d","wxm6a0","AJ","61","M","{""name"":""Firefox"",""firefox"":true,""version"":""105.0"",""gecko"":true,""windows"":true,""osname"":""Windows"",""osversion"":""10"",""a"":true}","9:20:33","1","4","Test_1","74","j","1","1564","3840 x 2160","3840 x 2160","true","1","10","","","","",""
"null","<p style=""font-size: 80px;"">+ 10 points</p>","null","html-keyboard-response","42","536414","0.0-11.0-2.41","5f61371454efa10bdcfc588d","wxm6a0","AJ","61","M","{""name"":""Firefox"",""firefox"":true,""version"":""105.0"",""gecko"":true,""windows"":true,""osname"":""Windows"",""osversion"":""10"",""a"":true}","9:20:33","1","4","Test_1","74","j","1","1325","3840 x 2160","3840 x 2160","true","1","10","","","","",""
"null","<p style=""font-size: 80px;"">+ 10 points</p>","null","html-keyboard-response","43","539231","0.0-11.0-2.42","5f61371454efa10bdcfc588d","wxm6a0","AJ","61","M","{""name"":""Firefox"",""firefox"":true,""version"":""105.0"",""gecko"":true,""windows"":true,""osname"":""Windows"",""osversion"":""10"",""a"":true}","9:20:33","1","4","Test_2","70","f","1","814","3840 x 2160","3840 x 2160","true","1","10","","","","",""
"null","<p style=""font-size: 80px;"">+ 10 points</p>","null","html-keyboard-response","44","542302","0.0-11.0-2.43","5f61371454efa10bdcfc588d","wxm6a0","AJ","61","M","{""name"":""Firefox"",""firefox"":true,""version"":""105.0"",""gecko"":true,""windows"":true,""osname"":""Windows"",""osversion"":""10"",""a"":true}","9:20:33","1","4","Test_3","74","j","1","1067","3840 x 2160","3840 x 2160","true","1","10","","","","",""
"null","<p style=""font-size: 80px;"">+ 10 points</p>","null","html-keyboard-response","45","545817","0.0-11.0-2.44","5f61371454efa10bdcfc588d","wxm6a0","AJ","61","M","{""name"":""Firefox"",""firefox"":true,""version"":""105.0"",""gecko"":true,""windows"":true,""osname"":""Windows"",""osversion"":""10"",""a"":true}","9:20:33","1","4","Test_1","74","j","1","1511","3840 x 2160","3840 x 2160","true","1","10","","","","",""
"null","<p style=""font-size: 80px;"">+ 10 points</p>","null","html-keyboard-response","46","548654","0.0-11.0-2.45","5f61371454efa10bdcfc588d","wxm6a0","AJ","61","M","{""name"":""Firefox"",""firefox"":true,""version"":""105.0"",""gecko"":true,""windows"":true,""osname"":""Windows"",""osversion"":""10"",""a"":true}","9:20:33","1","4","Test_3","74","j","1","835","3840 x 2160","3840 x 2160","true","1","10","","","","",""
"null","<p style=""font-size: 80px;"">+ 10 points</p>","null","html-keyboard-response","47","551830","0.0-11.0-2.46","5f61371454efa10bdcfc588d","wxm6a0","AJ","61","M","{""name"":""Firefox"",""firefox"":true,""version"":""105.0"",""gecko"":true,""windows"":true,""osname"":""Windows"",""osversion"":""10"",""a"":true}","9:20:33","1","4","Test_3","74","j","1","1173","3840 x 2160","3840 x 2160","true","1","10","","","","",""
"null","<p style=""font-size: 80px;"">+ 10 points</p>","null","html-keyboard-response","48","554807","0.0-11.0-2.47","5f61371454efa10bdcfc588d","wxm6a0","AJ","61","M","{""name"":""Firefox"",""firefox"":true,""version"":""105.0"",""gecko"":true,""windows"":true,""osname"":""Windows"",""osversion"":""10"",""a"":true}","9:20:33","1","4","Test_2","70","f","1","974","3840 x 2160","3840 x 2160","true","1","10","","","","",""
"null","<p style=""font-size: 80px;"">+ 10 points</p>","null","html-keyboard-response","49","558736","0.0-11.0-2.48","5f61371454efa10bdcfc588d","wxm6a0","AJ","61","M","{""name"":""Firefox"",""firefox"":true,""version"":""105.0"",""gecko"":true,""windows"":true,""osname"":""Windows"",""osversion"":""10"",""a"":true}","9:20:33","1","4","Test_4","70","f","1","1925","3840 x 2160","3840 x 2160","true","1","10","","","","",""
"null","<p style=""font-size: 80px;"">+ 10 points</p>","null","html-keyboard-response","50","561839","0.0-11.0-2.49","5f61371454efa10bdcfc588d","wxm6a0","AJ","61","M","{""name"":""Firefox"",""firefox"":true,""version"":""105.0"",""gecko"":true,""windows"":true,""osname"":""Windows"",""osversion"":""10"",""a"":true}","9:20:33","1","4","Test_4","70","f","1","1100","3840 x 2160","3840 x 2160","true","1","10","","","","",""
"null","<p style=""font-size: 80px;"">+ 10 points</p>","null","html-keyboard-response","51","564902","0.0-11.0-2.50","5f61371454efa10bdcfc588d","wxm6a0","AJ","61","M","{""name"":""Firefox"",""firefox"":true,""version"":""105.0"",""gecko"":true,""windows"":true,""osname"":""Windows"",""osversion"":""10"",""a"":true}","9:20:33","1","4","Test_4","70","f","1","1062","3840 x 2160","3840 x 2160","true","1","10","","","","",""
"null","<p style=""font-size: 80px;"">+ 10 points</p>","null","html-keyboard-response","52","568254","0.0-11.0-2.51","5f61371454efa10bdcfc588d","wxm6a0","AJ","61","M","{""name"":""Firefox"",""firefox"":true,""version"":""105.0"",""gecko"":true,""windows"":true,""osname"":""Windows"",""osversion"":""10"",""a"":true}","9:20:33","1","4","Test_4","70","f","1","1349","3840 x 2160","3840 x 2160","true","1","10","","","","",""
"null","<p style=""font-size: 80px;"">+ 10 points</p>","null","html-keyboard-response","53","571303","0.0-11.0-2.52","5f61371454efa10bdcfc588d","wxm6a0","AJ","61","M","{""name"":""Firefox"",""firefox"":true,""version"":""105.0"",""gecko"":true,""windows"":true,""osname"":""Windows"",""osversion"":""10"",""a"":true}","9:20:33","1","4","Test_1","74","j","1","1049","3840 x 2160","3840 x 2160","true","1","10","","","","",""
"null","<p style=""font-size: 80px;"">+ 10 points</p>","null","html-keyboard-response","54","575023","0.0-11.0-2.53","5f61371454efa10bdcfc588d","wxm6a0","AJ","61","M","{""name"":""Firefox"",""firefox"":true,""version"":""105.0"",""gecko"":true,""windows"":true,""osname"":""Windows"",""osversion"":""10"",""a"":true}","9:20:33","1","4","Test_2","70","f","1","1717","3840 x 2160","3840 x 2160","true","1","10","","","","",""
"null","<p style=""font-size: 80px;"">+ 10 points</p>","null","html-keyboard-response","55","578088","0.0-11.0-2.54","5f61371454efa10bdcfc588d","wxm6a0","AJ","61","M","{""name"":""Firefox"",""firefox"":true,""version"":""105.0"",""gecko"":true,""windows"":true,""osname"":""Windows"",""osversion"":""10"",""a"":true}","9:20:33","1","4","Test_2","70","f","1","1062","3840 x 2160","3840 x 2160","true","1","10","","","","",""
"null","<p style=""font-size: 80px;"">+ 10 points</p>","null","html-keyboard-response","56","581057","0.0-11.0-2.55","5f61371454efa10bdcfc588d","wxm6a0","AJ","61","M","{""name"":""Firefox"",""firefox"":true,""version"":""105.0"",""gecko"":true,""windows"":true,""osname"":""Windows"",""osversion"":""10"",""a"":true}","9:20:33","1","4","Test_3","74","j","1","965","3840 x 2160","3840 x 2160","true","1","10","","","","",""
"null","<p style=""font-size: 80px;"">+ 0 points</p>","null","html-keyboard-response","57","584239","0.0-11.0-2.56","5f61371454efa10bdcfc588d","wxm6a0","AJ","61","M","{""name"":""Firefox"",""firefox"":true,""version"":""105.0"",""gecko"":true,""windows"":true,""osname"":""Windows"",""osversion"":""10"",""a"":true}","9:20:33","1","3","Test_2","70","j","0","1178","3840 x 2160","3840 x 2160","true","1","0","","","","",""
"null","<p style=""font-size: 80px;"">+ 10 points</p>","null","html-keyboard-response","58","588350","0.0-11.0-2.57","5f61371454efa10bdcfc588d","wxm6a0","AJ","61","M","{""name"":""Firefox"",""firefox"":true,""version"":""105.0"",""gecko"":true,""windows"":true,""osname"":""Windows"",""osversion"":""10"",""a"":true}","9:20:33","1","3","Test_2","74","j","1","2108","3840 x 2160","3840 x 2160","true","1","10","","","","",""
"null","<p style=""font-size: 80px;"">+ 10 points</p>","null","html-keyboard-response","59","591200","0.0-11.0-2.58","5f61371454efa10bdcfc588d","wxm6a0","AJ","61","M","{""name"":""Firefox"",""firefox"":true,""version"":""105.0"",""gecko"":true,""windows"":true,""osname"":""Windows"",""osversion"":""10"",""a"":true}","9:20:33","1","3","Test_1","70","f","1","844","3840 x 2160","3840 x 2160","true","1","10","","","","",""
"null","<p style=""font-size: 80px;"">+ 10 points</p>","null","html-keyboard-response","60","594261","0.0-11.0-2.59","5f61371454efa10bdcfc588d","wxm6a0","AJ","61","M","{""name"":""Firefox"",""firefox"":true,""version"":""105.0"",""gecko"":true,""windows"":true,""osname"":""Windows"",""osversion"":""10"",""a"":true}","9:20:33","1","3","Test_2","74","j","1","1060","3840 x 2160","3840 x 2160","true","1","10","","","","",""
"null","<p style=""font-size: 80px;"">+ 10 points</p>","null","html-keyboard-response","61","597057","0.0-11.0-2.60","5f61371454efa10bdcfc588d","wxm6a0","AJ","61","M","{""name"":""Firefox"",""firefox"":true,""version"":""105.0"",""gecko"":true,""windows"":true,""osname"":""Windows"",""osversion"":""10"",""a"":true}","9:20:33","1","3","Test_1","70","f","1","791","3840 x 2160","3840 x 2160","true","1","10","","","","",""
"null","<p style=""font-size: 80px;"">+ 10 points</p>","null","html-keyboard-response","62","600302","0.0-11.0-2.61","5f61371454efa10bdcfc588d","wxm6a0","AJ","61","M","{""name"":""Firefox"",""firefox"":true,""version"":""105.0"",""gecko"":true,""windows"":true,""osname"":""Windows"",""osversion"":""10"",""a"":true}","9:20:33","1","3","Test_2","74","j","1","1241","3840 x 2160","3840 x 2160","true","1","10","","","","",""
"null","<p style=""font-size: 80px;"">+ 10 points</p>","null","html-keyboard-response","63","603592","0.0-11.0-2.62","5f61371454efa10bdcfc588d","wxm6a0","AJ","61","M","{""name"":""Firefox"",""firefox"":true,""version"":""105.0"",""gecko"":true,""windows"":true,""osname"":""Windows"",""osversion"":""10"",""a"":true}","9:20:33","1","3","Test_3","70","f","1","1286","3840 x 2160","3840 x 2160","true","1","10","","","","",""
"null","<p style=""font-size: 80px;"">+ 10 points</p>","null","html-keyboard-response","64","606440","0.0-11.0-2.63","5f61371454efa10bdcfc588d","wxm6a0","AJ","61","M","{""name"":""Firefox"",""firefox"":true,""version"":""105.0"",""gecko"":true,""windows"":true,""osname"":""Windows"",""osversion"":""10"",""a"":true}","9:20:33","1","3","Test_4","74","j","1","844","3840 x 2160","3840 x 2160","true","1","10","","","","",""
"null","<p style=""font-size: 80px;"">+ 10 points</p>","null","html-keyboard-response","65","610071","0.0-11.0-2.64","5f61371454efa10bdcfc588d","wxm6a0","AJ","61","M","{""name"":""Firefox"",""firefox"":true,""version"":""105.0"",""gecko"":true,""windows"":true,""osname"":""Windows"",""osversion"":""10"",""a"":true}","9:20:33","1","3","Test_2","74","j","1","1629","3840 x 2160","3840 x 2160","true","1","10","","","","",""
"null","<p style=""font-size: 80px;"">+ 10 points</p>","null","html-keyboard-response","66","612856","0.0-11.0-2.65","5f61371454efa10bdcfc588d","wxm6a0","AJ","61","M","{""name"":""Firefox"",""firefox"":true,""version"":""105.0"",""gecko"":true,""windows"":true,""osname"":""Windows"",""osversion"":""10"",""a"":true}","9:20:33","1","3","Test_1","70","f","1","783","3840 x 2160","3840 x 2160","true","1","10","","","","",""
"null","<p style=""font-size: 80px;"">+ 10 points</p>","null","html-keyboard-response","67","615888","0.0-11.0-2.66","5f61371454efa10bdcfc588d","wxm6a0","AJ","61","M","{""name"":""Firefox"",""firefox"":true,""version"":""105.0"",""gecko"":true,""windows"":true,""osname"":""Windows"",""osversion"":""10"",""a"":true}","9:20:33","1","3","Test_1","70","f","1","1029","3840 x 2160","3840 x 2160","true","1","10","","","","",""
"null","<p style=""font-size: 80px;"">+ 10 points</p>","null","html-keyboard-response","68","618982","0.0-11.0-2.67","5f61371454efa10bdcfc588d","wxm6a0","AJ","61","M","{""name"":""Firefox"",""firefox"":true,""version"":""105.0"",""gecko"":true,""windows"":true,""osname"":""Windows"",""osversion"":""10"",""a"":true}","9:20:33","1","3","Test_3","70","f","1","1091","3840 x 2160","3840 x 2160","true","1","10","","","","",""
"null","<p style=""font-size: 80px;"">+ 10 points</p>","null","html-keyboard-response","69","623071","0.0-11.0-2.68","5f61371454efa10bdcfc588d","wxm6a0","AJ","61","M","{""name"":""Firefox"",""firefox"":true,""version"":""105.0"",""gecko"":true,""windows"":true,""osname"":""Windows"",""osversion"":""10"",""a"":true}","9:20:33","1","3","Test_1","70","f","1","2086","3840 x 2160","3840 x 2160","true","1","10","","","","",""
"null","<p style=""font-size: 80px;"">+ 10 points</p>","null","html-keyboard-response","70","626085","0.0-11.0-2.69","5f61371454efa10bdcfc588d","wxm6a0","AJ","61","M","{""name"":""Firefox"",""firefox"":true,""version"":""105.0"",""gecko"":true,""windows"":true,""osname"":""Windows"",""osversion"":""10"",""a"":true}","9:20:33","1","3","Test_1","70","f","1","1012","3840 x 2160","3840 x 2160","true","1","10","","","","",""
"null","<p style=""font-size: 80px;"">+ 10 points</p>","null","html-keyboard-response","71","629048","0.0-11.0-2.70","5f61371454efa10bdcfc588d","wxm6a0","AJ","61","M","{""name"":""Firefox"",""firefox"":true,""version"":""105.0"",""gecko"":true,""windows"":true,""osname"":""Windows"",""osversion"":""10"",""a"":true}","9:20:33","1","3","Test_4","74","j","1","959","3840 x 2160","3840 x 2160","true","1","10","","","","",""
"null","<p style=""font-size: 80px;"">+ 10 points</p>","null","html-keyboard-response","72","632047","0.0-11.0-2.71","5f61371454efa10bdcfc588d","wxm6a0","AJ","61","M","{""name"":""Firefox"",""firefox"":true,""version"":""105.0"",""gecko"":true,""windows"":true,""osname"":""Windows"",""osversion"":""10"",""a"":true}","9:20:33","1","3","Test_4","74","j","1","994","3840 x 2160","3840 x 2160","true","1","10","","","","",""
"null","<p style=""font-size: 80px;"">+ 10 points</p>","null","html-keyboard-response","73","635134","0.0-11.0-2.72","5f61371454efa10bdcfc588d","wxm6a0","AJ","61","M","{""name"":""Firefox"",""firefox"":true,""version"":""105.0"",""gecko"":true,""windows"":true,""osname"":""Windows"",""osversion"":""10"",""a"":true}","9:20:33","1","3","Test_2","74","j","1","1083","3840 x 2160","3840 x 2160","true","1","10","","","","",""
"null","<p style=""font-size: 80px;"">+ 10 points</p>","null","html-keyboard-response","74","638663","0.0-11.0-2.73","5f61371454efa10bdcfc588d","wxm6a0","AJ","61","M","{""name"":""Firefox"",""firefox"":true,""version"":""105.0"",""gecko"":true,""windows"":true,""osname"":""Windows"",""osversion"":""10"",""a"":true}","9:20:33","1","3","Test_4","74","j","1","1527","3840 x 2160","3840 x 2160","true","1","10","","","","",""
"null","<p style=""font-size: 80px;"">+ 10 points</p>","null","html-keyboard-response","75","641599","0.0-11.0-2.74","5f61371454efa10bdcfc588d","wxm6a0","AJ","61","M","{""name"":""Firefox"",""firefox"":true,""version"":""105.0"",""gecko"":true,""windows"":true,""osname"":""Windows"",""osversion"":""10"",""a"":true}","9:20:33","1","3","Test_3","70","f","1","933","3840 x 2160","3840 x 2160","true","1","10","","","","",""
"null","<p style=""font-size: 80px;"">+ 10 points</p>","null","html-keyboard-response","76","645185","0.0-11.0-2.75","5f61371454efa10bdcfc588d","wxm6a0","AJ","61","M","{""name"":""Firefox"",""firefox"":true,""version"":""105.0"",""gecko"":true,""windows"":true,""osname"":""Windows"",""osversion"":""10"",""a"":true}","9:20:33","1","3","Test_4","74","j","1","1582","3840 x 2160","3840 x 2160","true","1","10","","","","",""
"null","<p style=""font-size: 80px;"">+ 10 points</p>","null","html-keyboard-response","77","648223","0.0-11.0-2.76","5f61371454efa10bdcfc588d","wxm6a0","AJ","61","M","{""name"":""Firefox"",""firefox"":true,""version"":""105.0"",""gecko"":true,""windows"":true,""osname"":""Windows"",""osversion"":""10"",""a"":true}","9:20:33","1","3","Test_3","70","f","1","1037","3840 x 2160","3840 x 2160","true","1","10","","","","",""
"null","<p style=""font-size: 80px;"">+ 10 points</p>","null","html-keyboard-response","78","652671","0.0-11.0-2.77","5f61371454efa10bdcfc588d","wxm6a0","AJ","61","M","{""name"":""Firefox"",""firefox"":true,""version"":""105.0"",""gecko"":true,""windows"":true,""osname"":""Windows"",""osversion"":""10"",""a"":true}","9:20:33","1","3","Test_3","70","f","1","2444","3840 x 2160","3840 x 2160","true","1","10","","","","",""
"null","<p style=""font-size: 80px;"">+ 0 points</p>","null","html-keyboard-response","79","655585","0.0-11.0-2.78","5f61371454efa10bdcfc588d","wxm6a0","AJ","61","M","{""name"":""Firefox"",""firefox"":true,""version"":""105.0"",""gecko"":true,""windows"":true,""osname"":""Windows"",""osversion"":""10"",""a"":true}","9:20:33","1","4","Test_1","70","j","0","911","3840 x 2160","3840 x 2160","true","1","0","","","","",""
"null","<p style=""font-size: 80px;"">+ 10 points</p>","null","html-keyboard-response","80","658870","0.0-11.0-2.79","5f61371454efa10bdcfc588d","wxm6a0","AJ","61","M","{""name"":""Firefox"",""firefox"":true,""version"":""105.0"",""gecko"":true,""windows"":true,""osname"":""Windows"",""osversion"":""10"",""a"":true}","9:20:33","1","4","Test_4","70","f","1","1283","3840 x 2160","3840 x 2160","true","1","10","","","","",""
"null","<p style=""font-size: 80px;"">+ 10 points</p>","null","html-keyboard-response","81","661846","0.0-11.0-2.80","5f61371454efa10bdcfc588d","wxm6a0","AJ","61","M","{""name"":""Firefox"",""firefox"":true,""version"":""105.0"",""gecko"":true,""windows"":true,""osname"":""Windows"",""osversion"":""10"",""a"":true}","9:20:33","1","4","Test_2","70","f","1","974","3840 x 2160","3840 x 2160","true","1","10","","","","",""
"null","<p style=""font-size: 80px;"">+ 10 points</p>","null","html-keyboard-response","82","665168","0.0-11.0-2.81","5f61371454efa10bdcfc588d","wxm6a0","AJ","61","M","{""name"":""Firefox"",""firefox"":true,""version"":""105.0"",""gecko"":true,""windows"":true,""osname"":""Windows"",""osversion"":""10"",""a"":true}","9:20:33","1","4","Test_2","70","f","1","1319","3840 x 2160","3840 x 2160","true","1","10","","","","",""
"null","<p style=""font-size: 80px;"">+ 10 points</p>","null","html-keyboard-response","83","668766","0.0-11.0-2.82","5f61371454efa10bdcfc588d","wxm6a0","AJ","61","M","{""name"":""Firefox"",""firefox"":true,""version"":""105.0"",""gecko"":true,""windows"":true,""osname"":""Windows"",""osversion"":""10"",""a"":true}","9:20:33","1","4","Test_4","70","f","1","1596","3840 x 2160","3840 x 2160","true","1","10","","","","",""
"null","<p style=""font-size: 80px;"">+ 10 points</p>","null","html-keyboard-response","84","671599","0.0-11.0-2.83","5f61371454efa10bdcfc588d","wxm6a0","AJ","61","M","{""name"":""Firefox"",""firefox"":true,""version"":""105.0"",""gecko"":true,""windows"":true,""osname"":""Windows"",""osversion"":""10"",""a"":true}","9:20:33","1","4","Test_3","74","j","1","829","3840 x 2160","3840 x 2160","true","1","10","","","","",""
"null","<p style=""font-size: 80px;"">+ 10 points</p>","null","html-keyboard-response","85","674624","0.0-11.0-2.84","5f61371454efa10bdcfc588d","wxm6a0","AJ","61","M","{""name"":""Firefox"",""firefox"":true,""version"":""105.0"",""gecko"":true,""windows"":true,""osname"":""Windows"",""osversion"":""10"",""a"":true}","9:20:33","1","4","Test_1","74","j","1","1019","3840 x 2160","3840 x 2160","true","1","10","","","","",""
"null","<p style=""font-size: 80px;"">+ 10 points</p>","null","html-keyboard-response","86","678314","0.0-11.0-2.85","5f61371454efa10bdcfc588d","wxm6a0","AJ","61","M","{""name"":""Firefox"",""firefox"":true,""version"":""105.0"",""gecko"":true,""windows"":true,""osname"":""Windows"",""osversion"":""10"",""a"":true}","9:20:33","1","4","Test_2","70","f","1","1685","3840 x 2160","3840 x 2160","true","1","10","","","","",""
"null","<p style=""font-size: 80px;"">+ 10 points</p>","null","html-keyboard-response","87","681414","0.0-11.0-2.86","5f61371454efa10bdcfc588d","wxm6a0","AJ","61","M","{""name"":""Firefox"",""firefox"":true,""version"":""105.0"",""gecko"":true,""windows"":true,""osname"":""Windows"",""osversion"":""10"",""a"":true}","9:20:33","1","4","Test_4","70","f","1","1099","3840 x 2160","3840 x 2160","true","1","10","","","","",""
"null","<p style=""font-size: 80px;"">+ 10 points</p>","null","html-keyboard-response","88","684637","0.0-11.0-2.87","5f61371454efa10bdcfc588d","wxm6a0","AJ","61","M","{""name"":""Firefox"",""firefox"":true,""version"":""105.0"",""gecko"":true,""windows"":true,""osname"":""Windows"",""osversion"":""10"",""a"":true}","9:20:33","1","4","Test_4","70","f","1","1220","3840 x 2160","3840 x 2160","true","1","10","","","","",""
"null","<p style=""font-size: 80px;"">+ 10 points</p>","null","html-keyboard-response","89","687543","0.0-11.0-2.88","5f61371454efa10bdcfc588d","wxm6a0","AJ","61","M","{""name"":""Firefox"",""firefox"":true,""version"":""105.0"",""gecko"":true,""windows"":true,""osname"":""Windows"",""osversion"":""10"",""a"":true}","9:20:33","1","4","Test_3","74","j","1","903","3840 x 2160","3840 x 2160","true","1","10","","","","",""
"null","<p style=""font-size: 80px;"">+ 10 points</p>","null","html-keyboard-response","90","690936","0.0-11.0-2.89","5f61371454efa10bdcfc588d","wxm6a0","AJ","61","M","{""name"":""Firefox"",""firefox"":true,""version"":""105.0"",""gecko"":true,""windows"":true,""osname"":""Windows"",""osversion"":""10"",""a"":true}","9:20:33","1","4","Test_2","70","f","1","1390","3840 x 2160","3840 x 2160","true","1","10","","","","",""
"null","<p style=""font-size: 80px;"">+ 10 points</p>","null","html-keyboard-response","91","693904","0.0-11.0-2.90","5f61371454efa10bdcfc588d","wxm6a0","AJ","61","M","{""name"":""Firefox"",""firefox"":true,""version"":""105.0"",""gecko"":true,""windows"":true,""osname"":""Windows"",""osversion"":""10"",""a"":true}","9:20:33","1","4","Test_3","74","j","1","964","3840 x 2160","3840 x 2160","true","1","10","","","","",""
"null","<p style=""font-size: 80px;"">+ 10 points</p>","null","html-keyboard-response","92","697311","0.0-11.0-2.91","5f61371454efa10bdcfc588d","wxm6a0","AJ","61","M","{""name"":""Firefox"",""firefox"":true,""version"":""105.0"",""gecko"":true,""windows"":true,""osname"":""Windows"",""osversion"":""10"",""a"":true}","9:20:33","1","4","Test_3","74","j","1","1404","3840 x 2160","3840 x 2160","true","1","10","","","","",""
"null","<p style=""font-size: 80px;"">+ 10 points</p>","null","html-keyboard-response","93","700374","0.0-11.0-2.92","5f61371454efa10bdcfc588d","wxm6a0","AJ","61","M","{""name"":""Firefox"",""firefox"":true,""version"":""105.0"",""gecko"":true,""windows"":true,""osname"":""Windows"",""osversion"":""10"",""a"":true}","9:20:33","1","4","Test_1","74","j","1","1061","3840 x 2160","3840 x 2160","true","1","10","","","","",""
"null","<p style=""font-size: 80px;"">+ 0 points</p>","null","html-keyboard-response","94","703479","0.0-11.0-2.93","5f61371454efa10bdcfc588d","wxm6a0","AJ","61","M","{""name"":""Firefox"",""firefox"":true,""version"":""105.0"",""gecko"":true,""windows"":true,""osname"":""Windows"",""osversion"":""10"",""a"":true}","9:20:33","1","3","Test_2","70","j","0","1101","3840 x 2160","3840 x 2160","true","1","0","","","","",""
"null","<p style=""font-size: 80px;"">+ 10 points</p>","null","html-keyboard-response","95","706848","0.0-11.0-2.94","5f61371454efa10bdcfc588d","wxm6a0","AJ","61","M","{""name"":""Firefox"",""firefox"":true,""version"":""105.0"",""gecko"":true,""windows"":true,""osname"":""Windows"",""osversion"":""10"",""a"":true}","9:20:33","1","3","Test_2","74","j","1","1367","3840 x 2160","3840 x 2160","true","1","10","","","","",""
"null","<p style=""font-size: 80px;"">+ 10 points</p>","null","html-keyboard-response","96","709631","0.0-11.0-2.95","5f61371454efa10bdcfc588d","wxm6a0","AJ","61","M","{""name"":""Firefox"",""firefox"":true,""version"":""105.0"",""gecko"":true,""windows"":true,""osname"":""Windows"",""osversion"":""10"",""a"":true}","9:20:33","1","3","Test_1","70","f","1","779","3840 x 2160","3840 x 2160","true","1","10","","","","",""
"null","<p style=""font-size: 80px;"">+ 10 points</p>","null","html-keyboard-response","97","712519","0.0-11.0-2.96","5f61371454efa10bdcfc588d","wxm6a0","AJ","61","M","{""name"":""Firefox"",""firefox"":true,""version"":""105.0"",""gecko"":true,""windows"":true,""osname"":""Windows"",""osversion"":""10"",""a"":true}","9:20:33","1","3","Test_1","70","f","1","886","3840 x 2160","3840 x 2160","true","1","10","","","","",""
"null","<p style=""font-size: 80px;"">+ 10 points</p>","null","html-keyboard-response","98","715736","0.0-11.0-2.97","5f61371454efa10bdcfc588d","wxm6a0","AJ","61","M","{""name"":""Firefox"",""firefox"":true,""version"":""105.0"",""gecko"":true,""windows"":true,""osname"":""Windows"",""osversion"":""10"",""a"":true}","9:20:33","1","3","Test_2","74","j","1","1213","3840 x 2160","3840 x 2160","true","1","10","","","","",""
"null","<p style=""font-size: 80px;"">+ 10 points</p>","null","html-keyboard-response","99","718822","0.0-11.0-2.98","5f61371454efa10bdcfc588d","wxm6a0","AJ","61","M","{""name"":""Firefox"",""firefox"":true,""version"":""105.0"",""gecko"":true,""windows"":true,""osname"":""Windows"",""osversion"":""10"",""a"":true}","9:20:33","1","3","Test_2","74","j","1","1083","3840 x 2160","3840 x 2160","true","1","10","","","","",""
"null","<p style=""font-size: 80px;"">+ 10 points</p>","null","html-keyboard-response","100","721793","0.0-11.0-2.99","5f61371454efa10bdcfc588d","wxm6a0","AJ","61","M","{""name"":""Firefox"",""firefox"":true,""version"":""105.0"",""gecko"":true,""windows"":true,""osname"":""Windows"",""osversion"":""10"",""a"":true}","9:20:33","1","3","Test_4","74","j","1","966","3840 x 2160","3840 x 2160","true","1","10","","","","",""
"null","<p style=""font-size: 80px;"">+ 10 points</p>","null","html-keyboard-response","101","725104","0.0-11.0-2.100","5f61371454efa10bdcfc588d","wxm6a0","AJ","61","M","{""name"":""Firefox"",""firefox"":true,""version"":""105.0"",""gecko"":true,""windows"":true,""osname"":""Windows"",""osversion"":""10"",""a"":true}","9:20:33","1","3","Test_3","70","f","1","1307","3840 x 2160","3840 x 2160","true","1","10","","","","",""
"null","<p style=""font-size: 80px;"">+ 0 points</p>","null","html-keyboard-response","102","728798","0.0-11.0-2.101","5f61371454efa10bdcfc588d","wxm6a0","AJ","61","M","{""name"":""Firefox"",""firefox"":true,""version"":""105.0"",""gecko"":true,""windows"":true,""osname"":""Windows"",""osversion"":""10"",""a"":true}","9:20:33","1","3","Test_3","74","f","0","1692","3840 x 2160","3840 x 2160","true","1","0","","","","",""
"null","<p style=""font-size: 80px;"">+ 0 points</p>","null","html-keyboard-response","103","732128","0.0-11.0-2.102","5f61371454efa10bdcfc588d","wxm6a0","AJ","61","M","{""name"":""Firefox"",""firefox"":true,""version"":""105.0"",""gecko"":true,""windows"":true,""osname"":""Windows"",""osversion"":""10"",""a"":true}","9:20:33","1","3","Test_1","74","f","0","1325","3840 x 2160","3840 x 2160","true","1","0","","","","",""
"null","<p style=""font-size: 80px;"">+ 0 points</p>","null","html-keyboard-response","104","735688","0.0-11.0-2.103","5f61371454efa10bdcfc588d","wxm6a0","AJ","61","M","{""name"":""Firefox"",""firefox"":true,""version"":""105.0"",""gecko"":true,""windows"":true,""osname"":""Windows"",""osversion"":""10"",""a"":true}","9:20:33","1","3","Test_4","70","j","0","1557","3840 x 2160","3840 x 2160","true","1","0","","","","",""
"null","<p style=""font-size: 80px;"">+ 10 points</p>","null","html-keyboard-response","105","739281","0.0-11.0-2.104","5f61371454efa10bdcfc588d","wxm6a0","AJ","61","M","{""name"":""Firefox"",""firefox"":true,""version"":""105.0"",""gecko"":true,""windows"":true,""osname"":""Windows"",""osversion"":""10"",""a"":true}","9:20:33","1","3","Test_3","70","f","1","1590","3840 x 2160","3840 x 2160","true","1","10","","","","",""
"null","<p style=""font-size: 80px;"">+ 10 points</p>","null","html-keyboard-response","106","743128","0.0-11.0-2.105","5f61371454efa10bdcfc588d","wxm6a0","AJ","61","M","{""name"":""Firefox"",""firefox"":true,""version"":""105.0"",""gecko"":true,""windows"":true,""osname"":""Windows"",""osversion"":""10"",""a"":true}","9:20:33","1","3","Test_1","70","f","1","1843","3840 x 2160","3840 x 2160","true","1","10","","","","",""
"null","<p style=""font-size: 80px;"">+ 0 points</p>","null","html-keyboard-response","107","747256","0.0-11.0-2.106","5f61371454efa10bdcfc588d","wxm6a0","AJ","61","M","{""name"":""Firefox"",""firefox"":true,""version"":""105.0"",""gecko"":true,""windows"":true,""osname"":""Windows"",""osversion"":""10"",""a"":true}","9:20:33","1","3","Test_1","74","f","0","2124","3840 x 2160","3840 x 2160","true","1","0","","","","",""
"null","<p style=""font-size: 80px;"">+ 0 points</p>","null","html-keyboard-response","108","750462","0.0-11.0-2.107","5f61371454efa10bdcfc588d","wxm6a0","AJ","61","M","{""name"":""Firefox"",""firefox"":true,""version"":""105.0"",""gecko"":true,""windows"":true,""osname"":""Windows"",""osversion"":""10"",""a"":true}","9:20:33","1","3","Test_3","74","f","0","1205","3840 x 2160","3840 x 2160","true","1","0","","","","",""
"null","<p style=""font-size: 80px;"">+ 10 points</p>","null","html-keyboard-response","109","753856","0.0-11.0-2.108","5f61371454efa10bdcfc588d","wxm6a0","AJ","61","M","{""name"":""Firefox"",""firefox"":true,""version"":""105.0"",""gecko"":true,""windows"":true,""osname"":""Windows"",""osversion"":""10"",""a"":true}","9:20:33","1","3","Test_4","74","j","1","1389","3840 x 2160","3840 x 2160","true","1","10","","","","",""
"null","<p style=""font-size: 80px;"">+ 0 points</p>","null","html-keyboard-response","110","783767","0.0-11.0-2.109","5f61371454efa10bdcfc588d","wxm6a0","AJ","61","M","{""name"":""Firefox"",""firefox"":true,""version"":""105.0"",""gecko"":true,""windows"":true,""osname"":""Windows"",""osversion"":""10"",""a"":true}","9:20:33","1","3","Test_3","74","f","0","2591","3840 x 2160","3840 x 2160","true","1","0","","","","",""
"null","<p style=""font-size: 80px;"">+ 10 points</p>","null","html-keyboard-response","111","787311","0.0-11.0-2.110","5f61371454efa10bdcfc588d","wxm6a0","AJ","61","M","{""name"":""Firefox"",""firefox"":true,""version"":""105.0"",""gecko"":true,""windows"":true,""osname"":""Windows"",""osversion"":""10"",""a"":true}","9:20:33","1","3","Test_4","74","j","1","1541","3840 x 2160","3840 x 2160","true","1","10","","","","",""
"null","<p style=""font-size: 80px;"">+ 10 points</p>","null","html-keyboard-response","112","790551","0.0-11.0-2.111","5f61371454efa10bdcfc588d","wxm6a0","AJ","61","M","{""name"":""Firefox"",""firefox"":true,""version"":""105.0"",""gecko"":true,""windows"":true,""osname"":""Windows"",""osversion"":""10"",""a"":true}","9:20:33","1","3","Test_4","74","j","1","1235","3840 x 2160","3840 x 2160","true","1","10","","","","",""
"null","<p style=""font-size: 80px;"">+ 10 points</p>","null","html-keyboard-response","113","793599","0.0-11.0-2.112","5f61371454efa10bdcfc588d","wxm6a0","AJ","61","M","{""name"":""Firefox"",""firefox"":true,""version"":""105.0"",""gecko"":true,""windows"":true,""osname"":""Windows"",""osversion"":""10"",""a"":true}","9:20:33","1","3","Test_2","74","j","1","1044","3840 x 2160","3840 x 2160","true","1","10","","","","",""
"null","<p style=""font-size: 80px;"">+ 0 points</p>","null","html-keyboard-response","114","796846","0.0-11.0-2.113","5f61371454efa10bdcfc588d","wxm6a0","AJ","61","M","{""name"":""Firefox"",""firefox"":true,""version"":""105.0"",""gecko"":true,""windows"":true,""osname"":""Windows"",""osversion"":""10"",""a"":true}","9:20:33","1","4","Test_3","70","j","0","1244","3840 x 2160","3840 x 2160","true","1","0","","","","",""
"null","<p style=""font-size: 80px;"">+ 10 points</p>","null","html-keyboard-response","115","799711","0.0-11.0-2.114","5f61371454efa10bdcfc588d","wxm6a0","AJ","61","M","{""name"":""Firefox"",""firefox"":true,""version"":""105.0"",""gecko"":true,""windows"":true,""osname"":""Windows"",""osversion"":""10"",""a"":true}","9:20:33","1","4","Test_1","74","j","1","862","3840 x 2160","3840 x 2160","true","1","10","","","","",""
"null","<p style=""font-size: 80px;"">+ 10 points</p>","null","html-keyboard-response","116","802967","0.0-11.0-2.115","5f61371454efa10bdcfc588d","wxm6a0","AJ","61","M","{""name"":""Firefox"",""firefox"":true,""version"":""105.0"",""gecko"":true,""windows"":true,""osname"":""Windows"",""osversion"":""10"",""a"":true}","9:20:33","1","4","Test_4","70","f","1","1253","3840 x 2160","3840 x 2160","true","1","10","","","","",""
"null","<p style=""font-size: 80px;"">+ 10 points</p>","null","html-keyboard-response","117","806270","0.0-11.0-2.116","5f61371454efa10bdcfc588d","wxm6a0","AJ","61","M","{""name"":""Firefox"",""firefox"":true,""version"":""105.0"",""gecko"":true,""windows"":true,""osname"":""Windows"",""osversion"":""10"",""a"":true}","9:20:33","1","4","Test_1","74","j","1","1301","3840 x 2160","3840 x 2160","true","1","10","","","","",""
"null","<p style=""font-size: 80px;"">+ 10 points</p>","null","html-keyboard-response","118","809231","0.0-11.0-2.117","5f61371454efa10bdcfc588d","wxm6a0","AJ","61","M","{""name"":""Firefox"",""firefox"":true,""version"":""105.0"",""gecko"":true,""windows"":true,""osname"":""Windows"",""osversion"":""10"",""a"":true}","9:20:33","1","4","Test_2","70","f","1","958","3840 x 2160","3840 x 2160","true","1","10","","","","",""
"null","<p style=""font-size: 80px;"">+ 10 points</p>","null","html-keyboard-response","119","812613","0.0-11.0-2.118","5f61371454efa10bdcfc588d","wxm6a0","AJ","61","M","{""name"":""Firefox"",""firefox"":true,""version"":""105.0"",""gecko"":true,""windows"":true,""osname"":""Windows"",""osversion"":""10"",""a"":true}","9:20:33","1","4","Test_3","74","j","1","1380","3840 x 2160","3840 x 2160","true","1","10","","","","",""
"null","<p style=""font-size: 80px;"">+ 10 points</p>","null","html-keyboard-response","120","815655","0.0-11.0-2.119","5f61371454efa10bdcfc588d","wxm6a0","AJ","61","M","{""name"":""Firefox"",""firefox"":true,""version"":""105.0"",""gecko"":true,""windows"":true,""osname"":""Windows"",""osversion"":""10"",""a"":true}","9:20:33","1","4","Test_4","70","f","1","1039","3840 x 2160","3840 x 2160","true","1","10","","","","",""
"null","<p style=""font-size: 80px;"">+ 10 points</p>","null","html-keyboard-response","121","819158","0.0-11.0-2.120","5f61371454efa10bdcfc588d","wxm6a0","AJ","61","M","{""name"":""Firefox"",""firefox"":true,""version"":""105.0"",""gecko"":true,""windows"":true,""osname"":""Windows"",""osversion"":""10"",""a"":true}","9:20:33","1","4","Test_2","70","f","1","1499","3840 x 2160","3840 x 2160","true","1","10","","","","",""
"null","<p style=""font-size: 80px;"">+ 10 points</p>","null","html-keyboard-response","122","822287","0.0-11.0-2.121","5f61371454efa10bdcfc588d","wxm6a0","AJ","61","M","{""name"":""Firefox"",""firefox"":true,""version"":""105.0"",""gecko"":true,""windows"":true,""osname"":""Windows"",""osversion"":""10"",""a"":true}","9:20:33","1","4","Test_2","70","f","1","1125","3840 x 2160","3840 x 2160","true","1","10","","","","",""
"null","<p style=""font-size: 80px;"">+ 10 points</p>","null","html-keyboard-response","123","825375","0.0-11.0-2.122","5f61371454efa10bdcfc588d","wxm6a0","AJ","61","M","{""name"":""Firefox"",""firefox"":true,""version"":""105.0"",""gecko"":true,""windows"":true,""osname"":""Windows"",""osversion"":""10"",""a"":true}","9:20:33","1","4","Test_4","70","f","1","1086","3840 x 2160","3840 x 2160","true","1","10","","","","",""
"null","<p style=""font-size: 80px;"">+ 10 points</p>","null","html-keyboard-response","124","828422","0.0-11.0-2.123","5f61371454efa10bdcfc588d","wxm6a0","AJ","61","M","{""name"":""Firefox"",""firefox"":true,""version"":""105.0"",""gecko"":true,""windows"":true,""osname"":""Windows"",""osversion"":""10"",""a"":true}","9:20:33","1","4","Test_4","70","f","1","1044","3840 x 2160","3840 x 2160","true","1","10","","","","",""
"null","<p style=""font-size: 80px;"">+ 10 points</p>","null","html-keyboard-response","125","831665","0.0-11.0-2.124","5f61371454efa10bdcfc588d","wxm6a0","AJ","61","M","{""name"":""Firefox"",""firefox"":true,""version"":""105.0"",""gecko"":true,""windows"":true,""osname"":""Windows"",""osversion"":""10"",""a"":true}","9:20:33","1","4","Test_4","70","f","1","1239","3840 x 2160","3840 x 2160","true","1","10","","","","",""
"null","<p style=""font-size: 80px;"">+ 10 points</p>","null","html-keyboard-response","126","834416","0.0-11.0-2.125","5f61371454efa10bdcfc588d","wxm6a0","AJ","61","M","{""name"":""Firefox"",""firefox"":true,""version"":""105.0"",""gecko"":true,""windows"":true,""osname"":""Windows"",""osversion"":""10"",""a"":true}","9:20:33","1","4","Test_3","74","j","1","747","3840 x 2160","3840 x 2160","true","1","10","","","","",""
"null","<p style=""font-size: 80px;"">+ 10 points</p>","null","html-keyboard-response","127","837286","0.0-11.0-2.126","5f61371454efa10bdcfc588d","wxm6a0","AJ","61","M","{""name"":""Firefox"",""firefox"":true,""version"":""105.0"",""gecko"":true,""windows"":true,""osname"":""Windows"",""osversion"":""10"",""a"":true}","9:20:33","1","4","Test_3","74","j","1","866","3840 x 2160","3840 x 2160","true","1","10","","","","",""
"null","<p style=""font-size: 80px;"">+ 10 points</p>","null","html-keyboard-response","128","840495","0.0-11.0-2.127","5f61371454efa10bdcfc588d","wxm6a0","AJ","61","M","{""name"":""Firefox"",""firefox"":true,""version"":""105.0"",""gecko"":true,""windows"":true,""osname"":""Windows"",""osversion"":""10"",""a"":true}","9:20:33","1","4","Test_1","74","j","1","1204","3840 x 2160","3840 x 2160","true","1","10","","","","",""
"null","<p style=""font-size: 80px;"">+ 10 points</p>","null","html-keyboard-response","129","843623","0.0-11.0-2.128","5f61371454efa10bdcfc588d","wxm6a0","AJ","61","M","{""name"":""Firefox"",""firefox"":true,""version"":""105.0"",""gecko"":true,""windows"":true,""osname"":""Windows"",""osversion"":""10"",""a"":true}","9:20:33","1","4","Test_2","70","f","1","1124","3840 x 2160","3840 x 2160","true","1","10","","","","",""
"null","<p style=""font-size: 80px;"">+ 10 points</p>","null","html-keyboard-response","130","846488","0.0-11.0-2.129","5f61371454efa10bdcfc588d","wxm6a0","AJ","61","M","{""name"":""Firefox"",""firefox"":true,""version"":""105.0"",""gecko"":true,""windows"":true,""osname"":""Windows"",""osversion"":""10"",""a"":true}","9:20:33","1","4","Test_1","74","j","1","860","3840 x 2160","3840 x 2160","true","1","10","","","","",""
"null","<p style=""font-size: 80px;"">+ 10 points</p>","null","html-keyboard-response","131","849937","0.0-11.0-2.130","5f61371454efa10bdcfc588d","wxm6a0","AJ","61","M","{""name"":""Firefox"",""firefox"":true,""version"":""105.0"",""gecko"":true,""windows"":true,""osname"":""Windows"",""osversion"":""10"",""a"":true}","9:20:33","1","4","Test_1","74","j","1","1445","3840 x 2160","3840 x 2160","true","1","10","","","","",""
"null","<p style=""font-size: 80px;"">+ 10 points</p>","null","html-keyboard-response","132","852846","0.0-11.0-2.131","5f61371454efa10bdcfc588d","wxm6a0","AJ","61","M","{""name"":""Firefox"",""firefox"":true,""version"":""105.0"",""gecko"":true,""windows"":true,""osname"":""Windows"",""osversion"":""10"",""a"":true}","9:20:33","1","4","Test_3","74","j","1","906","3840 x 2160","3840 x 2160","true","1","10","","","","",""
"null","<p style=""font-size: 80px;"">+ 0 points</p>","null","html-keyboard-response","133","856087","0.0-11.0-2.132","5f61371454efa10bdcfc588d","wxm6a0","AJ","61","M","{""name"":""Firefox"",""firefox"":true,""version"":""105.0"",""gecko"":true,""windows"":true,""osname"":""Windows"",""osversion"":""10"",""a"":true}","9:20:33","1","3","Test_3","74","f","0","1238","3840 x 2160","3840 x 2160","true","1","0","","","","",""
"null","<p style=""font-size: 80px;"">+ 10 points</p>","null","html-keyboard-response","134","859320","0.0-11.0-2.133","5f61371454efa10bdcfc588d","wxm6a0","AJ","61","M","{""name"":""Firefox"",""firefox"":true,""version"":""105.0"",""gecko"":true,""windows"":true,""osname"":""Windows"",""osversion"":""10"",""a"":true}","9:20:33","1","3","Test_2","74","j","1","1228","3840 x 2160","3840 x 2160","true","1","10","","","","",""
"null","<p style=""font-size: 80px;"">+ 10 points</p>","null","html-keyboard-response","135","862326","0.0-11.0-2.134","5f61371454efa10bdcfc588d","wxm6a0","AJ","61","M","{""name"":""Firefox"",""firefox"":true,""version"":""105.0"",""gecko"":true,""windows"":true,""osname"":""Windows"",""osversion"":""10"",""a"":true}","9:20:33","1","3","Test_2","74","j","1","1004","3840 x 2160","3840 x 2160","true","1","10","","","","",""
"null","<p style=""font-size: 80px;"">+ 10 points</p>","null","html-keyboard-response","136","865367","0.0-11.0-2.135","5f61371454efa10bdcfc588d","wxm6a0","AJ","61","M","{""name"":""Firefox"",""firefox"":true,""version"":""105.0"",""gecko"":true,""windows"":true,""osname"":""Windows"",""osversion"":""10"",""a"":true}","9:20:33","1","3","Test_4","74","j","1","1036","3840 x 2160","3840 x 2160","true","1","10","","","","",""
"null","<p style=""font-size: 80px;"">+ 10 points</p>","null","html-keyboard-response","137","868431","0.0-11.0-2.136","5f61371454efa10bdcfc588d","wxm6a0","AJ","61","M","{""name"":""Firefox"",""firefox"":true,""version"":""105.0"",""gecko"":true,""windows"":true,""osname"":""Windows"",""osversion"":""10"",""a"":true}","9:20:33","1","3","Test_1","70","f","1","1061","3840 x 2160","3840 x 2160","true","1","10","","","","",""
"null","<p style=""font-size: 80px;"">+ 10 points</p>","null","html-keyboard-response","138","871528","0.0-11.0-2.137","5f61371454efa10bdcfc588d","wxm6a0","AJ","61","M","{""name"":""Firefox"",""firefox"":true,""version"":""105.0"",""gecko"":true,""windows"":true,""osname"":""Windows"",""osversion"":""10"",""a"":true}","9:20:33","1","3","Test_1","70","f","1","1091","3840 x 2160","3840 x 2160","true","1","10","","","","",""
"null","<p style=""font-size: 80px;"">+ 10 points</p>","null","html-keyboard-response","139","874646","0.0-11.0-2.138","5f61371454efa10bdcfc588d","wxm6a0","AJ","61","M","{""name"":""Firefox"",""firefox"":true,""version"":""105.0"",""gecko"":true,""windows"":true,""osname"":""Windows"",""osversion"":""10"",""a"":true}","9:20:33","1","3","Test_4","74","j","1","1115","3840 x 2160","3840 x 2160","true","1","10","","","","",""
"null","<p style=""font-size: 80px;"">+ 10 points</p>","null","html-keyboard-response","140","878343","0.0-11.0-2.139","5f61371454efa10bdcfc588d","wxm6a0","AJ","61","M","{""name"":""Firefox"",""firefox"":true,""version"":""105.0"",""gecko"":true,""windows"":true,""osname"":""Windows"",""osversion"":""10"",""a"":true}","9:20:33","1","3","Test_2","74","j","1","1694","3840 x 2160","3840 x 2160","true","1","10","","","","",""
"null","<p style=""font-size: 80px;"">+ 10 points</p>","null","html-keyboard-response","141","881272","0.0-11.0-2.140","5f61371454efa10bdcfc588d","wxm6a0","AJ","61","M","{""name"":""Firefox"",""firefox"":true,""version"":""105.0"",""gecko"":true,""windows"":true,""osname"":""Windows"",""osversion"":""10"",""a"":true}","9:20:33","1","3","Test_1","70","f","1","925","3840 x 2160","3840 x 2160","true","1","10","","","","",""
"null","<p style=""font-size: 80px;"">+ 10 points</p>","null","html-keyboard-response","142","884230","0.0-11.0-2.141","5f61371454efa10bdcfc588d","wxm6a0","AJ","61","M","{""name"":""Firefox"",""firefox"":true,""version"":""105.0"",""gecko"":true,""windows"":true,""osname"":""Windows"",""osversion"":""10"",""a"":true}","9:20:33","1","3","Test_4","74","j","1","955","3840 x 2160","3840 x 2160","true","1","10","","","","",""
"null","<p style=""font-size: 80px;"">+ 10 points</p>","null","html-keyboard-response","143","887169","0.0-11.0-2.142","5f61371454efa10bdcfc588d","wxm6a0","AJ","61","M","{""name"":""Firefox"",""firefox"":true,""version"":""105.0"",""gecko"":true,""windows"":true,""osname"":""Windows"",""osversion"":""10"",""a"":true}","9:20:33","1","3","Test_1","70","f","1","935","3840 x 2160","3840 x 2160","true","1","10","","","","",""
"null","<p style=""font-size: 80px;"">+ 10 points</p>","null","html-keyboard-response","144","890081","0.0-11.0-2.143","5f61371454efa10bdcfc588d","wxm6a0","AJ","61","M","{""name"":""Firefox"",""firefox"":true,""version"":""105.0"",""gecko"":true,""windows"":true,""osname"":""Windows"",""osversion"":""10"",""a"":true}","9:20:33","1","3","Test_2","74","j","1","908","3840 x 2160","3840 x 2160","true","1","10","","","","",""
"null","<p style=""font-size: 80px;"">+ 10 points</p>","null","html-keyboard-response","145","893296","0.0-11.0-2.144","5f61371454efa10bdcfc588d","wxm6a0","AJ","61","M","{""name"":""Firefox"",""firefox"":true,""version"":""105.0"",""gecko"":true,""windows"":true,""osname"":""Windows"",""osversion"":""10"",""a"":true}","9:20:33","1","3","Test_3","70","f","1","1212","3840 x 2160","3840 x 2160","true","1","10","","","","",""
"null","<p style=""font-size: 80px;"">+ 10 points</p>","null","html-keyboard-response","146","896679","0.0-11.0-2.145","5f61371454efa10bdcfc588d","wxm6a0","AJ","61","M","{""name"":""Firefox"",""firefox"":true,""version"":""105.0"",""gecko"":true,""windows"":true,""osname"":""Windows"",""osversion"":""10"",""a"":true}","9:20:33","1","3","Test_3","70","f","1","1380","3840 x 2160","3840 x 2160","true","1","10","","","","",""
"null","<p style=""font-size: 80px;"">+ 10 points</p>","null","html-keyboard-response","147","899518","0.0-11.0-2.146","5f61371454efa10bdcfc588d","wxm6a0","AJ","61","M","{""name"":""Firefox"",""firefox"":true,""version"":""105.0"",""gecko"":true,""windows"":true,""osname"":""Windows"",""osversion"":""10"",""a"":true}","9:20:33","1","3","Test_4","74","j","1","836","3840 x 2160","3840 x 2160","true","1","10","","","","",""
"null","<p style=""font-size: 80px;"">+ 10 points</p>","null","html-keyboard-response","148","903126","0.0-11.0-2.147","5f61371454efa10bdcfc588d","wxm6a0","AJ","61","M","{""name"":""Firefox"",""firefox"":true,""version"":""105.0"",""gecko"":true,""windows"":true,""osname"":""Windows"",""osversion"":""10"",""a"":true}","9:20:33","1","3","Test_3","70","f","1","1605","3840 x 2160","3840 x 2160","true","1","10","","","","",""
"null","<p style=""font-size: 80px;"">+ 10 points</p>","null","html-keyboard-response","149","906400","0.0-11.0-2.148","5f61371454efa10bdcfc588d","wxm6a0","AJ","61","M","{""name"":""Firefox"",""firefox"":true,""version"":""105.0"",""gecko"":true,""windows"":true,""osname"":""Windows"",""osversion"":""10"",""a"":true}","9:20:33","1","3","Test_3","70","f","1","1269","3840 x 2160","3840 x 2160","true","1","10","","","","",""
"null","<p style=""font-size: 80px;"">+ 10 points</p>","null","html-keyboard-response","150","910513","0.0-11.0-2.149","5f61371454efa10bdcfc588d","wxm6a0","AJ","61","M","{""name"":""Firefox"",""firefox"":true,""version"":""105.0"",""gecko"":true,""windows"":true,""osname"":""Windows"",""osversion"":""10"",""a"":true}","9:20:33","1","3","Test_2","74","j","1","2107","3840 x 2160","3840 x 2160","true","1","10","","","","",""
"null","<p style=""font-size: 80px;"">+ 10 points</p>","null","html-keyboard-response","151","914167","0.0-11.0-2.150","5f61371454efa10bdcfc588d","wxm6a0","AJ","61","M","{""name"":""Firefox"",""firefox"":true,""version"":""105.0"",""gecko"":true,""windows"":true,""osname"":""Windows"",""osversion"":""10"",""a"":true}","9:20:33","1","3","Test_4","74","j","1","1650","3840 x 2160","3840 x 2160","true","1","10","","","","",""
