"rt","stimulus","key_press","trial_type","trial_index","time_elapsed","internal_node_id","Prolific_ID","random_ID","initials","age","gender","pc_info","start_time","Phase","Rule","Stimulus","Response","CorrResp","Accuracy","ResponseTime","screen_resolution","window_resolution","focus","relevant","Points","responses","question_order","rev_check","butterfly_check","passed_practice"
"null","<p style=""font-size: 80px;"">+ 10 points</p>","null","html-keyboard-response","1","197883","0.0-7.0-2.0","5e960dc166e110080028b9e8","4r215y","KW","29","F","{""name"":""Chrome"",""chrome"":true,""version"":""105.0"",""blink"":true,""windows"":true,""osname"":""Windows"",""osversion"":""10"",""a"":true}","9:17:23","0","1","Practice_1","70","f","1","901.5","1536 x 864","1536 x 864","true","1","10","","","","",""
"null","<p style=""font-size: 80px;"">+ 10 points</p>","null","html-keyboard-response","2","200719","0.0-7.0-2.1","5e960dc166e110080028b9e8","4r215y","KW","29","F","{""name"":""Chrome"",""chrome"":true,""version"":""105.0"",""blink"":true,""windows"":true,""osname"":""Windows"",""osversion"":""10"",""a"":true}","9:17:23","0","1","Practice_2","74","j","1","826.7999999523163","1536 x 864","1536 x 864","true","1","10","","","","",""
"null","<p style=""font-size: 80px;"">+ 0 points</p>","null","html-keyboard-response","3","204336","0.0-7.0-2.2","5e960dc166e110080028b9e8","4r215y","KW","29","F","{""name"":""Chrome"",""chrome"":true,""version"":""105.0"",""blink"":true,""windows"":true,""osname"":""Windows"",""osversion"":""10"",""a"":true}","9:17:23","0","1","Practice_4","70","j","0","1592.5","1536 x 864","1536 x 864","true","1","0","","","","",""
"null","<p style=""font-size: 80px;"">+ 0 points</p>","null","html-keyboard-response","4","208187","0.0-7.0-2.3","5e960dc166e110080028b9e8","4r215y","KW","29","F","{""name"":""Chrome"",""chrome"":true,""version"":""105.0"",""blink"":true,""windows"":true,""osname"":""Windows"",""osversion"":""10"",""a"":true}","9:17:23","0","1","Practice_2","70","j","0","1842.2999999523163","1536 x 864","1536 x 864","true","1","0","","","","",""
"null","<p style=""font-size: 80px;"">+ 10 points</p>","null","html-keyboard-response","5","211538","0.0-7.0-2.4","5e960dc166e110080028b9e8","4r215y","KW","29","F","{""name"":""Chrome"",""chrome"":true,""version"":""105.0"",""blink"":true,""windows"":true,""osname"":""Windows"",""osversion"":""10"",""a"":true}","9:17:23","0","1","Practice_1","70","f","1","1339.4000000953674","1536 x 864","1536 x 864","true","1","10","","","","",""
"null","<p style=""font-size: 80px;"">+ 10 points</p>","null","html-keyboard-response","6","214489","0.0-7.0-2.5","5e960dc166e110080028b9e8","4r215y","KW","29","F","{""name"":""Chrome"",""chrome"":true,""version"":""105.0"",""blink"":true,""windows"":true,""osname"":""Windows"",""osversion"":""10"",""a"":true}","9:17:23","0","1","Practice_1","70","f","1","924.8999998569489","1536 x 864","1536 x 864","true","1","10","","","","",""
"null","<p style=""font-size: 80px;"">+ 10 points</p>","null","html-keyboard-response","7","217541","0.0-7.0-2.6","5e960dc166e110080028b9e8","4r215y","KW","29","F","{""name"":""Chrome"",""chrome"":true,""version"":""105.0"",""blink"":true,""windows"":true,""osname"":""Windows"",""osversion"":""10"",""a"":true}","9:17:23","0","1","Practice_4","74","j","1","1037.8000001907349","1536 x 864","1536 x 864","true","1","10","","","","",""
"null","<p style=""font-size: 80px;"">+ 10 points</p>","null","html-keyboard-response","8","221441","0.0-7.0-2.7","5e960dc166e110080028b9e8","4r215y","KW","29","F","{""name"":""Chrome"",""chrome"":true,""version"":""105.0"",""blink"":true,""windows"":true,""osname"":""Windows"",""osversion"":""10"",""a"":true}","9:17:23","0","1","Practice_2","74","j","1","1875.5","1536 x 864","1536 x 864","true","1","10","","","","",""
"null","<p style=""font-size: 80px;"">+ 10 points</p>","null","html-keyboard-response","9","224709","0.0-7.0-2.8","5e960dc166e110080028b9e8","4r215y","KW","29","F","{""name"":""Chrome"",""chrome"":true,""version"":""105.0"",""blink"":true,""windows"":true,""osname"":""Windows"",""osversion"":""10"",""a"":true}","9:17:23","0","1","Practice_2","74","j","1","1258.5","1536 x 864","1536 x 864","true","1","10","","","","",""
"null","<p style=""font-size: 80px;"">+ 10 points</p>","null","html-keyboard-response","10","227760","0.0-7.0-2.9","5e960dc166e110080028b9e8","4r215y","KW","29","F","{""name"":""Chrome"",""chrome"":true,""version"":""105.0"",""blink"":true,""windows"":true,""osname"":""Windows"",""osversion"":""10"",""a"":true}","9:17:23","0","1","Practice_4","74","j","1","1041.1000001430511","1536 x 864","1536 x 864","true","1","10","","","","",""
"null","<p style=""font-size: 80px;"">+ 10 points</p>","null","html-keyboard-response","11","230697","0.0-7.0-2.10","5e960dc166e110080028b9e8","4r215y","KW","29","F","{""name"":""Chrome"",""chrome"":true,""version"":""105.0"",""blink"":true,""windows"":true,""osname"":""Windows"",""osversion"":""10"",""a"":true}","9:17:23","0","1","Practice_3","70","f","1","922.7999999523163","1536 x 864","1536 x 864","true","1","10","","","","",""
"null","<p style=""font-size: 80px;"">+ 10 points</p>","null","html-keyboard-response","12","234182","0.0-7.0-2.11","5e960dc166e110080028b9e8","4r215y","KW","29","F","{""name"":""Chrome"",""chrome"":true,""version"":""105.0"",""blink"":true,""windows"":true,""osname"":""Windows"",""osversion"":""10"",""a"":true}","9:17:23","0","1","Practice_2","74","j","1","1464.2999999523163","1536 x 864","1536 x 864","true","1","10","","","","",""
"null","<p style=""font-size: 80px;"">+ 10 points</p>","null","html-keyboard-response","13","237082","0.0-7.0-2.12","5e960dc166e110080028b9e8","4r215y","KW","29","F","{""name"":""Chrome"",""chrome"":true,""version"":""105.0"",""blink"":true,""windows"":true,""osname"":""Windows"",""osversion"":""10"",""a"":true}","9:17:23","0","1","Practice_4","74","j","1","881.2000000476837","1536 x 864","1536 x 864","true","1","10","","","","",""
"null","<p style=""font-size: 80px;"">+ 10 points</p>","null","html-keyboard-response","14","240081","0.0-7.0-2.13","5e960dc166e110080028b9e8","4r215y","KW","29","F","{""name"":""Chrome"",""chrome"":true,""version"":""105.0"",""blink"":true,""windows"":true,""osname"":""Windows"",""osversion"":""10"",""a"":true}","9:17:23","0","1","Practice_1","70","f","1","991.2999999523163","1536 x 864","1536 x 864","true","1","10","","","","",""
"null","<p style=""font-size: 80px;"">+ 10 points</p>","null","html-keyboard-response","15","242952","0.0-7.0-2.14","5e960dc166e110080028b9e8","4r215y","KW","29","F","{""name"":""Chrome"",""chrome"":true,""version"":""105.0"",""blink"":true,""windows"":true,""osname"":""Windows"",""osversion"":""10"",""a"":true}","9:17:23","0","1","Practice_3","70","f","1","860.8999998569489","1536 x 864","1536 x 864","true","1","10","","","","",""
"null","<p style=""font-size: 80px;"">+ 10 points</p>","null","html-keyboard-response","16","246184","0.0-7.0-2.15","5e960dc166e110080028b9e8","4r215y","KW","29","F","{""name"":""Chrome"",""chrome"":true,""version"":""105.0"",""blink"":true,""windows"":true,""osname"":""Windows"",""osversion"":""10"",""a"":true}","9:17:23","0","1","Practice_3","70","f","1","1211.3999998569489","1536 x 864","1536 x 864","true","1","10","","","","",""
"null","<p style=""font-size: 80px;"">+ 10 points</p>","null","html-keyboard-response","17","249085","0.0-7.0-2.16","5e960dc166e110080028b9e8","4r215y","KW","29","F","{""name"":""Chrome"",""chrome"":true,""version"":""105.0"",""blink"":true,""windows"":true,""osname"":""Windows"",""osversion"":""10"",""a"":true}","9:17:23","0","1","Practice_1","70","f","1","890.1999998092651","1536 x 864","1536 x 864","true","1","10","","","","",""
"null","<p style=""font-size: 80px;"">+ 10 points</p>","null","html-keyboard-response","18","251888","0.0-7.0-2.17","5e960dc166e110080028b9e8","4r215y","KW","29","F","{""name"":""Chrome"",""chrome"":true,""version"":""105.0"",""blink"":true,""windows"":true,""osname"":""Windows"",""osversion"":""10"",""a"":true}","9:17:23","0","1","Practice_3","70","f","1","794.2999999523163","1536 x 864","1536 x 864","true","1","10","","","","",""
"null","<p style=""font-size: 80px;"">+ 10 points</p>","null","html-keyboard-response","19","255042","0.0-7.0-2.18","5e960dc166e110080028b9e8","4r215y","KW","29","F","{""name"":""Chrome"",""chrome"":true,""version"":""105.0"",""blink"":true,""windows"":true,""osname"":""Windows"",""osversion"":""10"",""a"":true}","9:17:23","0","1","Practice_3","70","f","1","1134.0999999046326","1536 x 864","1536 x 864","true","1","10","","","","",""
"null","<p style=""font-size: 80px;"">+ 10 points</p>","null","html-keyboard-response","20","258257","0.0-7.0-2.19","5e960dc166e110080028b9e8","4r215y","KW","29","F","{""name"":""Chrome"",""chrome"":true,""version"":""105.0"",""blink"":true,""windows"":true,""osname"":""Windows"",""osversion"":""10"",""a"":true}","9:17:23","0","1","Practice_4","74","j","1","1188.1000001430511","1536 x 864","1536 x 864","true","1","10","","","","",""
"null","<p style=""font-size: 80px;"">+ 0 points</p>","null","html-keyboard-response","21","261308","0.0-7.0-2.20","5e960dc166e110080028b9e8","4r215y","KW","29","F","{""name"":""Chrome"",""chrome"":true,""version"":""105.0"",""blink"":true,""windows"":true,""osname"":""Windows"",""osversion"":""10"",""a"":true}","9:17:23","0","2","Practice_1","70","j","0","1020.0999999046326","1536 x 864","1536 x 864","true","1","0","","","","",""
"null","<p style=""font-size: 80px;"">+ 10 points</p>","null","html-keyboard-response","22","264225","0.0-7.0-2.21","5e960dc166e110080028b9e8","4r215y","KW","29","F","{""name"":""Chrome"",""chrome"":true,""version"":""105.0"",""blink"":true,""windows"":true,""osname"":""Windows"",""osversion"":""10"",""a"":true}","9:17:23","0","2","Practice_1","74","j","1","893.6000001430511","1536 x 864","1536 x 864","true","1","10","","","","",""
"null","<p style=""font-size: 80px;"">+ 10 points</p>","null","html-keyboard-response","23","267744","0.0-7.0-2.22","5e960dc166e110080028b9e8","4r215y","KW","29","F","{""name"":""Chrome"",""chrome"":true,""version"":""105.0"",""blink"":true,""windows"":true,""osname"":""Windows"",""osversion"":""10"",""a"":true}","9:17:23","0","2","Practice_3","74","j","1","1503.7999999523163","1536 x 864","1536 x 864","true","1","10","","","","",""
"null","<p style=""font-size: 80px;"">+ 10 points</p>","null","html-keyboard-response","24","270861","0.0-7.0-2.23","5e960dc166e110080028b9e8","4r215y","KW","29","F","{""name"":""Chrome"",""chrome"":true,""version"":""105.0"",""blink"":true,""windows"":true,""osname"":""Windows"",""osversion"":""10"",""a"":true}","9:17:23","0","2","Practice_3","74","j","1","1086.5","1536 x 864","1536 x 864","true","1","10","","","","",""
"null","<p style=""font-size: 80px;"">+ 10 points</p>","null","html-keyboard-response","25","273963","0.0-7.0-2.24","5e960dc166e110080028b9e8","4r215y","KW","29","F","{""name"":""Chrome"",""chrome"":true,""version"":""105.0"",""blink"":true,""windows"":true,""osname"":""Windows"",""osversion"":""10"",""a"":true}","9:17:23","0","2","Practice_4","70","f","1","1092.5999999046326","1536 x 864","1536 x 864","true","1","10","","","","",""
"null","<p style=""font-size: 80px;"">+ 10 points</p>","null","html-keyboard-response","26","277298","0.0-7.0-2.25","5e960dc166e110080028b9e8","4r215y","KW","29","F","{""name"":""Chrome"",""chrome"":true,""version"":""105.0"",""blink"":true,""windows"":true,""osname"":""Windows"",""osversion"":""10"",""a"":true}","9:17:23","0","2","Practice_2","70","f","1","1316.8999998569489","1536 x 864","1536 x 864","true","1","10","","","","",""
"null","<p style=""font-size: 80px;"">+ 10 points</p>","null","html-keyboard-response","27","280181","0.0-7.0-2.26","5e960dc166e110080028b9e8","4r215y","KW","29","F","{""name"":""Chrome"",""chrome"":true,""version"":""105.0"",""blink"":true,""windows"":true,""osname"":""Windows"",""osversion"":""10"",""a"":true}","9:17:23","0","2","Practice_3","74","j","1","859.5","1536 x 864","1536 x 864","true","1","10","","","","",""
"null","<p style=""font-size: 80px;"">+ 10 points</p>","null","html-keyboard-response","28","282965","0.0-7.0-2.27","5e960dc166e110080028b9e8","4r215y","KW","29","F","{""name"":""Chrome"",""chrome"":true,""version"":""105.0"",""blink"":true,""windows"":true,""osname"":""Windows"",""osversion"":""10"",""a"":true}","9:17:23","0","2","Practice_2","70","f","1","772.6000001430511","1536 x 864","1536 x 864","true","1","10","","","","",""
"null","<p style=""font-size: 80px;"">+ 10 points</p>","null","html-keyboard-response","29","285818","0.0-7.0-2.28","5e960dc166e110080028b9e8","4r215y","KW","29","F","{""name"":""Chrome"",""chrome"":true,""version"":""105.0"",""blink"":true,""windows"":true,""osname"":""Windows"",""osversion"":""10"",""a"":true}","9:17:23","0","2","Practice_2","70","f","1","844.7000000476837","1536 x 864","1536 x 864","true","1","10","","","","",""
"null","<p style=""font-size: 80px;"">+ 10 points</p>","null","html-keyboard-response","30","288751","0.0-7.0-2.29","5e960dc166e110080028b9e8","4r215y","KW","29","F","{""name"":""Chrome"",""chrome"":true,""version"":""105.0"",""blink"":true,""windows"":true,""osname"":""Windows"",""osversion"":""10"",""a"":true}","9:17:23","0","2","Practice_3","74","j","1","903.7000000476837","1536 x 864","1536 x 864","true","1","10","","","","",""
"null","<p style=""font-size: 80px;"">+ 10 points</p>","null","html-keyboard-response","31","291502","0.0-7.0-2.30","5e960dc166e110080028b9e8","4r215y","KW","29","F","{""name"":""Chrome"",""chrome"":true,""version"":""105.0"",""blink"":true,""windows"":true,""osname"":""Windows"",""osversion"":""10"",""a"":true}","9:17:23","0","2","Practice_4","70","f","1","734.3999998569489","1536 x 864","1536 x 864","true","1","10","","","","",""
"null","<p style=""font-size: 80px;"">+ 10 points</p>","null","html-keyboard-response","32","293971","0.0-7.0-2.31","5e960dc166e110080028b9e8","4r215y","KW","29","F","{""name"":""Chrome"",""chrome"":true,""version"":""105.0"",""blink"":true,""windows"":true,""osname"":""Windows"",""osversion"":""10"",""a"":true}","9:17:23","0","2","Practice_4","70","f","1","460.90000009536743","1536 x 864","1536 x 864","true","1","10","","","","",""
"null","<p style=""font-size: 80px;"">+ 10 points</p>","null","html-keyboard-response","33","296706","0.0-7.0-2.32","5e960dc166e110080028b9e8","4r215y","KW","29","F","{""name"":""Chrome"",""chrome"":true,""version"":""105.0"",""blink"":true,""windows"":true,""osname"":""Windows"",""osversion"":""10"",""a"":true}","9:17:23","0","2","Practice_4","70","f","1","727.0999999046326","1536 x 864","1536 x 864","true","1","10","","","","",""
"null","<p style=""font-size: 80px;"">+ 10 points</p>","null","html-keyboard-response","34","299907","0.0-7.0-2.33","5e960dc166e110080028b9e8","4r215y","KW","29","F","{""name"":""Chrome"",""chrome"":true,""version"":""105.0"",""blink"":true,""windows"":true,""osname"":""Windows"",""osversion"":""10"",""a"":true}","9:17:23","0","2","Practice_2","70","f","1","1178.9000000953674","1536 x 864","1536 x 864","true","1","10","","","","",""
"null","<p style=""font-size: 80px;"">+ 10 points</p>","null","html-keyboard-response","35","303089","0.0-7.0-2.34","5e960dc166e110080028b9e8","4r215y","KW","29","F","{""name"":""Chrome"",""chrome"":true,""version"":""105.0"",""blink"":true,""windows"":true,""osname"":""Windows"",""osversion"":""10"",""a"":true}","9:17:23","0","2","Practice_2","70","f","1","1148.7000000476837","1536 x 864","1536 x 864","true","1","10","","","","",""
"null","<p style=""font-size: 80px;"">+ 10 points</p>","null","html-keyboard-response","36","306424","0.0-7.0-2.35","5e960dc166e110080028b9e8","4r215y","KW","29","F","{""name"":""Chrome"",""chrome"":true,""version"":""105.0"",""blink"":true,""windows"":true,""osname"":""Windows"",""osversion"":""10"",""a"":true}","9:17:23","0","2","Practice_3","74","j","1","1313.5","1536 x 864","1536 x 864","true","1","10","","","","",""
"null","<p style=""font-size: 80px;"">+ 10 points</p>","null","html-keyboard-response","37","309092","0.0-7.0-2.36","5e960dc166e110080028b9e8","4r215y","KW","29","F","{""name"":""Chrome"",""chrome"":true,""version"":""105.0"",""blink"":true,""windows"":true,""osname"":""Windows"",""osversion"":""10"",""a"":true}","9:17:23","0","2","Practice_4","70","f","1","656.0999999046326","1536 x 864","1536 x 864","true","1","10","","","","",""
"null","<p style=""font-size: 80px;"">+ 10 points</p>","null","html-keyboard-response","38","312344","0.0-7.0-2.37","5e960dc166e110080028b9e8","4r215y","KW","29","F","{""name"":""Chrome"",""chrome"":true,""version"":""105.0"",""blink"":true,""windows"":true,""osname"":""Windows"",""osversion"":""10"",""a"":true}","9:17:23","0","2","Practice_1","74","j","1","1246.0999999046326","1536 x 864","1536 x 864","true","1","10","","","","",""
"null","<p style=""font-size: 80px;"">+ 10 points</p>","null","html-keyboard-response","39","315611","0.0-7.0-2.38","5e960dc166e110080028b9e8","4r215y","KW","29","F","{""name"":""Chrome"",""chrome"":true,""version"":""105.0"",""blink"":true,""windows"":true,""osname"":""Windows"",""osversion"":""10"",""a"":true}","9:17:23","0","2","Practice_1","74","j","1","1238.4000000953674","1536 x 864","1536 x 864","true","1","10","","","","",""
"null","<p style=""font-size: 80px;"">+ 10 points</p>","null","html-keyboard-response","40","318330","0.0-7.0-2.39","5e960dc166e110080028b9e8","4r215y","KW","29","F","{""name"":""Chrome"",""chrome"":true,""version"":""105.0"",""blink"":true,""windows"":true,""osname"":""Windows"",""osversion"":""10"",""a"":true}","9:17:23","0","2","Practice_1","74","j","1","713.6999998092651","1536 x 864","1536 x 864","true","1","10","","","","",""
"17716.60000014305","","","survey-multi-choice","127","336049","0.0-8.0","5e960dc166e110080028b9e8","4r215y","KW","29","F","{""name"":""Chrome"",""chrome"":true,""version"":""105.0"",""blink"":true,""windows"":true,""osname"":""Windows"",""osversion"":""10"",""a"":true}","9:17:23","","","","","","","","","","","1","","{""Q0"":""The red one"",""Q1"":""1""}","[0,1]","1","The red one","2"
"null","<p style=""font-size: 80px;"">+ 10 points</p>","null","html-keyboard-response","1","358128","0.0-11.0-2.0","5e960dc166e110080028b9e8","4r215y","KW","29","F","{""name"":""Chrome"",""chrome"":true,""version"":""105.0"",""blink"":true,""windows"":true,""osname"":""Windows"",""osversion"":""10"",""a"":true}","9:17:23","1","3","Test_3","70","f","1","932.9000000953674","1536 x 864","1536 x 864","true","1","10","","","","",""
"null","<p style=""font-size: 80px;"">+ 0 points</p>","null","html-keyboard-response","2","361413","0.0-11.0-2.1","5e960dc166e110080028b9e8","4r215y","KW","29","F","{""name"":""Chrome"",""chrome"":true,""version"":""105.0"",""blink"":true,""windows"":true,""osname"":""Windows"",""osversion"":""10"",""a"":true}","9:17:23","1","3","Test_1","74","f","0","1247.2000000476837","1536 x 864","1536 x 864","true","1","0","","","","",""
"null","<p style=""font-size: 80px;"">+ 10 points</p>","null","html-keyboard-response","3","364564","0.0-11.0-2.2","5e960dc166e110080028b9e8","4r215y","KW","29","F","{""name"":""Chrome"",""chrome"":true,""version"":""105.0"",""blink"":true,""windows"":true,""osname"":""Windows"",""osversion"":""10"",""a"":true}","9:17:23","1","3","Test_1","70","f","1","1120.1999998092651","1536 x 864","1536 x 864","true","1","10","","","","",""
"null","<p style=""font-size: 80px;"">+ 10 points</p>","null","html-keyboard-response","4","367183","0.0-11.0-2.3","5e960dc166e110080028b9e8","4r215y","KW","29","F","{""name"":""Chrome"",""chrome"":true,""version"":""105.0"",""blink"":true,""windows"":true,""osname"":""Windows"",""osversion"":""10"",""a"":true}","9:17:23","1","3","Test_3","70","f","1","602.7000000476837","1536 x 864","1536 x 864","true","1","10","","","","",""
"null","<p style=""font-size: 80px;"">+ 10 points</p>","null","html-keyboard-response","5","370117","0.0-11.0-2.4","5e960dc166e110080028b9e8","4r215y","KW","29","F","{""name"":""Chrome"",""chrome"":true,""version"":""105.0"",""blink"":true,""windows"":true,""osname"":""Windows"",""osversion"":""10"",""a"":true}","9:17:23","1","3","Test_4","74","j","1","911","1536 x 864","1536 x 864","true","1","10","","","","",""
"null","<p style=""font-size: 80px;"">+ 10 points</p>","null","html-keyboard-response","6","373218","0.0-11.0-2.5","5e960dc166e110080028b9e8","4r215y","KW","29","F","{""name"":""Chrome"",""chrome"":true,""version"":""105.0"",""blink"":true,""windows"":true,""osname"":""Windows"",""osversion"":""10"",""a"":true}","9:17:23","1","3","Test_4","74","j","1","1080.3999998569489","1536 x 864","1536 x 864","true","1","10","","","","",""
"null","<p style=""font-size: 80px;"">+ 10 points</p>","null","html-keyboard-response","7","375917","0.0-11.0-2.6","5e960dc166e110080028b9e8","4r215y","KW","29","F","{""name"":""Chrome"",""chrome"":true,""version"":""105.0"",""blink"":true,""windows"":true,""osname"":""Windows"",""osversion"":""10"",""a"":true}","9:17:23","1","3","Test_4","74","j","1","666.5","1536 x 864","1536 x 864","true","1","10","","","","",""
"null","<p style=""font-size: 80px;"">+ 10 points</p>","null","html-keyboard-response","8","378802","0.0-11.0-2.7","5e960dc166e110080028b9e8","4r215y","KW","29","F","{""name"":""Chrome"",""chrome"":true,""version"":""105.0"",""blink"":true,""windows"":true,""osname"":""Windows"",""osversion"":""10"",""a"":true}","9:17:23","1","3","Test_4","74","j","1","866.0999999046326","1536 x 864","1536 x 864","true","1","10","","","","",""
"null","<p style=""font-size: 80px;"">+ 10 points</p>","null","html-keyboard-response","9","381704","0.0-11.0-2.8","5e960dc166e110080028b9e8","4r215y","KW","29","F","{""name"":""Chrome"",""chrome"":true,""version"":""105.0"",""blink"":true,""windows"":true,""osname"":""Windows"",""osversion"":""10"",""a"":true}","9:17:23","1","3","Test_3","70","f","1","889.7000000476837","1536 x 864","1536 x 864","true","1","10","","","","",""
"null","<p style=""font-size: 80px;"">+ 10 points</p>","null","html-keyboard-response","10","384789","0.0-11.0-2.9","5e960dc166e110080028b9e8","4r215y","KW","29","F","{""name"":""Chrome"",""chrome"":true,""version"":""105.0"",""blink"":true,""windows"":true,""osname"":""Windows"",""osversion"":""10"",""a"":true}","9:17:23","1","3","Test_1","70","f","1","1063.2999999523163","1536 x 864","1536 x 864","true","1","10","","","","",""
"null","<p style=""font-size: 80px;"">+ 10 points</p>","null","html-keyboard-response","11","387725","0.0-11.0-2.10","5e960dc166e110080028b9e8","4r215y","KW","29","F","{""name"":""Chrome"",""chrome"":true,""version"":""105.0"",""blink"":true,""windows"":true,""osname"":""Windows"",""osversion"":""10"",""a"":true}","9:17:23","1","3","Test_2","74","j","1","930.5","1536 x 864","1536 x 864","true","1","10","","","","",""
"null","<p style=""font-size: 80px;"">+ 10 points</p>","null","html-keyboard-response","12","390598","0.0-11.0-2.11","5e960dc166e110080028b9e8","4r215y","KW","29","F","{""name"":""Chrome"",""chrome"":true,""version"":""105.0"",""blink"":true,""windows"":true,""osname"":""Windows"",""osversion"":""10"",""a"":true}","9:17:23","1","3","Test_2","74","j","1","854.4000000953674","1536 x 864","1536 x 864","true","1","10","","","","",""
"null","<p style=""font-size: 80px;"">+ 10 points</p>","null","html-keyboard-response","13","393423","0.0-11.0-2.12","5e960dc166e110080028b9e8","4r215y","KW","29","F","{""name"":""Chrome"",""chrome"":true,""version"":""105.0"",""blink"":true,""windows"":true,""osname"":""Windows"",""osversion"":""10"",""a"":true}","9:17:23","1","3","Test_2","74","j","1","810","1536 x 864","1536 x 864","true","1","10","","","","",""
"null","<p style=""font-size: 80px;"">+ 10 points</p>","null","html-keyboard-response","14","396159","0.0-11.0-2.13","5e960dc166e110080028b9e8","4r215y","KW","29","F","{""name"":""Chrome"",""chrome"":true,""version"":""105.0"",""blink"":true,""windows"":true,""osname"":""Windows"",""osversion"":""10"",""a"":true}","9:17:23","1","3","Test_1","70","f","1","722.9000000953674","1536 x 864","1536 x 864","true","1","10","","","","",""
"null","<p style=""font-size: 80px;"">+ 10 points</p>","null","html-keyboard-response","15","399078","0.0-11.0-2.14","5e960dc166e110080028b9e8","4r215y","KW","29","F","{""name"":""Chrome"",""chrome"":true,""version"":""105.0"",""blink"":true,""windows"":true,""osname"":""Windows"",""osversion"":""10"",""a"":true}","9:17:23","1","3","Test_2","74","j","1","915.2999999523163","1536 x 864","1536 x 864","true","1","10","","","","",""
"null","<p style=""font-size: 80px;"">+ 10 points</p>","null","html-keyboard-response","16","401993","0.0-11.0-2.15","5e960dc166e110080028b9e8","4r215y","KW","29","F","{""name"":""Chrome"",""chrome"":true,""version"":""105.0"",""blink"":true,""windows"":true,""osname"":""Windows"",""osversion"":""10"",""a"":true}","9:17:23","1","3","Test_3","70","f","1","891.4000000953674","1536 x 864","1536 x 864","true","1","10","","","","",""
"null","<p style=""font-size: 80px;"">+ 0 points</p>","null","html-keyboard-response","17","404878","0.0-11.0-2.16","5e960dc166e110080028b9e8","4r215y","KW","29","F","{""name"":""Chrome"",""chrome"":true,""version"":""105.0"",""blink"":true,""windows"":true,""osname"":""Windows"",""osversion"":""10"",""a"":true}","9:17:23","1","4","Test_3","70","j","0","876.2000000476837","1536 x 864","1536 x 864","true","1","0","","","","",""
"null","<p style=""font-size: 80px;"">+ 10 points</p>","null","html-keyboard-response","18","408916","0.0-11.0-2.17","5e960dc166e110080028b9e8","4r215y","KW","29","F","{""name"":""Chrome"",""chrome"":true,""version"":""105.0"",""blink"":true,""windows"":true,""osname"":""Windows"",""osversion"":""10"",""a"":true}","9:17:23","1","4","Test_1","74","j","1","2028.3999998569489","1536 x 864","1536 x 864","true","1","10","","","","",""
"null","<p style=""font-size: 80px;"">+ 10 points</p>","null","html-keyboard-response","19","411848","0.0-11.0-2.18","5e960dc166e110080028b9e8","4r215y","KW","29","F","{""name"":""Chrome"",""chrome"":true,""version"":""105.0"",""blink"":true,""windows"":true,""osname"":""Windows"",""osversion"":""10"",""a"":true}","9:17:23","1","4","Test_1","74","j","1","904.7999999523163","1536 x 864","1536 x 864","true","1","10","","","","",""
"null","<p style=""font-size: 80px;"">+ 10 points</p>","null","html-keyboard-response","20","414917","0.0-11.0-2.19","5e960dc166e110080028b9e8","4r215y","KW","29","F","{""name"":""Chrome"",""chrome"":true,""version"":""105.0"",""blink"":true,""windows"":true,""osname"":""Windows"",""osversion"":""10"",""a"":true}","9:17:23","1","4","Test_3","74","j","1","1062","1536 x 864","1536 x 864","true","1","10","","","","",""
"null","<p style=""font-size: 80px;"">+ 10 points</p>","null","html-keyboard-response","21","418618","0.0-11.0-2.20","5e960dc166e110080028b9e8","4r215y","KW","29","F","{""name"":""Chrome"",""chrome"":true,""version"":""105.0"",""blink"":true,""windows"":true,""osname"":""Windows"",""osversion"":""10"",""a"":true}","9:17:23","1","4","Test_2","70","f","1","1672","1536 x 864","1536 x 864","true","1","10","","","","",""
"null","<p style=""font-size: 80px;"">+ 10 points</p>","null","html-keyboard-response","22","421218","0.0-11.0-2.21","5e960dc166e110080028b9e8","4r215y","KW","29","F","{""name"":""Chrome"",""chrome"":true,""version"":""105.0"",""blink"":true,""windows"":true,""osname"":""Windows"",""osversion"":""10"",""a"":true}","9:17:23","1","4","Test_2","70","f","1","570.7999999523163","1536 x 864","1536 x 864","true","1","10","","","","",""
"null","<p style=""font-size: 80px;"">+ 10 points</p>","null","html-keyboard-response","23","423771","0.0-11.0-2.22","5e960dc166e110080028b9e8","4r215y","KW","29","F","{""name"":""Chrome"",""chrome"":true,""version"":""105.0"",""blink"":true,""windows"":true,""osname"":""Windows"",""osversion"":""10"",""a"":true}","9:17:23","1","4","Test_2","70","f","1","546.2999999523163","1536 x 864","1536 x 864","true","1","10","","","","",""
"null","<p style=""font-size: 80px;"">+ 10 points</p>","null","html-keyboard-response","24","426438","0.0-11.0-2.23","5e960dc166e110080028b9e8","4r215y","KW","29","F","{""name"":""Chrome"",""chrome"":true,""version"":""105.0"",""blink"":true,""windows"":true,""osname"":""Windows"",""osversion"":""10"",""a"":true}","9:17:23","1","4","Test_1","74","j","1","654.5999999046326","1536 x 864","1536 x 864","true","1","10","","","","",""
"null","<p style=""font-size: 80px;"">+ 10 points</p>","null","html-keyboard-response","25","429771","0.0-11.0-2.24","5e960dc166e110080028b9e8","4r215y","KW","29","F","{""name"":""Chrome"",""chrome"":true,""version"":""105.0"",""blink"":true,""windows"":true,""osname"":""Windows"",""osversion"":""10"",""a"":true}","9:17:23","1","4","Test_3","74","j","1","1310.4000000953674","1536 x 864","1536 x 864","true","1","10","","","","",""
"null","<p style=""font-size: 80px;"">+ 10 points</p>","null","html-keyboard-response","26","432507","0.0-11.0-2.25","5e960dc166e110080028b9e8","4r215y","KW","29","F","{""name"":""Chrome"",""chrome"":true,""version"":""105.0"",""blink"":true,""windows"":true,""osname"":""Windows"",""osversion"":""10"",""a"":true}","9:17:23","1","4","Test_4","70","f","1","728.7999999523163","1536 x 864","1536 x 864","true","1","10","","","","",""
"null","<p style=""font-size: 80px;"">+ 10 points</p>","null","html-keyboard-response","27","435307","0.0-11.0-2.26","5e960dc166e110080028b9e8","4r215y","KW","29","F","{""name"":""Chrome"",""chrome"":true,""version"":""105.0"",""blink"":true,""windows"":true,""osname"":""Windows"",""osversion"":""10"",""a"":true}","9:17:23","1","4","Test_4","70","f","1","775.2999999523163","1536 x 864","1536 x 864","true","1","10","","","","",""
"null","<p style=""font-size: 80px;"">+ 10 points</p>","null","html-keyboard-response","28","437859","0.0-11.0-2.27","5e960dc166e110080028b9e8","4r215y","KW","29","F","{""name"":""Chrome"",""chrome"":true,""version"":""105.0"",""blink"":true,""windows"":true,""osname"":""Windows"",""osversion"":""10"",""a"":true}","9:17:23","1","4","Test_4","70","f","1","518.5999999046326","1536 x 864","1536 x 864","true","1","10","","","","",""
"null","<p style=""font-size: 80px;"">+ 10 points</p>","null","html-keyboard-response","29","440876","0.0-11.0-2.28","5e960dc166e110080028b9e8","4r215y","KW","29","F","{""name"":""Chrome"",""chrome"":true,""version"":""105.0"",""blink"":true,""windows"":true,""osname"":""Windows"",""osversion"":""10"",""a"":true}","9:17:23","1","4","Test_3","74","j","1","988.5","1536 x 864","1536 x 864","true","1","10","","","","",""
"null","<p style=""font-size: 80px;"">+ 10 points</p>","null","html-keyboard-response","30","443561","0.0-11.0-2.29","5e960dc166e110080028b9e8","4r215y","KW","29","F","{""name"":""Chrome"",""chrome"":true,""version"":""105.0"",""blink"":true,""windows"":true,""osname"":""Windows"",""osversion"":""10"",""a"":true}","9:17:23","1","4","Test_4","70","f","1","658.3000001907349","1536 x 864","1536 x 864","true","1","10","","","","",""
"null","<p style=""font-size: 80px;"">+ 10 points</p>","null","html-keyboard-response","31","446396","0.0-11.0-2.30","5e960dc166e110080028b9e8","4r215y","KW","29","F","{""name"":""Chrome"",""chrome"":true,""version"":""105.0"",""blink"":true,""windows"":true,""osname"":""Windows"",""osversion"":""10"",""a"":true}","9:17:23","1","4","Test_1","74","j","1","831.1000001430511","1536 x 864","1536 x 864","true","1","10","","","","",""
"null","<p style=""font-size: 80px;"">+ 10 points</p>","null","html-keyboard-response","32","449063","0.0-11.0-2.31","5e960dc166e110080028b9e8","4r215y","KW","29","F","{""name"":""Chrome"",""chrome"":true,""version"":""105.0"",""blink"":true,""windows"":true,""osname"":""Windows"",""osversion"":""10"",""a"":true}","9:17:23","1","4","Test_1","74","j","1","644.4000000953674","1536 x 864","1536 x 864","true","1","10","","","","",""
"null","<p style=""font-size: 80px;"">+ 10 points</p>","null","html-keyboard-response","33","451847","0.0-11.0-2.32","5e960dc166e110080028b9e8","4r215y","KW","29","F","{""name"":""Chrome"",""chrome"":true,""version"":""105.0"",""blink"":true,""windows"":true,""osname"":""Windows"",""osversion"":""10"",""a"":true}","9:17:23","1","4","Test_2","70","f","1","751.6000001430511","1536 x 864","1536 x 864","true","1","10","","","","",""
"null","<p style=""font-size: 80px;"">+ 10 points</p>","null","html-keyboard-response","34","454699","0.0-11.0-2.33","5e960dc166e110080028b9e8","4r215y","KW","29","F","{""name"":""Chrome"",""chrome"":true,""version"":""105.0"",""blink"":true,""windows"":true,""osname"":""Windows"",""osversion"":""10"",""a"":true}","9:17:23","1","4","Test_2","70","f","1","839.2000000476837","1536 x 864","1536 x 864","true","1","10","","","","",""
"null","<p style=""font-size: 80px;"">+ 10 points</p>","null","html-keyboard-response","35","457599","0.0-11.0-2.34","5e960dc166e110080028b9e8","4r215y","KW","29","F","{""name"":""Chrome"",""chrome"":true,""version"":""105.0"",""blink"":true,""windows"":true,""osname"":""Windows"",""osversion"":""10"",""a"":true}","9:17:23","1","4","Test_3","74","j","1","886.7000000476837","1536 x 864","1536 x 864","true","1","10","","","","",""
"null","<p style=""font-size: 80px;"">+ 10 points</p>","null","html-keyboard-response","36","460316","0.0-11.0-2.35","5e960dc166e110080028b9e8","4r215y","KW","29","F","{""name"":""Chrome"",""chrome"":true,""version"":""105.0"",""blink"":true,""windows"":true,""osname"":""Windows"",""osversion"":""10"",""a"":true}","9:17:23","1","4","Test_2","70","f","1","692","1536 x 864","1536 x 864","true","1","10","","","","",""
"null","<p style=""font-size: 80px;"">+ 10 points</p>","null","html-keyboard-response","37","462953","0.0-11.0-2.36","5e960dc166e110080028b9e8","4r215y","KW","29","F","{""name"":""Chrome"",""chrome"":true,""version"":""105.0"",""blink"":true,""windows"":true,""osname"":""Windows"",""osversion"":""10"",""a"":true}","9:17:23","1","4","Test_1","74","j","1","631.5","1536 x 864","1536 x 864","true","1","10","","","","",""
"null","<p style=""font-size: 80px;"">+ 10 points</p>","null","html-keyboard-response","38","466121","0.0-11.0-2.37","5e960dc166e110080028b9e8","4r215y","KW","29","F","{""name"":""Chrome"",""chrome"":true,""version"":""105.0"",""blink"":true,""windows"":true,""osname"":""Windows"",""osversion"":""10"",""a"":true}","9:17:23","1","4","Test_3","74","j","1","1141.3000001907349","1536 x 864","1536 x 864","true","1","10","","","","",""
"null","<p style=""font-size: 80px;"">+ 10 points</p>","null","html-keyboard-response","39","468953","0.0-11.0-2.38","5e960dc166e110080028b9e8","4r215y","KW","29","F","{""name"":""Chrome"",""chrome"":true,""version"":""105.0"",""blink"":true,""windows"":true,""osname"":""Windows"",""osversion"":""10"",""a"":true}","9:17:23","1","4","Test_4","70","f","1","799.2000000476837","1536 x 864","1536 x 864","true","1","10","","","","",""
"null","<p style=""font-size: 80px;"">+ 10 points</p>","null","html-keyboard-response","40","471856","0.0-11.0-2.39","5e960dc166e110080028b9e8","4r215y","KW","29","F","{""name"":""Chrome"",""chrome"":true,""version"":""105.0"",""blink"":true,""windows"":true,""osname"":""Windows"",""osversion"":""10"",""a"":true}","9:17:23","1","4","Test_4","70","f","1","888.2999999523163","1536 x 864","1536 x 864","true","1","10","","","","",""
"null","<p style=""font-size: 80px;"">+ 0 points</p>","null","html-keyboard-response","41","474605","0.0-11.0-2.40","5e960dc166e110080028b9e8","4r215y","KW","29","F","{""name"":""Chrome"",""chrome"":true,""version"":""105.0"",""blink"":true,""windows"":true,""osname"":""Windows"",""osversion"":""10"",""a"":true}","9:17:23","1","3","Test_3","74","f","0","718.5999999046326","1536 x 864","1536 x 864","true","1","0","","","","",""
"null","<p style=""font-size: 80px;"">+ 10 points</p>","null","html-keyboard-response","42","477892","0.0-11.0-2.41","5e960dc166e110080028b9e8","4r215y","KW","29","F","{""name"":""Chrome"",""chrome"":true,""version"":""105.0"",""blink"":true,""windows"":true,""osname"":""Windows"",""osversion"":""10"",""a"":true}","9:17:23","1","3","Test_1","70","f","1","1279.2999999523163","1536 x 864","1536 x 864","true","1","10","","","","",""
"null","<p style=""font-size: 80px;"">+ 10 points</p>","null","html-keyboard-response","43","480425","0.0-11.0-2.42","5e960dc166e110080028b9e8","4r215y","KW","29","F","{""name"":""Chrome"",""chrome"":true,""version"":""105.0"",""blink"":true,""windows"":true,""osname"":""Windows"",""osversion"":""10"",""a"":true}","9:17:23","1","3","Test_2","74","j","1","521.3999998569489","1536 x 864","1536 x 864","true","1","10","","","","",""
"null","<p style=""font-size: 80px;"">+ 10 points</p>","null","html-keyboard-response","44","483142","0.0-11.0-2.43","5e960dc166e110080028b9e8","4r215y","KW","29","F","{""name"":""Chrome"",""chrome"":true,""version"":""105.0"",""blink"":true,""windows"":true,""osname"":""Windows"",""osversion"":""10"",""a"":true}","9:17:23","1","3","Test_3","70","f","1","701.7999999523163","1536 x 864","1536 x 864","true","1","10","","","","",""
"null","<p style=""font-size: 80px;"">+ 10 points</p>","null","html-keyboard-response","45","486144","0.0-11.0-2.44","5e960dc166e110080028b9e8","4r215y","KW","29","F","{""name"":""Chrome"",""chrome"":true,""version"":""105.0"",""blink"":true,""windows"":true,""osname"":""Windows"",""osversion"":""10"",""a"":true}","9:17:23","1","3","Test_4","74","j","1","988.6000001430511","1536 x 864","1536 x 864","true","1","10","","","","",""
"null","<p style=""font-size: 80px;"">+ 10 points</p>","null","html-keyboard-response","46","488828","0.0-11.0-2.45","5e960dc166e110080028b9e8","4r215y","KW","29","F","{""name"":""Chrome"",""chrome"":true,""version"":""105.0"",""blink"":true,""windows"":true,""osname"":""Windows"",""osversion"":""10"",""a"":true}","9:17:23","1","3","Test_2","74","j","1","668.3999998569489","1536 x 864","1536 x 864","true","1","10","","","","",""
"null","<p style=""font-size: 80px;"">+ 10 points</p>","null","html-keyboard-response","47","491363","0.0-11.0-2.46","5e960dc166e110080028b9e8","4r215y","KW","29","F","{""name"":""Chrome"",""chrome"":true,""version"":""105.0"",""blink"":true,""windows"":true,""osname"":""Windows"",""osversion"":""10"",""a"":true}","9:17:23","1","3","Test_1","70","f","1","515.7999999523163","1536 x 864","1536 x 864","true","1","10","","","","",""
"null","<p style=""font-size: 80px;"">+ 10 points</p>","null","html-keyboard-response","48","494148","0.0-11.0-2.47","5e960dc166e110080028b9e8","4r215y","KW","29","F","{""name"":""Chrome"",""chrome"":true,""version"":""105.0"",""blink"":true,""windows"":true,""osname"":""Windows"",""osversion"":""10"",""a"":true}","9:17:23","1","3","Test_3","70","f","1","755.3999998569489","1536 x 864","1536 x 864","true","1","10","","","","",""
"null","<p style=""font-size: 80px;"">+ 10 points</p>","null","html-keyboard-response","49","496748","0.0-11.0-2.48","5e960dc166e110080028b9e8","4r215y","KW","29","F","{""name"":""Chrome"",""chrome"":true,""version"":""105.0"",""blink"":true,""windows"":true,""osname"":""Windows"",""osversion"":""10"",""a"":true}","9:17:23","1","3","Test_3","70","f","1","579.1000001430511","1536 x 864","1536 x 864","true","1","10","","","","",""
"null","<p style=""font-size: 80px;"">+ 10 points</p>","null","html-keyboard-response","50","499565","0.0-11.0-2.49","5e960dc166e110080028b9e8","4r215y","KW","29","F","{""name"":""Chrome"",""chrome"":true,""version"":""105.0"",""blink"":true,""windows"":true,""osname"":""Windows"",""osversion"":""10"",""a"":true}","9:17:23","1","3","Test_2","74","j","1","807.5999999046326","1536 x 864","1536 x 864","true","1","10","","","","",""
"null","<p style=""font-size: 80px;"">+ 10 points</p>","null","html-keyboard-response","51","502234","0.0-11.0-2.50","5e960dc166e110080028b9e8","4r215y","KW","29","F","{""name"":""Chrome"",""chrome"":true,""version"":""105.0"",""blink"":true,""windows"":true,""osname"":""Windows"",""osversion"":""10"",""a"":true}","9:17:23","1","3","Test_1","70","f","1","653.2999999523163","1536 x 864","1536 x 864","true","1","10","","","","",""
"null","<p style=""font-size: 80px;"">+ 10 points</p>","null","html-keyboard-response","52","504982","0.0-11.0-2.51","5e960dc166e110080028b9e8","4r215y","KW","29","F","{""name"":""Chrome"",""chrome"":true,""version"":""105.0"",""blink"":true,""windows"":true,""osname"":""Windows"",""osversion"":""10"",""a"":true}","9:17:23","1","3","Test_2","74","j","1","716.8000001907349","1536 x 864","1536 x 864","true","1","10","","","","",""
"null","<p style=""font-size: 80px;"">+ 10 points</p>","null","html-keyboard-response","53","507786","0.0-11.0-2.52","5e960dc166e110080028b9e8","4r215y","KW","29","F","{""name"":""Chrome"",""chrome"":true,""version"":""105.0"",""blink"":true,""windows"":true,""osname"":""Windows"",""osversion"":""10"",""a"":true}","9:17:23","1","3","Test_4","74","j","1","784.1000001430511","1536 x 864","1536 x 864","true","1","10","","","","",""
"null","<p style=""font-size: 80px;"">+ 10 points</p>","null","html-keyboard-response","54","510554","0.0-11.0-2.53","5e960dc166e110080028b9e8","4r215y","KW","29","F","{""name"":""Chrome"",""chrome"":true,""version"":""105.0"",""blink"":true,""windows"":true,""osname"":""Windows"",""osversion"":""10"",""a"":true}","9:17:23","1","3","Test_1","70","f","1","750.2999999523163","1536 x 864","1536 x 864","true","1","10","","","","",""
"null","<p style=""font-size: 80px;"">+ 10 points</p>","null","html-keyboard-response","55","513420","0.0-11.0-2.54","5e960dc166e110080028b9e8","4r215y","KW","29","F","{""name"":""Chrome"",""chrome"":true,""version"":""105.0"",""blink"":true,""windows"":true,""osname"":""Windows"",""osversion"":""10"",""a"":true}","9:17:23","1","3","Test_4","74","j","1","844.6000001430511","1536 x 864","1536 x 864","true","1","10","","","","",""
"null","<p style=""font-size: 80px;"">+ 10 points</p>","null","html-keyboard-response","56","515992","0.0-11.0-2.55","5e960dc166e110080028b9e8","4r215y","KW","29","F","{""name"":""Chrome"",""chrome"":true,""version"":""105.0"",""blink"":true,""windows"":true,""osname"":""Windows"",""osversion"":""10"",""a"":true}","9:17:23","1","3","Test_4","74","j","1","554.5","1536 x 864","1536 x 864","true","1","10","","","","",""
"null","<p style=""font-size: 80px;"">+ 0 points</p>","null","html-keyboard-response","57","518590","0.0-11.0-2.56","5e960dc166e110080028b9e8","4r215y","KW","29","F","{""name"":""Chrome"",""chrome"":true,""version"":""105.0"",""blink"":true,""windows"":true,""osname"":""Windows"",""osversion"":""10"",""a"":true}","9:17:23","1","4","Test_4","74","f","0","573.2999999523163","1536 x 864","1536 x 864","true","1","0","","","","",""
"null","<p style=""font-size: 80px;"">+ 10 points</p>","null","html-keyboard-response","58","522041","0.0-11.0-2.57","5e960dc166e110080028b9e8","4r215y","KW","29","F","{""name"":""Chrome"",""chrome"":true,""version"":""105.0"",""blink"":true,""windows"":true,""osname"":""Windows"",""osversion"":""10"",""a"":true}","9:17:23","1","4","Test_2","70","f","1","1425.5","1536 x 864","1536 x 864","true","1","10","","","","",""
"null","<p style=""font-size: 80px;"">+ 10 points</p>","null","html-keyboard-response","59","524759","0.0-11.0-2.58","5e960dc166e110080028b9e8","4r215y","KW","29","F","{""name"":""Chrome"",""chrome"":true,""version"":""105.0"",""blink"":true,""windows"":true,""osname"":""Windows"",""osversion"":""10"",""a"":true}","9:17:23","1","4","Test_4","70","f","1","696.1000001430511","1536 x 864","1536 x 864","true","1","10","","","","",""
"null","<p style=""font-size: 80px;"">+ 10 points</p>","null","html-keyboard-response","60","527710","0.0-11.0-2.59","5e960dc166e110080028b9e8","4r215y","KW","29","F","{""name"":""Chrome"",""chrome"":true,""version"":""105.0"",""blink"":true,""windows"":true,""osname"":""Windows"",""osversion"":""10"",""a"":true}","9:17:23","1","4","Test_3","74","j","1","938.5","1536 x 864","1536 x 864","true","1","10","","","","",""
"null","<p style=""font-size: 80px;"">+ 10 points</p>","null","html-keyboard-response","61","530594","0.0-11.0-2.60","5e960dc166e110080028b9e8","4r215y","KW","29","F","{""name"":""Chrome"",""chrome"":true,""version"":""105.0"",""blink"":true,""windows"":true,""osname"":""Windows"",""osversion"":""10"",""a"":true}","9:17:23","1","4","Test_1","74","j","1","851","1536 x 864","1536 x 864","true","1","10","","","","",""
"null","<p style=""font-size: 80px;"">+ 10 points</p>","null","html-keyboard-response","62","533211","0.0-11.0-2.61","5e960dc166e110080028b9e8","4r215y","KW","29","F","{""name"":""Chrome"",""chrome"":true,""version"":""105.0"",""blink"":true,""windows"":true,""osname"":""Windows"",""osversion"":""10"",""a"":true}","9:17:23","1","4","Test_3","74","j","1","591.9000000953674","1536 x 864","1536 x 864","true","1","10","","","","",""
"null","<p style=""font-size: 80px;"">+ 0 points</p>","null","html-keyboard-response","63","536214","0.0-11.0-2.62","5e960dc166e110080028b9e8","4r215y","KW","29","F","{""name"":""Chrome"",""chrome"":true,""version"":""105.0"",""blink"":true,""windows"":true,""osname"":""Windows"",""osversion"":""10"",""a"":true}","9:17:23","1","4","Test_3","70","j","0","978.8999998569489","1536 x 864","1536 x 864","true","1","0","","","","",""
"null","<p style=""font-size: 80px;"">+ 10 points</p>","null","html-keyboard-response","64","539598","0.0-11.0-2.63","5e960dc166e110080028b9e8","4r215y","KW","29","F","{""name"":""Chrome"",""chrome"":true,""version"":""105.0"",""blink"":true,""windows"":true,""osname"":""Windows"",""osversion"":""10"",""a"":true}","9:17:23","1","4","Test_1","74","j","1","1355.8999998569489","1536 x 864","1536 x 864","true","1","10","","","","",""
"null","<p style=""font-size: 80px;"">+ 10 points</p>","null","html-keyboard-response","65","542248","0.0-11.0-2.64","5e960dc166e110080028b9e8","4r215y","KW","29","F","{""name"":""Chrome"",""chrome"":true,""version"":""105.0"",""blink"":true,""windows"":true,""osname"":""Windows"",""osversion"":""10"",""a"":true}","9:17:23","1","4","Test_2","70","f","1","616.3999998569489","1536 x 864","1536 x 864","true","1","10","","","","",""
"null","<p style=""font-size: 80px;"">+ 10 points</p>","null","html-keyboard-response","66","544932","0.0-11.0-2.65","5e960dc166e110080028b9e8","4r215y","KW","29","F","{""name"":""Chrome"",""chrome"":true,""version"":""105.0"",""blink"":true,""windows"":true,""osname"":""Windows"",""osversion"":""10"",""a"":true}","9:17:23","1","4","Test_2","70","f","1","669.5999999046326","1536 x 864","1536 x 864","true","1","10","","","","",""
"null","<p style=""font-size: 80px;"">+ 10 points</p>","null","html-keyboard-response","67","547917","0.0-11.0-2.66","5e960dc166e110080028b9e8","4r215y","KW","29","F","{""name"":""Chrome"",""chrome"":true,""version"":""105.0"",""blink"":true,""windows"":true,""osname"":""Windows"",""osversion"":""10"",""a"":true}","9:17:23","1","4","Test_1","74","j","1","974.5","1536 x 864","1536 x 864","true","1","10","","","","",""
"null","<p style=""font-size: 80px;"">+ 10 points</p>","null","html-keyboard-response","68","551452","0.0-11.0-2.67","5e960dc166e110080028b9e8","4r215y","KW","29","F","{""name"":""Chrome"",""chrome"":true,""version"":""105.0"",""blink"":true,""windows"":true,""osname"":""Windows"",""osversion"":""10"",""a"":true}","9:17:23","1","4","Test_4","70","f","1","1503.6000001430511","1536 x 864","1536 x 864","true","1","10","","","","",""
"null","<p style=""font-size: 80px;"">+ 10 points</p>","null","html-keyboard-response","69","554505","0.0-11.0-2.68","5e960dc166e110080028b9e8","4r215y","KW","29","F","{""name"":""Chrome"",""chrome"":true,""version"":""105.0"",""blink"":true,""windows"":true,""osname"":""Windows"",""osversion"":""10"",""a"":true}","9:17:23","1","4","Test_2","70","f","1","1031.6000001430511","1536 x 864","1536 x 864","true","1","10","","","","",""
"null","<p style=""font-size: 80px;"">+ 10 points</p>","null","html-keyboard-response","70","557621","0.0-11.0-2.69","5e960dc166e110080028b9e8","4r215y","KW","29","F","{""name"":""Chrome"",""chrome"":true,""version"":""105.0"",""blink"":true,""windows"":true,""osname"":""Windows"",""osversion"":""10"",""a"":true}","9:17:23","1","4","Test_4","70","f","1","1086.3999998569489","1536 x 864","1536 x 864","true","1","10","","","","",""
"null","<p style=""font-size: 80px;"">+ 10 points</p>","null","html-keyboard-response","71","560405","0.0-11.0-2.70","5e960dc166e110080028b9e8","4r215y","KW","29","F","{""name"":""Chrome"",""chrome"":true,""version"":""105.0"",""blink"":true,""windows"":true,""osname"":""Windows"",""osversion"":""10"",""a"":true}","9:17:23","1","4","Test_3","74","j","1","757.3000001907349","1536 x 864","1536 x 864","true","1","10","","","","",""
"null","<p style=""font-size: 80px;"">+ 10 points</p>","null","html-keyboard-response","72","563324","0.0-11.0-2.71","5e960dc166e110080028b9e8","4r215y","KW","29","F","{""name"":""Chrome"",""chrome"":true,""version"":""105.0"",""blink"":true,""windows"":true,""osname"":""Windows"",""osversion"":""10"",""a"":true}","9:17:23","1","4","Test_1","74","j","1","912.9000000953674","1536 x 864","1536 x 864","true","1","10","","","","",""
"null","<p style=""font-size: 80px;"">+ 10 points</p>","null","html-keyboard-response","73","566024","0.0-11.0-2.72","5e960dc166e110080028b9e8","4r215y","KW","29","F","{""name"":""Chrome"",""chrome"":true,""version"":""105.0"",""blink"":true,""windows"":true,""osname"":""Windows"",""osversion"":""10"",""a"":true}","9:17:23","1","4","Test_2","70","f","1","677.7999999523163","1536 x 864","1536 x 864","true","1","10","","","","",""
"null","<p style=""font-size: 80px;"">+ 10 points</p>","null","html-keyboard-response","74","568943","0.0-11.0-2.73","5e960dc166e110080028b9e8","4r215y","KW","29","F","{""name"":""Chrome"",""chrome"":true,""version"":""105.0"",""blink"":true,""windows"":true,""osname"":""Windows"",""osversion"":""10"",""a"":true}","9:17:23","1","4","Test_3","74","j","1","897.5999999046326","1536 x 864","1536 x 864","true","1","10","","","","",""
"null","<p style=""font-size: 80px;"">+ 10 points</p>","null","html-keyboard-response","75","571760","0.0-11.0-2.74","5e960dc166e110080028b9e8","4r215y","KW","29","F","{""name"":""Chrome"",""chrome"":true,""version"":""105.0"",""blink"":true,""windows"":true,""osname"":""Windows"",""osversion"":""10"",""a"":true}","9:17:23","1","4","Test_1","74","j","1","798.5999999046326","1536 x 864","1536 x 864","true","1","10","","","","",""
"null","<p style=""font-size: 80px;"">+ 10 points</p>","null","html-keyboard-response","76","574536","0.0-11.0-2.75","5e960dc166e110080028b9e8","4r215y","KW","29","F","{""name"":""Chrome"",""chrome"":true,""version"":""105.0"",""blink"":true,""windows"":true,""osname"":""Windows"",""osversion"":""10"",""a"":true}","9:17:23","1","4","Test_3","74","j","1","771.5","1536 x 864","1536 x 864","true","1","10","","","","",""
"null","<p style=""font-size: 80px;"">+ 10 points</p>","null","html-keyboard-response","77","577846","0.0-11.0-2.76","5e960dc166e110080028b9e8","4r215y","KW","29","F","{""name"":""Chrome"",""chrome"":true,""version"":""105.0"",""blink"":true,""windows"":true,""osname"":""Windows"",""osversion"":""10"",""a"":true}","9:17:23","1","4","Test_2","70","f","1","1296.1000001430511","1536 x 864","1536 x 864","true","1","10","","","","",""
"null","<p style=""font-size: 80px;"">+ 10 points</p>","null","html-keyboard-response","78","580846","0.0-11.0-2.77","5e960dc166e110080028b9e8","4r215y","KW","29","F","{""name"":""Chrome"",""chrome"":true,""version"":""105.0"",""blink"":true,""windows"":true,""osname"":""Windows"",""osversion"":""10"",""a"":true}","9:17:23","1","4","Test_4","70","f","1","977.0999999046326","1536 x 864","1536 x 864","true","1","10","","","","",""
"null","<p style=""font-size: 80px;"">+ 10 points</p>","null","html-keyboard-response","79","583397","0.0-11.0-2.78","5e960dc166e110080028b9e8","4r215y","KW","29","F","{""name"":""Chrome"",""chrome"":true,""version"":""105.0"",""blink"":true,""windows"":true,""osname"":""Windows"",""osversion"":""10"",""a"":true}","9:17:23","1","4","Test_1","74","j","1","539.9000000953674","1536 x 864","1536 x 864","true","1","10","","","","",""
"null","<p style=""font-size: 80px;"">+ 0 points</p>","null","html-keyboard-response","80","586799","0.0-11.0-2.79","5e960dc166e110080028b9e8","4r215y","KW","29","F","{""name"":""Chrome"",""chrome"":true,""version"":""105.0"",""blink"":true,""windows"":true,""osname"":""Windows"",""osversion"":""10"",""a"":true}","9:17:23","1","3","Test_1","74","f","0","1371.6000001430511","1536 x 864","1536 x 864","true","1","0","","","","",""
"null","<p style=""font-size: 80px;"">+ 0 points</p>","null","html-keyboard-response","81","589732","0.0-11.0-2.80","5e960dc166e110080028b9e8","4r215y","KW","29","F","{""name"":""Chrome"",""chrome"":true,""version"":""105.0"",""blink"":true,""windows"":true,""osname"":""Windows"",""osversion"":""10"",""a"":true}","9:17:23","1","3","Test_2","70","j","0","921.7000000476837","1536 x 864","1536 x 864","true","1","0","","","","",""
"null","<p style=""font-size: 80px;"">+ 0 points</p>","null","html-keyboard-response","82","593018","0.0-11.0-2.81","5e960dc166e110080028b9e8","4r215y","KW","29","F","{""name"":""Chrome"",""chrome"":true,""version"":""105.0"",""blink"":true,""windows"":true,""osname"":""Windows"",""osversion"":""10"",""a"":true}","9:17:23","1","3","Test_4","70","j","0","1276.6999998092651","1536 x 864","1536 x 864","true","1","0","","","","",""
"null","<p style=""font-size: 80px;"">+ 10 points</p>","null","html-keyboard-response","83","596469","0.0-11.0-2.82","5e960dc166e110080028b9e8","4r215y","KW","29","F","{""name"":""Chrome"",""chrome"":true,""version"":""105.0"",""blink"":true,""windows"":true,""osname"":""Windows"",""osversion"":""10"",""a"":true}","9:17:23","1","3","Test_2","74","j","1","1438.5","1536 x 864","1536 x 864","true","1","10","","","","",""
"null","<p style=""font-size: 80px;"">+ 10 points</p>","null","html-keyboard-response","84","599186","0.0-11.0-2.83","5e960dc166e110080028b9e8","4r215y","KW","29","F","{""name"":""Chrome"",""chrome"":true,""version"":""105.0"",""blink"":true,""windows"":true,""osname"":""Windows"",""osversion"":""10"",""a"":true}","9:17:23","1","3","Test_2","74","j","1","706.7999999523163","1536 x 864","1536 x 864","true","1","10","","","","",""
"null","<p style=""font-size: 80px;"">+ 10 points</p>","null","html-keyboard-response","85","602203","0.0-11.0-2.84","5e960dc166e110080028b9e8","4r215y","KW","29","F","{""name"":""Chrome"",""chrome"":true,""version"":""105.0"",""blink"":true,""windows"":true,""osname"":""Windows"",""osversion"":""10"",""a"":true}","9:17:23","1","3","Test_3","70","f","1","989.2000000476837","1536 x 864","1536 x 864","true","1","10","","","","",""
"null","<p style=""font-size: 80px;"">+ 10 points</p>","null","html-keyboard-response","86","605004","0.0-11.0-2.85","5e960dc166e110080028b9e8","4r215y","KW","29","F","{""name"":""Chrome"",""chrome"":true,""version"":""105.0"",""blink"":true,""windows"":true,""osname"":""Windows"",""osversion"":""10"",""a"":true}","9:17:23","1","3","Test_1","70","f","1","792.5","1536 x 864","1536 x 864","true","1","10","","","","",""
"null","<p style=""font-size: 80px;"">+ 10 points</p>","null","html-keyboard-response","87","607692","0.0-11.0-2.86","5e960dc166e110080028b9e8","4r215y","KW","29","F","{""name"":""Chrome"",""chrome"":true,""version"":""105.0"",""blink"":true,""windows"":true,""osname"":""Windows"",""osversion"":""10"",""a"":true}","9:17:23","1","3","Test_2","74","j","1","677.5999999046326","1536 x 864","1536 x 864","true","1","10","","","","",""
"null","<p style=""font-size: 80px;"">+ 10 points</p>","null","html-keyboard-response","88","610560","0.0-11.0-2.87","5e960dc166e110080028b9e8","4r215y","KW","29","F","{""name"":""Chrome"",""chrome"":true,""version"":""105.0"",""blink"":true,""windows"":true,""osname"":""Windows"",""osversion"":""10"",""a"":true}","9:17:23","1","3","Test_3","70","f","1","847.2999999523163","1536 x 864","1536 x 864","true","1","10","","","","",""
"null","<p style=""font-size: 80px;"">+ 10 points</p>","null","html-keyboard-response","89","613326","0.0-11.0-2.88","5e960dc166e110080028b9e8","4r215y","KW","29","F","{""name"":""Chrome"",""chrome"":true,""version"":""105.0"",""blink"":true,""windows"":true,""osname"":""Windows"",""osversion"":""10"",""a"":true}","9:17:23","1","3","Test_1","70","f","1","737.5999999046326","1536 x 864","1536 x 864","true","1","10","","","","",""
"null","<p style=""font-size: 80px;"">+ 10 points</p>","null","html-keyboard-response","90","615909","0.0-11.0-2.89","5e960dc166e110080028b9e8","4r215y","KW","29","F","{""name"":""Chrome"",""chrome"":true,""version"":""105.0"",""blink"":true,""windows"":true,""osname"":""Windows"",""osversion"":""10"",""a"":true}","9:17:23","1","3","Test_1","70","f","1","560.7000000476837","1536 x 864","1536 x 864","true","1","10","","","","",""
"null","<p style=""font-size: 80px;"">+ 10 points</p>","null","html-keyboard-response","91","618528","0.0-11.0-2.90","5e960dc166e110080028b9e8","4r215y","KW","29","F","{""name"":""Chrome"",""chrome"":true,""version"":""105.0"",""blink"":true,""windows"":true,""osname"":""Windows"",""osversion"":""10"",""a"":true}","9:17:23","1","3","Test_4","74","j","1","613.6999998092651","1536 x 864","1536 x 864","true","1","10","","","","",""
"null","<p style=""font-size: 80px;"">+ 10 points</p>","null","html-keyboard-response","92","621128","0.0-11.0-2.91","5e960dc166e110080028b9e8","4r215y","KW","29","F","{""name"":""Chrome"",""chrome"":true,""version"":""105.0"",""blink"":true,""windows"":true,""osname"":""Windows"",""osversion"":""10"",""a"":true}","9:17:23","1","3","Test_3","70","f","1","586.2000000476837","1536 x 864","1536 x 864","true","1","10","","","","",""
"null","<p style=""font-size: 80px;"">+ 10 points</p>","null","html-keyboard-response","93","623762","0.0-11.0-2.92","5e960dc166e110080028b9e8","4r215y","KW","29","F","{""name"":""Chrome"",""chrome"":true,""version"":""105.0"",""blink"":true,""windows"":true,""osname"":""Windows"",""osversion"":""10"",""a"":true}","9:17:23","1","3","Test_3","70","f","1","621.4000000953674","1536 x 864","1536 x 864","true","1","10","","","","",""
"null","<p style=""font-size: 80px;"">+ 10 points</p>","null","html-keyboard-response","94","626615","0.0-11.0-2.93","5e960dc166e110080028b9e8","4r215y","KW","29","F","{""name"":""Chrome"",""chrome"":true,""version"":""105.0"",""blink"":true,""windows"":true,""osname"":""Windows"",""osversion"":""10"",""a"":true}","9:17:23","1","3","Test_4","74","j","1","844.3999998569489","1536 x 864","1536 x 864","true","1","10","","","","",""
"null","<p style=""font-size: 80px;"">+ 10 points</p>","null","html-keyboard-response","95","629282","0.0-11.0-2.94","5e960dc166e110080028b9e8","4r215y","KW","29","F","{""name"":""Chrome"",""chrome"":true,""version"":""105.0"",""blink"":true,""windows"":true,""osname"":""Windows"",""osversion"":""10"",""a"":true}","9:17:23","1","3","Test_2","74","j","1","635.2000000476837","1536 x 864","1536 x 864","true","1","10","","","","",""
"null","<p style=""font-size: 80px;"">+ 10 points</p>","null","html-keyboard-response","96","632423","0.0-11.0-2.95","5e960dc166e110080028b9e8","4r215y","KW","29","F","{""name"":""Chrome"",""chrome"":true,""version"":""105.0"",""blink"":true,""windows"":true,""osname"":""Windows"",""osversion"":""10"",""a"":true}","9:17:23","1","3","Test_4","74","j","1","1116.5","1536 x 864","1536 x 864","true","1","10","","","","",""
"null","<p style=""font-size: 80px;"">+ 10 points</p>","null","html-keyboard-response","97","635068","0.0-11.0-2.96","5e960dc166e110080028b9e8","4r215y","KW","29","F","{""name"":""Chrome"",""chrome"":true,""version"":""105.0"",""blink"":true,""windows"":true,""osname"":""Windows"",""osversion"":""10"",""a"":true}","9:17:23","1","3","Test_2","74","j","1","632.5","1536 x 864","1536 x 864","true","1","10","","","","",""
"null","<p style=""font-size: 80px;"">+ 10 points</p>","null","html-keyboard-response","98","637785","0.0-11.0-2.97","5e960dc166e110080028b9e8","4r215y","KW","29","F","{""name"":""Chrome"",""chrome"":true,""version"":""105.0"",""blink"":true,""windows"":true,""osname"":""Windows"",""osversion"":""10"",""a"":true}","9:17:23","1","3","Test_1","70","f","1","685.6999998092651","1536 x 864","1536 x 864","true","1","10","","","","",""
"null","<p style=""font-size: 80px;"">+ 10 points</p>","null","html-keyboard-response","99","640403","0.0-11.0-2.98","5e960dc166e110080028b9e8","4r215y","KW","29","F","{""name"":""Chrome"",""chrome"":true,""version"":""105.0"",""blink"":true,""windows"":true,""osname"":""Windows"",""osversion"":""10"",""a"":true}","9:17:23","1","3","Test_3","70","f","1","610.8999998569489","1536 x 864","1536 x 864","true","1","10","","","","",""
"null","<p style=""font-size: 80px;"">+ 10 points</p>","null","html-keyboard-response","100","643205","0.0-11.0-2.99","5e960dc166e110080028b9e8","4r215y","KW","29","F","{""name"":""Chrome"",""chrome"":true,""version"":""105.0"",""blink"":true,""windows"":true,""osname"":""Windows"",""osversion"":""10"",""a"":true}","9:17:23","1","3","Test_3","70","f","1","796","1536 x 864","1536 x 864","true","1","10","","","","",""
"null","<p style=""font-size: 80px;"">+ 10 points</p>","null","html-keyboard-response","101","645855","0.0-11.0-2.100","5e960dc166e110080028b9e8","4r215y","KW","29","F","{""name"":""Chrome"",""chrome"":true,""version"":""105.0"",""blink"":true,""windows"":true,""osname"":""Windows"",""osversion"":""10"",""a"":true}","9:17:23","1","3","Test_4","74","j","1","619.6999998092651","1536 x 864","1536 x 864","true","1","10","","","","",""
"null","<p style=""font-size: 80px;"">+ 10 points</p>","null","html-keyboard-response","102","648505","0.0-11.0-2.101","5e960dc166e110080028b9e8","4r215y","KW","29","F","{""name"":""Chrome"",""chrome"":true,""version"":""105.0"",""blink"":true,""windows"":true,""osname"":""Windows"",""osversion"":""10"",""a"":true}","9:17:23","1","3","Test_4","74","j","1","618.9000000953674","1536 x 864","1536 x 864","true","1","10","","","","",""
"null","<p style=""font-size: 80px;"">+ 0 points</p>","null","html-keyboard-response","103","651324","0.0-11.0-2.102","5e960dc166e110080028b9e8","4r215y","KW","29","F","{""name"":""Chrome"",""chrome"":true,""version"":""105.0"",""blink"":true,""windows"":true,""osname"":""Windows"",""osversion"":""10"",""a"":true}","9:17:23","1","4","Test_1","70","j","0","788","1536 x 864","1536 x 864","true","1","0","","","","",""
"null","<p style=""font-size: 80px;"">+ 10 points</p>","null","html-keyboard-response","104","654192","0.0-11.0-2.103","5e960dc166e110080028b9e8","4r215y","KW","29","F","{""name"":""Chrome"",""chrome"":true,""version"":""105.0"",""blink"":true,""windows"":true,""osname"":""Windows"",""osversion"":""10"",""a"":true}","9:17:23","1","4","Test_2","70","f","1","846.6000001430511","1536 x 864","1536 x 864","true","1","10","","","","",""
"null","<p style=""font-size: 80px;"">+ 10 points</p>","null","html-keyboard-response","105","657078","0.0-11.0-2.104","5e960dc166e110080028b9e8","4r215y","KW","29","F","{""name"":""Chrome"",""chrome"":true,""version"":""105.0"",""blink"":true,""windows"":true,""osname"":""Windows"",""osversion"":""10"",""a"":true}","9:17:23","1","4","Test_4","70","f","1","867.9000000953674","1536 x 864","1536 x 864","true","1","10","","","","",""
"null","<p style=""font-size: 80px;"">+ 10 points</p>","null","html-keyboard-response","106","659627","0.0-11.0-2.105","5e960dc166e110080028b9e8","4r215y","KW","29","F","{""name"":""Chrome"",""chrome"":true,""version"":""105.0"",""blink"":true,""windows"":true,""osname"":""Windows"",""osversion"":""10"",""a"":true}","9:17:23","1","4","Test_2","70","f","1","523","1536 x 864","1536 x 864","true","1","10","","","","",""
"null","<p style=""font-size: 80px;"">+ 10 points</p>","null","html-keyboard-response","107","662728","0.0-11.0-2.106","5e960dc166e110080028b9e8","4r215y","KW","29","F","{""name"":""Chrome"",""chrome"":true,""version"":""105.0"",""blink"":true,""windows"":true,""osname"":""Windows"",""osversion"":""10"",""a"":true}","9:17:23","1","4","Test_3","74","j","1","1066.6000001430511","1536 x 864","1536 x 864","true","1","10","","","","",""
"null","<p style=""font-size: 80px;"">+ 10 points</p>","null","html-keyboard-response","108","665395","0.0-11.0-2.107","5e960dc166e110080028b9e8","4r215y","KW","29","F","{""name"":""Chrome"",""chrome"":true,""version"":""105.0"",""blink"":true,""windows"":true,""osname"":""Windows"",""osversion"":""10"",""a"":true}","9:17:23","1","4","Test_1","74","j","1","651.0999999046326","1536 x 864","1536 x 864","true","1","10","","","","",""
"null","<p style=""font-size: 80px;"">+ 10 points</p>","null","html-keyboard-response","109","668113","0.0-11.0-2.108","5e960dc166e110080028b9e8","4r215y","KW","29","F","{""name"":""Chrome"",""chrome"":true,""version"":""105.0"",""blink"":true,""windows"":true,""osname"":""Windows"",""osversion"":""10"",""a"":true}","9:17:23","1","4","Test_4","70","f","1","704.3000001907349","1536 x 864","1536 x 864","true","1","10","","","","",""
"null","<p style=""font-size: 80px;"">+ 10 points</p>","null","html-keyboard-response","110","729717","0.0-11.0-2.109","5e960dc166e110080028b9e8","4r215y","KW","29","F","{""name"":""Chrome"",""chrome"":true,""version"":""105.0"",""blink"":true,""windows"":true,""osname"":""Windows"",""osversion"":""10"",""a"":true}","9:17:23","1","4","Test_2","70","f","1","777","1536 x 864","1536 x 864","true","1","10","","","","",""
"null","<p style=""font-size: 80px;"">+ 10 points</p>","null","html-keyboard-response","111","732307","0.0-11.0-2.110","5e960dc166e110080028b9e8","4r215y","KW","29","F","{""name"":""Chrome"",""chrome"":true,""version"":""105.0"",""blink"":true,""windows"":true,""osname"":""Windows"",""osversion"":""10"",""a"":true}","9:17:23","1","4","Test_2","70","f","1","561.5","1536 x 864","1536 x 864","true","1","10","","","","",""
"null","<p style=""font-size: 80px;"">+ 10 points</p>","null","html-keyboard-response","112","735134","0.0-11.0-2.111","5e960dc166e110080028b9e8","4r215y","KW","29","F","{""name"":""Chrome"",""chrome"":true,""version"":""105.0"",""blink"":true,""windows"":true,""osname"":""Windows"",""osversion"":""10"",""a"":true}","9:17:23","1","4","Test_4","70","f","1","803.5","1536 x 864","1536 x 864","true","1","10","","","","",""
"null","<p style=""font-size: 80px;"">+ 10 points</p>","null","html-keyboard-response","113","737836","0.0-11.0-2.112","5e960dc166e110080028b9e8","4r215y","KW","29","F","{""name"":""Chrome"",""chrome"":true,""version"":""105.0"",""blink"":true,""windows"":true,""osname"":""Windows"",""osversion"":""10"",""a"":true}","9:17:23","1","4","Test_1","74","j","1","670","1536 x 864","1536 x 864","true","1","10","","","","",""
"null","<p style=""font-size: 80px;"">+ 10 points</p>","null","html-keyboard-response","114","740553","0.0-11.0-2.113","5e960dc166e110080028b9e8","4r215y","KW","29","F","{""name"":""Chrome"",""chrome"":true,""version"":""105.0"",""blink"":true,""windows"":true,""osname"":""Windows"",""osversion"":""10"",""a"":true}","9:17:23","1","4","Test_1","74","j","1","689.0999999046326","1536 x 864","1536 x 864","true","1","10","","","","",""
"null","<p style=""font-size: 80px;"">+ 10 points</p>","null","html-keyboard-response","115","743188","0.0-11.0-2.114","5e960dc166e110080028b9e8","4r215y","KW","29","F","{""name"":""Chrome"",""chrome"":true,""version"":""105.0"",""blink"":true,""windows"":true,""osname"":""Windows"",""osversion"":""10"",""a"":true}","9:17:23","1","4","Test_1","74","j","1","629.4000000953674","1536 x 864","1536 x 864","true","1","10","","","","",""
"null","<p style=""font-size: 80px;"">+ 0 points</p>","null","html-keyboard-response","116","745872","0.0-11.0-2.115","5e960dc166e110080028b9e8","4r215y","KW","29","F","{""name"":""Chrome"",""chrome"":true,""version"":""105.0"",""blink"":true,""windows"":true,""osname"":""Windows"",""osversion"":""10"",""a"":true}","9:17:23","1","4","Test_3","70","j","0","653.9000000953674","1536 x 864","1536 x 864","true","1","0","","","","",""
"null","<p style=""font-size: 80px;"">+ 10 points</p>","null","html-keyboard-response","117","748822","0.0-11.0-2.116","5e960dc166e110080028b9e8","4r215y","KW","29","F","{""name"":""Chrome"",""chrome"":true,""version"":""105.0"",""blink"":true,""windows"":true,""osname"":""Windows"",""osversion"":""10"",""a"":true}","9:17:23","1","4","Test_3","74","j","1","941.6000001430511","1536 x 864","1536 x 864","true","1","10","","","","",""
"null","<p style=""font-size: 80px;"">+ 10 points</p>","null","html-keyboard-response","118","751526","0.0-11.0-2.117","5e960dc166e110080028b9e8","4r215y","KW","29","F","{""name"":""Chrome"",""chrome"":true,""version"":""105.0"",""blink"":true,""windows"":true,""osname"":""Windows"",""osversion"":""10"",""a"":true}","9:17:23","1","4","Test_4","70","f","1","694.7000000476837","1536 x 864","1536 x 864","true","1","10","","","","",""
"null","<p style=""font-size: 80px;"">+ 10 points</p>","null","html-keyboard-response","119","754552","0.0-11.0-2.118","5e960dc166e110080028b9e8","4r215y","KW","29","F","{""name"":""Chrome"",""chrome"":true,""version"":""105.0"",""blink"":true,""windows"":true,""osname"":""Windows"",""osversion"":""10"",""a"":true}","9:17:23","1","4","Test_2","70","f","1","1000","1536 x 864","1536 x 864","true","1","10","","","","",""
"null","<p style=""font-size: 80px;"">+ 10 points</p>","null","html-keyboard-response","120","757274","0.0-11.0-2.119","5e960dc166e110080028b9e8","4r215y","KW","29","F","{""name"":""Chrome"",""chrome"":true,""version"":""105.0"",""blink"":true,""windows"":true,""osname"":""Windows"",""osversion"":""10"",""a"":true}","9:17:23","1","4","Test_3","74","j","1","711.2999999523163","1536 x 864","1536 x 864","true","1","10","","","","",""
"null","<p style=""font-size: 80px;"">+ 10 points</p>","null","html-keyboard-response","121","760226","0.0-11.0-2.120","5e960dc166e110080028b9e8","4r215y","KW","29","F","{""name"":""Chrome"",""chrome"":true,""version"":""105.0"",""blink"":true,""windows"":true,""osname"":""Windows"",""osversion"":""10"",""a"":true}","9:17:23","1","4","Test_4","70","f","1","932.5999999046326","1536 x 864","1536 x 864","true","1","10","","","","",""
"null","<p style=""font-size: 80px;"">+ 0 points</p>","null","html-keyboard-response","122","763163","0.0-11.0-2.121","5e960dc166e110080028b9e8","4r215y","KW","29","F","{""name"":""Chrome"",""chrome"":true,""version"":""105.0"",""blink"":true,""windows"":true,""osname"":""Windows"",""osversion"":""10"",""a"":true}","9:17:23","1","3","Test_1","74","f","0","928.8999998569489","1536 x 864","1536 x 864","true","1","0","","","","",""
"null","<p style=""font-size: 80px;"">+ 10 points</p>","null","html-keyboard-response","123","765829","0.0-11.0-2.122","5e960dc166e110080028b9e8","4r215y","KW","29","F","{""name"":""Chrome"",""chrome"":true,""version"":""105.0"",""blink"":true,""windows"":true,""osname"":""Windows"",""osversion"":""10"",""a"":true}","9:17:23","1","3","Test_3","70","f","1","649.3999998569489","1536 x 864","1536 x 864","true","1","10","","","","",""
"null","<p style=""font-size: 80px;"">+ 10 points</p>","null","html-keyboard-response","124","768714","0.0-11.0-2.123","5e960dc166e110080028b9e8","4r215y","KW","29","F","{""name"":""Chrome"",""chrome"":true,""version"":""105.0"",""blink"":true,""windows"":true,""osname"":""Windows"",""osversion"":""10"",""a"":true}","9:17:23","1","3","Test_4","74","j","1","876.3000001907349","1536 x 864","1536 x 864","true","1","10","","","","",""
"null","<p style=""font-size: 80px;"">+ 10 points</p>","null","html-keyboard-response","125","771298","0.0-11.0-2.124","5e960dc166e110080028b9e8","4r215y","KW","29","F","{""name"":""Chrome"",""chrome"":true,""version"":""105.0"",""blink"":true,""windows"":true,""osname"":""Windows"",""osversion"":""10"",""a"":true}","9:17:23","1","3","Test_4","74","j","1","556.8999998569489","1536 x 864","1536 x 864","true","1","10","","","","",""
"null","<p style=""font-size: 80px;"">+ 10 points</p>","null","html-keyboard-response","126","773982","0.0-11.0-2.125","5e960dc166e110080028b9e8","4r215y","KW","29","F","{""name"":""Chrome"",""chrome"":true,""version"":""105.0"",""blink"":true,""windows"":true,""osname"":""Windows"",""osversion"":""10"",""a"":true}","9:17:23","1","3","Test_1","70","f","1","666.5","1536 x 864","1536 x 864","true","1","10","","","","",""
"null","<p style=""font-size: 80px;"">+ 10 points</p>","null","html-keyboard-response","127","776633","0.0-11.0-2.126","5e960dc166e110080028b9e8","4r215y","KW","29","F","{""name"":""Chrome"",""chrome"":true,""version"":""105.0"",""blink"":true,""windows"":true,""osname"":""Windows"",""osversion"":""10"",""a"":true}","9:17:23","1","3","Test_4","74","j","1","625.0999999046326","1536 x 864","1536 x 864","true","1","10","","","","",""
"null","<p style=""font-size: 80px;"">+ 10 points</p>","null","html-keyboard-response","128","779168","0.0-11.0-2.127","5e960dc166e110080028b9e8","4r215y","KW","29","F","{""name"":""Chrome"",""chrome"":true,""version"":""105.0"",""blink"":true,""windows"":true,""osname"":""Windows"",""osversion"":""10"",""a"":true}","9:17:23","1","3","Test_3","70","f","1","522.5999999046326","1536 x 864","1536 x 864","true","1","10","","","","",""
"null","<p style=""font-size: 80px;"">+ 10 points</p>","null","html-keyboard-response","129","781603","0.0-11.0-2.128","5e960dc166e110080028b9e8","4r215y","KW","29","F","{""name"":""Chrome"",""chrome"":true,""version"":""105.0"",""blink"":true,""windows"":true,""osname"":""Windows"",""osversion"":""10"",""a"":true}","9:17:23","1","3","Test_2","74","j","1","414.2000000476837","1536 x 864","1536 x 864","true","1","10","","","","",""
"null","<p style=""font-size: 80px;"">+ 10 points</p>","null","html-keyboard-response","130","784508","0.0-11.0-2.129","5e960dc166e110080028b9e8","4r215y","KW","29","F","{""name"":""Chrome"",""chrome"":true,""version"":""105.0"",""blink"":true,""windows"":true,""osname"":""Windows"",""osversion"":""10"",""a"":true}","9:17:23","1","3","Test_1","70","f","1","881","1536 x 864","1536 x 864","true","1","10","","","","",""
"null","<p style=""font-size: 80px;"">+ 10 points</p>","null","html-keyboard-response","131","787243","0.0-11.0-2.130","5e960dc166e110080028b9e8","4r215y","KW","29","F","{""name"":""Chrome"",""chrome"":true,""version"":""105.0"",""blink"":true,""windows"":true,""osname"":""Windows"",""osversion"":""10"",""a"":true}","9:17:23","1","3","Test_2","74","j","1","711.6000001430511","1536 x 864","1536 x 864","true","1","10","","","","",""
"null","<p style=""font-size: 80px;"">+ 10 points</p>","null","html-keyboard-response","132","789977","0.0-11.0-2.131","5e960dc166e110080028b9e8","4r215y","KW","29","F","{""name"":""Chrome"",""chrome"":true,""version"":""105.0"",""blink"":true,""windows"":true,""osname"":""Windows"",""osversion"":""10"",""a"":true}","9:17:23","1","3","Test_2","74","j","1","713.2999999523163","1536 x 864","1536 x 864","true","1","10","","","","",""
"null","<p style=""font-size: 80px;"">+ 10 points</p>","null","html-keyboard-response","133","793444","0.0-11.0-2.132","5e960dc166e110080028b9e8","4r215y","KW","29","F","{""name"":""Chrome"",""chrome"":true,""version"":""105.0"",""blink"":true,""windows"":true,""osname"":""Windows"",""osversion"":""10"",""a"":true}","9:17:23","1","3","Test_4","74","j","1","1436","1536 x 864","1536 x 864","true","1","10","","","","",""
"null","<p style=""font-size: 80px;"">+ 10 points</p>","null","html-keyboard-response","134","796096","0.0-11.0-2.133","5e960dc166e110080028b9e8","4r215y","KW","29","F","{""name"":""Chrome"",""chrome"":true,""version"":""105.0"",""blink"":true,""windows"":true,""osname"":""Windows"",""osversion"":""10"",""a"":true}","9:17:23","1","3","Test_3","70","f","1","645.6999998092651","1536 x 864","1536 x 864","true","1","10","","","","",""
"null","<p style=""font-size: 80px;"">+ 10 points</p>","null","html-keyboard-response","135","798713","0.0-11.0-2.134","5e960dc166e110080028b9e8","4r215y","KW","29","F","{""name"":""Chrome"",""chrome"":true,""version"":""105.0"",""blink"":true,""windows"":true,""osname"":""Windows"",""osversion"":""10"",""a"":true}","9:17:23","1","3","Test_1","70","f","1","587.3000001907349","1536 x 864","1536 x 864","true","1","10","","","","",""
"null","<p style=""font-size: 80px;"">+ 10 points</p>","null","html-keyboard-response","136","801230","0.0-11.0-2.135","5e960dc166e110080028b9e8","4r215y","KW","29","F","{""name"":""Chrome"",""chrome"":true,""version"":""105.0"",""blink"":true,""windows"":true,""osname"":""Windows"",""osversion"":""10"",""a"":true}","9:17:23","1","3","Test_3","70","f","1","497.7999999523163","1536 x 864","1536 x 864","true","1","10","","","","",""
"null","<p style=""font-size: 80px;"">+ 10 points</p>","null","html-keyboard-response","137","803998","0.0-11.0-2.136","5e960dc166e110080028b9e8","4r215y","KW","29","F","{""name"":""Chrome"",""chrome"":true,""version"":""105.0"",""blink"":true,""windows"":true,""osname"":""Windows"",""osversion"":""10"",""a"":true}","9:17:23","1","3","Test_2","74","j","1","739.8999998569489","1536 x 864","1536 x 864","true","1","10","","","","",""
"null","<p style=""font-size: 80px;"">+ 10 points</p>","null","html-keyboard-response","138","806532","0.0-11.0-2.137","5e960dc166e110080028b9e8","4r215y","KW","29","F","{""name"":""Chrome"",""chrome"":true,""version"":""105.0"",""blink"":true,""windows"":true,""osname"":""Windows"",""osversion"":""10"",""a"":true}","9:17:23","1","3","Test_1","70","f","1","507","1536 x 864","1536 x 864","true","1","10","","","","",""
"null","<p style=""font-size: 80px;"">+ 0 points</p>","null","html-keyboard-response","139","809149","0.0-11.0-2.138","5e960dc166e110080028b9e8","4r215y","KW","29","F","{""name"":""Chrome"",""chrome"":true,""version"":""105.0"",""blink"":true,""windows"":true,""osname"":""Windows"",""osversion"":""10"",""a"":true}","9:17:23","1","4","Test_2","74","f","0","608.3999998569489","1536 x 864","1536 x 864","true","1","0","","","","",""
"null","<p style=""font-size: 80px;"">+ 10 points</p>","null","html-keyboard-response","140","812252","0.0-11.0-2.139","5e960dc166e110080028b9e8","4r215y","KW","29","F","{""name"":""Chrome"",""chrome"":true,""version"":""105.0"",""blink"":true,""windows"":true,""osname"":""Windows"",""osversion"":""10"",""a"":true}","9:17:23","1","4","Test_1","74","j","1","1090.7999999523163","1536 x 864","1536 x 864","true","1","10","","","","",""
"null","<p style=""font-size: 80px;"">+ 10 points</p>","null","html-keyboard-response","141","815020","0.0-11.0-2.140","5e960dc166e110080028b9e8","4r215y","KW","29","F","{""name"":""Chrome"",""chrome"":true,""version"":""105.0"",""blink"":true,""windows"":true,""osname"":""Windows"",""osversion"":""10"",""a"":true}","9:17:23","1","4","Test_1","74","j","1","739.2999999523163","1536 x 864","1536 x 864","true","1","10","","","","",""
"null","<p style=""font-size: 80px;"">+ 10 points</p>","null","html-keyboard-response","142","817771","0.0-11.0-2.141","5e960dc166e110080028b9e8","4r215y","KW","29","F","{""name"":""Chrome"",""chrome"":true,""version"":""105.0"",""blink"":true,""windows"":true,""osname"":""Windows"",""osversion"":""10"",""a"":true}","9:17:23","1","4","Test_3","74","j","1","746.6000001430511","1536 x 864","1536 x 864","true","1","10","","","","",""
"null","<p style=""font-size: 80px;"">+ 10 points</p>","null","html-keyboard-response","143","820705","0.0-11.0-2.142","5e960dc166e110080028b9e8","4r215y","KW","29","F","{""name"":""Chrome"",""chrome"":true,""version"":""105.0"",""blink"":true,""windows"":true,""osname"":""Windows"",""osversion"":""10"",""a"":true}","9:17:23","1","4","Test_2","70","f","1","904.7000000476837","1536 x 864","1536 x 864","true","1","10","","","","",""
"null","<p style=""font-size: 80px;"">+ 10 points</p>","null","html-keyboard-response","144","823806","0.0-11.0-2.143","5e960dc166e110080028b9e8","4r215y","KW","29","F","{""name"":""Chrome"",""chrome"":true,""version"":""105.0"",""blink"":true,""windows"":true,""osname"":""Windows"",""osversion"":""10"",""a"":true}","9:17:23","1","4","Test_4","70","f","1","1087.5","1536 x 864","1536 x 864","true","1","10","","","","",""
"null","<p style=""font-size: 80px;"">+ 10 points</p>","null","html-keyboard-response","145","826442","0.0-11.0-2.144","5e960dc166e110080028b9e8","4r215y","KW","29","F","{""name"":""Chrome"",""chrome"":true,""version"":""105.0"",""blink"":true,""windows"":true,""osname"":""Windows"",""osversion"":""10"",""a"":true}","9:17:23","1","4","Test_2","70","f","1","604.9000000953674","1536 x 864","1536 x 864","true","1","10","","","","",""
"null","<p style=""font-size: 80px;"">+ 10 points</p>","null","html-keyboard-response","146","829243","0.0-11.0-2.145","5e960dc166e110080028b9e8","4r215y","KW","29","F","{""name"":""Chrome"",""chrome"":true,""version"":""105.0"",""blink"":true,""windows"":true,""osname"":""Windows"",""osversion"":""10"",""a"":true}","9:17:23","1","4","Test_2","70","f","1","781.2999999523163","1536 x 864","1536 x 864","true","1","10","","","","",""
"null","<p style=""font-size: 80px;"">+ 10 points</p>","null","html-keyboard-response","147","831925","0.0-11.0-2.146","5e960dc166e110080028b9e8","4r215y","KW","29","F","{""name"":""Chrome"",""chrome"":true,""version"":""105.0"",""blink"":true,""windows"":true,""osname"":""Windows"",""osversion"":""10"",""a"":true}","9:17:23","1","4","Test_4","70","f","1","659.7999999523163","1536 x 864","1536 x 864","true","1","10","","","","",""
"null","<p style=""font-size: 80px;"">+ 10 points</p>","null","html-keyboard-response","148","834712","0.0-11.0-2.147","5e960dc166e110080028b9e8","4r215y","KW","29","F","{""name"":""Chrome"",""chrome"":true,""version"":""105.0"",""blink"":true,""windows"":true,""osname"":""Windows"",""osversion"":""10"",""a"":true}","9:17:23","1","4","Test_4","70","f","1","778.1999998092651","1536 x 864","1536 x 864","true","1","10","","","","",""
"null","<p style=""font-size: 80px;"">+ 10 points</p>","null","html-keyboard-response","149","837411","0.0-11.0-2.148","5e960dc166e110080028b9e8","4r215y","KW","29","F","{""name"":""Chrome"",""chrome"":true,""version"":""105.0"",""blink"":true,""windows"":true,""osname"":""Windows"",""osversion"":""10"",""a"":true}","9:17:23","1","4","Test_3","74","j","1","665.9000000953674","1536 x 864","1536 x 864","true","1","10","","","","",""
"null","<p style=""font-size: 80px;"">+ 10 points</p>","null","html-keyboard-response","150","839847","0.0-11.0-2.149","5e960dc166e110080028b9e8","4r215y","KW","29","F","{""name"":""Chrome"",""chrome"":true,""version"":""105.0"",""blink"":true,""windows"":true,""osname"":""Windows"",""osversion"":""10"",""a"":true}","9:17:23","1","4","Test_3","74","j","1","428.10000014305115","1536 x 864","1536 x 864","true","1","10","","","","",""
"null","<p style=""font-size: 80px;"">+ 10 points</p>","null","html-keyboard-response","151","842547","0.0-11.0-2.150","5e960dc166e110080028b9e8","4r215y","KW","29","F","{""name"":""Chrome"",""chrome"":true,""version"":""105.0"",""blink"":true,""windows"":true,""osname"":""Windows"",""osversion"":""10"",""a"":true}","9:17:23","1","4","Test_4","70","f","1","668.7000000476837","1536 x 864","1536 x 864","true","1","10","","","","",""
"null","<p style=""font-size: 80px;"">+ 10 points</p>","null","html-keyboard-response","152","845432","0.0-11.0-2.151","5e960dc166e110080028b9e8","4r215y","KW","29","F","{""name"":""Chrome"",""chrome"":true,""version"":""105.0"",""blink"":true,""windows"":true,""osname"":""Windows"",""osversion"":""10"",""a"":true}","9:17:23","1","4","Test_4","70","f","1","871.7999999523163","1536 x 864","1536 x 864","true","1","10","","","","",""
"null","<p style=""font-size: 80px;"">+ 10 points</p>","null","html-keyboard-response","153","848424","0.0-11.0-2.152","5e960dc166e110080028b9e8","4r215y","KW","29","F","{""name"":""Chrome"",""chrome"":true,""version"":""105.0"",""blink"":true,""windows"":true,""osname"":""Windows"",""osversion"":""10"",""a"":true}","9:17:23","1","4","Test_1","74","j","1","977.7000000476837","1536 x 864","1536 x 864","true","1","10","","","","",""
"null","<p style=""font-size: 80px;"">+ 10 points</p>","null","html-keyboard-response","154","851442","0.0-11.0-2.153","5e960dc166e110080028b9e8","4r215y","KW","29","F","{""name"":""Chrome"",""chrome"":true,""version"":""105.0"",""blink"":true,""windows"":true,""osname"":""Windows"",""osversion"":""10"",""a"":true}","9:17:23","1","4","Test_3","74","j","1","998.4000000953674","1536 x 864","1536 x 864","true","1","10","","","","",""
"null","<p style=""font-size: 80px;"">+ 10 points</p>","null","html-keyboard-response","155","854225","0.0-11.0-2.154","5e960dc166e110080028b9e8","4r215y","KW","29","F","{""name"":""Chrome"",""chrome"":true,""version"":""105.0"",""blink"":true,""windows"":true,""osname"":""Windows"",""osversion"":""10"",""a"":true}","9:17:23","1","4","Test_2","70","f","1","753.6000001430511","1536 x 864","1536 x 864","true","1","10","","","","",""
"null","<p style=""font-size: 80px;"">+ 10 points</p>","null","html-keyboard-response","156","856843","0.0-11.0-2.155","5e960dc166e110080028b9e8","4r215y","KW","29","F","{""name"":""Chrome"",""chrome"":true,""version"":""105.0"",""blink"":true,""windows"":true,""osname"":""Windows"",""osversion"":""10"",""a"":true}","9:17:23","1","4","Test_4","70","f","1","600.2999999523163","1536 x 864","1536 x 864","true","1","10","","","","",""
"null","<p style=""font-size: 80px;"">+ 10 points</p>","null","html-keyboard-response","157","859344","0.0-11.0-2.156","5e960dc166e110080028b9e8","4r215y","KW","29","F","{""name"":""Chrome"",""chrome"":true,""version"":""105.0"",""blink"":true,""windows"":true,""osname"":""Windows"",""osversion"":""10"",""a"":true}","9:17:23","1","4","Test_1","74","j","1","484.90000009536743","1536 x 864","1536 x 864","true","1","10","","","","",""
"null","<p style=""font-size: 80px;"">+ 10 points</p>","null","html-keyboard-response","158","861944","0.0-11.0-2.157","5e960dc166e110080028b9e8","4r215y","KW","29","F","{""name"":""Chrome"",""chrome"":true,""version"":""105.0"",""blink"":true,""windows"":true,""osname"":""Windows"",""osversion"":""10"",""a"":true}","9:17:23","1","4","Test_3","74","j","1","591.9000000953674","1536 x 864","1536 x 864","true","1","10","","","","",""
"null","<p style=""font-size: 80px;"">+ 10 points</p>","null","html-keyboard-response","159","865080","0.0-11.0-2.158","5e960dc166e110080028b9e8","4r215y","KW","29","F","{""name"":""Chrome"",""chrome"":true,""version"":""105.0"",""blink"":true,""windows"":true,""osname"":""Windows"",""osversion"":""10"",""a"":true}","9:17:23","1","4","Test_2","70","f","1","1123.2000000476837","1536 x 864","1536 x 864","true","1","10","","","","",""
"null","<p style=""font-size: 80px;"">+ 10 points</p>","null","html-keyboard-response","160","867580","0.0-11.0-2.159","5e960dc166e110080028b9e8","4r215y","KW","29","F","{""name"":""Chrome"",""chrome"":true,""version"":""105.0"",""blink"":true,""windows"":true,""osname"":""Windows"",""osversion"":""10"",""a"":true}","9:17:23","1","4","Test_1","74","j","1","484.10000014305115","1536 x 864","1536 x 864","true","1","10","","","","",""
"null","<p style=""font-size: 80px;"">+ 0 points</p>","null","html-keyboard-response","161","870430","0.0-11.0-2.160","5e960dc166e110080028b9e8","4r215y","KW","29","F","{""name"":""Chrome"",""chrome"":true,""version"":""105.0"",""blink"":true,""windows"":true,""osname"":""Windows"",""osversion"":""10"",""a"":true}","9:17:23","1","3","Test_4","70","j","0","841.0999999046326","1536 x 864","1536 x 864","true","1","0","","","","",""
"null","<p style=""font-size: 80px;"">+ 10 points</p>","null","html-keyboard-response","162","873067","0.0-11.0-2.161","5e960dc166e110080028b9e8","4r215y","KW","29","F","{""name"":""Chrome"",""chrome"":true,""version"":""105.0"",""blink"":true,""windows"":true,""osname"":""Windows"",""osversion"":""10"",""a"":true}","9:17:23","1","3","Test_4","74","j","1","632.5","1536 x 864","1536 x 864","true","1","10","","","","",""
"null","<p style=""font-size: 80px;"">+ 10 points</p>","null","html-keyboard-response","163","875785","0.0-11.0-2.162","5e960dc166e110080028b9e8","4r215y","KW","29","F","{""name"":""Chrome"",""chrome"":true,""version"":""105.0"",""blink"":true,""windows"":true,""osname"":""Windows"",""osversion"":""10"",""a"":true}","9:17:23","1","3","Test_2","74","j","1","699.7000000476837","1536 x 864","1536 x 864","true","1","10","","","","",""
"null","<p style=""font-size: 80px;"">+ 10 points</p>","null","html-keyboard-response","164","878386","0.0-11.0-2.163","5e960dc166e110080028b9e8","4r215y","KW","29","F","{""name"":""Chrome"",""chrome"":true,""version"":""105.0"",""blink"":true,""windows"":true,""osname"":""Windows"",""osversion"":""10"",""a"":true}","9:17:23","1","3","Test_1","70","f","1","581.7000000476837","1536 x 864","1536 x 864","true","1","10","","","","",""
"null","<p style=""font-size: 80px;"">+ 10 points</p>","null","html-keyboard-response","165","881003","0.0-11.0-2.164","5e960dc166e110080028b9e8","4r215y","KW","29","F","{""name"":""Chrome"",""chrome"":true,""version"":""105.0"",""blink"":true,""windows"":true,""osname"":""Windows"",""osversion"":""10"",""a"":true}","9:17:23","1","3","Test_3","70","f","1","597.7000000476837","1536 x 864","1536 x 864","true","1","10","","","","",""
"null","<p style=""font-size: 80px;"">+ 10 points</p>","null","html-keyboard-response","166","883753","0.0-11.0-2.165","5e960dc166e110080028b9e8","4r215y","KW","29","F","{""name"":""Chrome"",""chrome"":true,""version"":""105.0"",""blink"":true,""windows"":true,""osname"":""Windows"",""osversion"":""10"",""a"":true}","9:17:23","1","3","Test_4","74","j","1","720","1536 x 864","1536 x 864","true","1","10","","","","",""
"null","<p style=""font-size: 80px;"">+ 10 points</p>","null","html-keyboard-response","167","886287","0.0-11.0-2.166","5e960dc166e110080028b9e8","4r215y","KW","29","F","{""name"":""Chrome"",""chrome"":true,""version"":""105.0"",""blink"":true,""windows"":true,""osname"":""Windows"",""osversion"":""10"",""a"":true}","9:17:23","1","3","Test_3","70","f","1","503","1536 x 864","1536 x 864","true","1","10","","","","",""
"null","<p style=""font-size: 80px;"">+ 10 points</p>","null","html-keyboard-response","168","888944","0.0-11.0-2.167","5e960dc166e110080028b9e8","4r215y","KW","29","F","{""name"":""Chrome"",""chrome"":true,""version"":""105.0"",""blink"":true,""windows"":true,""osname"":""Windows"",""osversion"":""10"",""a"":true}","9:17:23","1","3","Test_1","70","f","1","638.5","1536 x 864","1536 x 864","true","1","10","","","","",""
"null","<p style=""font-size: 80px;"">+ 10 points</p>","null","html-keyboard-response","169","891623","0.0-11.0-2.168","5e960dc166e110080028b9e8","4r215y","KW","29","F","{""name"":""Chrome"",""chrome"":true,""version"":""105.0"",""blink"":true,""windows"":true,""osname"":""Windows"",""osversion"":""10"",""a"":true}","9:17:23","1","3","Test_2","74","j","1","643.2999999523163","1536 x 864","1536 x 864","true","1","10","","","","",""
"null","<p style=""font-size: 80px;"">+ 10 points</p>","null","html-keyboard-response","170","894473","0.0-11.0-2.169","5e960dc166e110080028b9e8","4r215y","KW","29","F","{""name"":""Chrome"",""chrome"":true,""version"":""105.0"",""blink"":true,""windows"":true,""osname"":""Windows"",""osversion"":""10"",""a"":true}","9:17:23","1","3","Test_2","74","j","1","827.3999998569489","1536 x 864","1536 x 864","true","1","10","","","","",""
"null","<p style=""font-size: 80px;"">+ 10 points</p>","null","html-keyboard-response","171","897142","0.0-11.0-2.170","5e960dc166e110080028b9e8","4r215y","KW","29","F","{""name"":""Chrome"",""chrome"":true,""version"":""105.0"",""blink"":true,""windows"":true,""osname"":""Windows"",""osversion"":""10"",""a"":true}","9:17:23","1","3","Test_1","70","f","1","654.0999999046326","1536 x 864","1536 x 864","true","1","10","","","","",""
"null","<p style=""font-size: 80px;"">+ 10 points</p>","null","html-keyboard-response","172","900142","0.0-11.0-2.171","5e960dc166e110080028b9e8","4r215y","KW","29","F","{""name"":""Chrome"",""chrome"":true,""version"":""105.0"",""blink"":true,""windows"":true,""osname"":""Windows"",""osversion"":""10"",""a"":true}","9:17:23","1","3","Test_4","74","j","1","990.5999999046326","1536 x 864","1536 x 864","true","1","10","","","","",""
"null","<p style=""font-size: 80px;"">+ 10 points</p>","null","html-keyboard-response","173","902825","0.0-11.0-2.172","5e960dc166e110080028b9e8","4r215y","KW","29","F","{""name"":""Chrome"",""chrome"":true,""version"":""105.0"",""blink"":true,""windows"":true,""osname"":""Windows"",""osversion"":""10"",""a"":true}","9:17:23","1","3","Test_1","70","f","1","674.9000000953674","1536 x 864","1536 x 864","true","1","10","","","","",""
"null","<p style=""font-size: 80px;"">+ 10 points</p>","null","html-keyboard-response","174","905379","0.0-11.0-2.173","5e960dc166e110080028b9e8","4r215y","KW","29","F","{""name"":""Chrome"",""chrome"":true,""version"":""105.0"",""blink"":true,""windows"":true,""osname"":""Windows"",""osversion"":""10"",""a"":true}","9:17:23","1","3","Test_3","70","f","1","543.8000001907349","1536 x 864","1536 x 864","true","1","10","","","","",""
"null","<p style=""font-size: 80px;"">+ 10 points</p>","null","html-keyboard-response","175","907988","0.0-11.0-2.174","5e960dc166e110080028b9e8","4r215y","KW","29","F","{""name"":""Chrome"",""chrome"":true,""version"":""105.0"",""blink"":true,""windows"":true,""osname"":""Windows"",""osversion"":""10"",""a"":true}","9:17:23","1","3","Test_2","74","j","1","569.0999999046326","1536 x 864","1536 x 864","true","1","10","","","","",""
"null","<p style=""font-size: 80px;"">+ 10 points</p>","null","html-keyboard-response","176","910572","0.0-11.0-2.175","5e960dc166e110080028b9e8","4r215y","KW","29","F","{""name"":""Chrome"",""chrome"":true,""version"":""105.0"",""blink"":true,""windows"":true,""osname"":""Windows"",""osversion"":""10"",""a"":true}","9:17:23","1","3","Test_3","70","f","1","552.2999999523163","1536 x 864","1536 x 864","true","1","10","","","","",""
"null","<p style=""font-size: 80px;"">+ 0 points</p>","null","html-keyboard-response","177","913307","0.0-11.0-2.176","5e960dc166e110080028b9e8","4r215y","KW","29","F","{""name"":""Chrome"",""chrome"":true,""version"":""105.0"",""blink"":true,""windows"":true,""osname"":""Windows"",""osversion"":""10"",""a"":true}","9:17:23","1","4","Test_3","70","j","0","709","1536 x 864","1536 x 864","true","1","0","","","","",""
"null","<p style=""font-size: 80px;"">+ 10 points</p>","null","html-keyboard-response","178","916075","0.0-11.0-2.177","5e960dc166e110080028b9e8","4r215y","KW","29","F","{""name"":""Chrome"",""chrome"":true,""version"":""105.0"",""blink"":true,""windows"":true,""osname"":""Windows"",""osversion"":""10"",""a"":true}","9:17:23","1","4","Test_2","70","f","1","747.5","1536 x 864","1536 x 864","true","1","10","","","","",""
"null","<p style=""font-size: 80px;"">+ 10 points</p>","null","html-keyboard-response","179","918875","0.0-11.0-2.178","5e960dc166e110080028b9e8","4r215y","KW","29","F","{""name"":""Chrome"",""chrome"":true,""version"":""105.0"",""blink"":true,""windows"":true,""osname"":""Windows"",""osversion"":""10"",""a"":true}","9:17:23","1","4","Test_3","74","j","1","774.1000001430511","1536 x 864","1536 x 864","true","1","10","","","","",""
"null","<p style=""font-size: 80px;"">+ 10 points</p>","null","html-keyboard-response","180","921443","0.0-11.0-2.179","5e960dc166e110080028b9e8","4r215y","KW","29","F","{""name"":""Chrome"",""chrome"":true,""version"":""105.0"",""blink"":true,""windows"":true,""osname"":""Windows"",""osversion"":""10"",""a"":true}","9:17:23","1","4","Test_4","70","f","1","546.7000000476837","1536 x 864","1536 x 864","true","1","10","","","","",""
"null","<p style=""font-size: 80px;"">+ 10 points</p>","null","html-keyboard-response","181","924212","0.0-11.0-2.180","5e960dc166e110080028b9e8","4r215y","KW","29","F","{""name"":""Chrome"",""chrome"":true,""version"":""105.0"",""blink"":true,""windows"":true,""osname"":""Windows"",""osversion"":""10"",""a"":true}","9:17:23","1","4","Test_1","74","j","1","749.4000000953674","1536 x 864","1536 x 864","true","1","10","","","","",""
"null","<p style=""font-size: 80px;"">+ 10 points</p>","null","html-keyboard-response","182","926962","0.0-11.0-2.181","5e960dc166e110080028b9e8","4r215y","KW","29","F","{""name"":""Chrome"",""chrome"":true,""version"":""105.0"",""blink"":true,""windows"":true,""osname"":""Windows"",""osversion"":""10"",""a"":true}","9:17:23","1","4","Test_2","70","f","1","720.0999999046326","1536 x 864","1536 x 864","true","1","10","","","","",""
"null","<p style=""font-size: 80px;"">+ 10 points</p>","null","html-keyboard-response","183","929797","0.0-11.0-2.182","5e960dc166e110080028b9e8","4r215y","KW","29","F","{""name"":""Chrome"",""chrome"":true,""version"":""105.0"",""blink"":true,""windows"":true,""osname"":""Windows"",""osversion"":""10"",""a"":true}","9:17:23","1","4","Test_4","70","f","1","826.5999999046326","1536 x 864","1536 x 864","true","1","10","","","","",""
"null","<p style=""font-size: 80px;"">+ 10 points</p>","null","html-keyboard-response","184","932398","0.0-11.0-2.183","5e960dc166e110080028b9e8","4r215y","KW","29","F","{""name"":""Chrome"",""chrome"":true,""version"":""105.0"",""blink"":true,""windows"":true,""osname"":""Windows"",""osversion"":""10"",""a"":true}","9:17:23","1","4","Test_4","70","f","1","567","1536 x 864","1536 x 864","true","1","10","","","","",""
"null","<p style=""font-size: 80px;"">+ 10 points</p>","null","html-keyboard-response","185","935193","0.0-11.0-2.184","5e960dc166e110080028b9e8","4r215y","KW","29","F","{""name"":""Chrome"",""chrome"":true,""version"":""105.0"",""blink"":true,""windows"":true,""osname"":""Windows"",""osversion"":""10"",""a"":true}","9:17:23","1","4","Test_1","74","j","1","763.8999998569489","1536 x 864","1536 x 864","true","1","10","","","","",""
"null","<p style=""font-size: 80px;"">+ 10 points</p>","null","html-keyboard-response","186","937851","0.0-11.0-2.185","5e960dc166e110080028b9e8","4r215y","KW","29","F","{""name"":""Chrome"",""chrome"":true,""version"":""105.0"",""blink"":true,""windows"":true,""osname"":""Windows"",""osversion"":""10"",""a"":true}","9:17:23","1","4","Test_1","74","j","1","649.2999999523163","1536 x 864","1536 x 864","true","1","10","","","","",""
"null","<p style=""font-size: 80px;"">+ 10 points</p>","null","html-keyboard-response","187","940634","0.0-11.0-2.186","5e960dc166e110080028b9e8","4r215y","KW","29","F","{""name"":""Chrome"",""chrome"":true,""version"":""105.0"",""blink"":true,""windows"":true,""osname"":""Windows"",""osversion"":""10"",""a"":true}","9:17:23","1","4","Test_3","74","j","1","749.3000001907349","1536 x 864","1536 x 864","true","1","10","","","","",""
"null","<p style=""font-size: 80px;"">+ 10 points</p>","null","html-keyboard-response","188","943353","0.0-11.0-2.187","5e960dc166e110080028b9e8","4r215y","KW","29","F","{""name"":""Chrome"",""chrome"":true,""version"":""105.0"",""blink"":true,""windows"":true,""osname"":""Windows"",""osversion"":""10"",""a"":true}","9:17:23","1","4","Test_3","74","j","1","700.4000000953674","1536 x 864","1536 x 864","true","1","10","","","","",""
"null","<p style=""font-size: 80px;"">+ 10 points</p>","null","html-keyboard-response","189","946153","0.0-11.0-2.188","5e960dc166e110080028b9e8","4r215y","KW","29","F","{""name"":""Chrome"",""chrome"":true,""version"":""105.0"",""blink"":true,""windows"":true,""osname"":""Windows"",""osversion"":""10"",""a"":true}","9:17:23","1","4","Test_1","74","j","1","779.8999998569489","1536 x 864","1536 x 864","true","1","10","","","","",""
