"rt","stimulus","key_press","trial_type","trial_index","time_elapsed","internal_node_id","Prolific_ID","random_ID","initials","age","gender","pc_info","start_time","Phase","Rule","Stimulus","Response","CorrResp","Accuracy","ResponseTime","screen_resolution","window_resolution","focus","relevant","Points","responses","question_order","rev_check","butterfly_check","passed_practice"
"null","<p style=""font-size: 80px;"">+ 0 points</p>","null","html-keyboard-response","1","94934","0.0-7.0-2.0","6062edb8e4285e2902380669","mh4bgn","H W","35","F","{""name"":""Chrome"",""chrome"":true,""version"":""105.0"",""blink"":true,""mac"":true,""osname"":""macOS"",""osversion"":""10.15.7"",""a"":true}","9:19:48","0","1","Practice_4","70","j","0","1099.300000011921","1440 x 900","1440 x 900","true","1","0","","","","",""
"null","<p style=""font-size: 80px;"">+ 10 points</p>","null","html-keyboard-response","2","98219","0.0-7.0-2.1","6062edb8e4285e2902380669","mh4bgn","H W","35","F","{""name"":""Chrome"",""chrome"":true,""version"":""105.0"",""blink"":true,""mac"":true,""osname"":""macOS"",""osversion"":""10.15.7"",""a"":true}","9:19:48","0","1","Practice_3","70","f","1","1274.5999999940395","1440 x 900","1440 x 900","true","1","10","","","","",""
"null","<p style=""font-size: 80px;"">+ 10 points</p>","null","html-keyboard-response","3","101588","0.0-7.0-2.2","6062edb8e4285e2902380669","mh4bgn","H W","35","F","{""name"":""Chrome"",""chrome"":true,""version"":""105.0"",""blink"":true,""mac"":true,""osname"":""macOS"",""osversion"":""10.15.7"",""a"":true}","9:19:48","0","1","Practice_1","70","f","1","1360.5","1440 x 900","1440 x 900","true","1","10","","","","",""
"null","<p style=""font-size: 80px;"">+ 10 points</p>","null","html-keyboard-response","4","104744","0.0-7.0-2.3","6062edb8e4285e2902380669","mh4bgn","H W","35","F","{""name"":""Chrome"",""chrome"":true,""version"":""105.0"",""blink"":true,""mac"":true,""osname"":""macOS"",""osversion"":""10.15.7"",""a"":true}","9:19:48","0","1","Practice_1","70","f","1","1148.2999999821186","1440 x 900","1440 x 900","true","1","10","","","","",""
"null","<p style=""font-size: 80px;"">+ 10 points</p>","null","html-keyboard-response","5","107757","0.0-7.0-2.4","6062edb8e4285e2902380669","mh4bgn","H W","35","F","{""name"":""Chrome"",""chrome"":true,""version"":""105.0"",""blink"":true,""mac"":true,""osname"":""macOS"",""osversion"":""10.15.7"",""a"":true}","9:19:48","0","1","Practice_1","70","f","1","1004.9000000059605","1440 x 900","1440 x 900","true","1","10","","","","",""
"null","<p style=""font-size: 80px;"">+ 10 points</p>","null","html-keyboard-response","6","112882","0.0-7.0-2.5","6062edb8e4285e2902380669","mh4bgn","H W","35","F","{""name"":""Chrome"",""chrome"":true,""version"":""105.0"",""blink"":true,""mac"":true,""osname"":""macOS"",""osversion"":""10.15.7"",""a"":true}","9:19:48","0","1","Practice_4","74","j","1","3118.5999999940395","1440 x 900","1440 x 900","true","1","10","","","","",""
"null","<p style=""font-size: 80px;"">+ 10 points</p>","null","html-keyboard-response","7","116380","0.0-7.0-2.6","6062edb8e4285e2902380669","mh4bgn","H W","35","F","{""name"":""Chrome"",""chrome"":true,""version"":""105.0"",""blink"":true,""mac"":true,""osname"":""macOS"",""osversion"":""10.15.7"",""a"":true}","9:19:48","0","1","Practice_3","70","f","1","1489.5","1440 x 900","1440 x 900","true","1","10","","","","",""
"null","<p style=""font-size: 80px;"">+ 10 points</p>","null","html-keyboard-response","8","119585","0.0-7.0-2.7","6062edb8e4285e2902380669","mh4bgn","H W","35","F","{""name"":""Chrome"",""chrome"":true,""version"":""105.0"",""blink"":true,""mac"":true,""osname"":""macOS"",""osversion"":""10.15.7"",""a"":true}","9:19:48","0","1","Practice_1","70","f","1","1196.2999999821186","1440 x 900","1440 x 900","true","1","10","","","","",""
"null","<p style=""font-size: 80px;"">+ 10 points</p>","null","html-keyboard-response","9","122692","0.0-7.0-2.8","6062edb8e4285e2902380669","mh4bgn","H W","35","F","{""name"":""Chrome"",""chrome"":true,""version"":""105.0"",""blink"":true,""mac"":true,""osname"":""macOS"",""osversion"":""10.15.7"",""a"":true}","9:19:48","0","1","Practice_3","70","f","1","1099.4000000059605","1440 x 900","1440 x 900","true","1","10","","","","",""
"null","<p style=""font-size: 80px;"">+ 10 points</p>","null","html-keyboard-response","10","127217","0.0-7.0-2.9","6062edb8e4285e2902380669","mh4bgn","H W","35","F","{""name"":""Chrome"",""chrome"":true,""version"":""105.0"",""blink"":true,""mac"":true,""osname"":""macOS"",""osversion"":""10.15.7"",""a"":true}","9:19:48","0","1","Practice_2","74","j","1","2513.4000000059605","1440 x 900","1440 x 900","true","1","10","","","","",""
"null","<p style=""font-size: 80px;"">+ 10 points</p>","null","html-keyboard-response","11","130242","0.0-7.0-2.10","6062edb8e4285e2902380669","mh4bgn","H W","35","F","{""name"":""Chrome"",""chrome"":true,""version"":""105.0"",""blink"":true,""mac"":true,""osname"":""macOS"",""osversion"":""10.15.7"",""a"":true}","9:19:48","0","1","Practice_2","74","j","1","1019.2000000178814","1440 x 900","1440 x 900","true","1","10","","","","",""
"null","<p style=""font-size: 80px;"">+ 10 points</p>","null","html-keyboard-response","12","133245","0.0-7.0-2.11","6062edb8e4285e2902380669","mh4bgn","H W","35","F","{""name"":""Chrome"",""chrome"":true,""version"":""105.0"",""blink"":true,""mac"":true,""osname"":""macOS"",""osversion"":""10.15.7"",""a"":true}","9:19:48","0","1","Practice_1","70","f","1","997.7999999821186","1440 x 900","1440 x 900","true","1","10","","","","",""
"null","<p style=""font-size: 80px;"">+ 10 points</p>","null","html-keyboard-response","13","136803","0.0-7.0-2.12","6062edb8e4285e2902380669","mh4bgn","H W","35","F","{""name"":""Chrome"",""chrome"":true,""version"":""105.0"",""blink"":true,""mac"":true,""osname"":""macOS"",""osversion"":""10.15.7"",""a"":true}","9:19:48","0","1","Practice_3","70","f","1","1552.6000000238419","1440 x 900","1440 x 900","true","1","10","","","","",""
"null","<p style=""font-size: 80px;"">+ 10 points</p>","null","html-keyboard-response","14","139756","0.0-7.0-2.13","6062edb8e4285e2902380669","mh4bgn","H W","35","F","{""name"":""Chrome"",""chrome"":true,""version"":""105.0"",""blink"":true,""mac"":true,""osname"":""macOS"",""osversion"":""10.15.7"",""a"":true}","9:19:48","0","1","Practice_4","74","j","1","944.6000000238419","1440 x 900","1440 x 900","true","1","10","","","","",""
"null","<p style=""font-size: 80px;"">+ 10 points</p>","null","html-keyboard-response","15","143071","0.0-7.0-2.14","6062edb8e4285e2902380669","mh4bgn","H W","35","F","{""name"":""Chrome"",""chrome"":true,""version"":""105.0"",""blink"":true,""mac"":true,""osname"":""macOS"",""osversion"":""10.15.7"",""a"":true}","9:19:48","0","1","Practice_2","74","j","1","1308.5999999940395","1440 x 900","1440 x 900","true","1","10","","","","",""
"null","<p style=""font-size: 80px;"">+ 10 points</p>","null","html-keyboard-response","16","146070","0.0-7.0-2.15","6062edb8e4285e2902380669","mh4bgn","H W","35","F","{""name"":""Chrome"",""chrome"":true,""version"":""105.0"",""blink"":true,""mac"":true,""osname"":""macOS"",""osversion"":""10.15.7"",""a"":true}","9:19:48","0","1","Practice_3","70","f","1","987.5999999940395","1440 x 900","1440 x 900","true","1","10","","","","",""
"null","<p style=""font-size: 80px;"">+ 10 points</p>","null","html-keyboard-response","17","148925","0.0-7.0-2.16","6062edb8e4285e2902380669","mh4bgn","H W","35","F","{""name"":""Chrome"",""chrome"":true,""version"":""105.0"",""blink"":true,""mac"":true,""osname"":""macOS"",""osversion"":""10.15.7"",""a"":true}","9:19:48","0","1","Practice_4","74","j","1","845.6000000238419","1440 x 900","1440 x 900","true","1","10","","","","",""
"null","<p style=""font-size: 80px;"">+ 10 points</p>","null","html-keyboard-response","18","152317","0.0-7.0-2.17","6062edb8e4285e2902380669","mh4bgn","H W","35","F","{""name"":""Chrome"",""chrome"":true,""version"":""105.0"",""blink"":true,""mac"":true,""osname"":""macOS"",""osversion"":""10.15.7"",""a"":true}","9:19:48","0","1","Practice_2","74","j","1","1382.9000000059605","1440 x 900","1440 x 900","true","1","10","","","","",""
"null","<p style=""font-size: 80px;"">+ 10 points</p>","null","html-keyboard-response","19","155602","0.0-7.0-2.18","6062edb8e4285e2902380669","mh4bgn","H W","35","F","{""name"":""Chrome"",""chrome"":true,""version"":""105.0"",""blink"":true,""mac"":true,""osname"":""macOS"",""osversion"":""10.15.7"",""a"":true}","9:19:48","0","1","Practice_2","74","j","1","1278.7999999821186","1440 x 900","1440 x 900","true","1","10","","","","",""
"null","<p style=""font-size: 80px;"">+ 10 points</p>","null","html-keyboard-response","20","159051","0.0-7.0-2.19","6062edb8e4285e2902380669","mh4bgn","H W","35","F","{""name"":""Chrome"",""chrome"":true,""version"":""105.0"",""blink"":true,""mac"":true,""osname"":""macOS"",""osversion"":""10.15.7"",""a"":true}","9:19:48","0","1","Practice_4","74","j","1","1440.9000000059605","1440 x 900","1440 x 900","true","1","10","","","","",""
"null","<p style=""font-size: 80px;"">+ 0 points</p>","null","html-keyboard-response","21","161882","0.0-7.0-2.20","6062edb8e4285e2902380669","mh4bgn","H W","35","F","{""name"":""Chrome"",""chrome"":true,""version"":""105.0"",""blink"":true,""mac"":true,""osname"":""macOS"",""osversion"":""10.15.7"",""a"":true}","9:19:48","0","2","Practice_2","74","f","0","824.5","1440 x 900","1440 x 900","true","1","0","","","","",""
"null","<p style=""font-size: 80px;"">+ 0 points</p>","null","html-keyboard-response","22","165805","0.0-7.0-2.21","6062edb8e4285e2902380669","mh4bgn","H W","35","F","{""name"":""Chrome"",""chrome"":true,""version"":""105.0"",""blink"":true,""mac"":true,""osname"":""macOS"",""osversion"":""10.15.7"",""a"":true}","9:19:48","0","2","Practice_4","74","f","0","1910.6000000238419","1440 x 900","1440 x 900","true","1","0","","","","",""
"null","<p style=""font-size: 80px;"">+ 10 points</p>","null","html-keyboard-response","23","169291","0.0-7.0-2.22","6062edb8e4285e2902380669","mh4bgn","H W","35","F","{""name"":""Chrome"",""chrome"":true,""version"":""105.0"",""blink"":true,""mac"":true,""osname"":""macOS"",""osversion"":""10.15.7"",""a"":true}","9:19:48","0","2","Practice_2","70","f","1","1475.5","1440 x 900","1440 x 900","true","1","10","","","","",""
"null","<p style=""font-size: 80px;"">+ 10 points</p>","null","html-keyboard-response","24","172577","0.0-7.0-2.23","6062edb8e4285e2902380669","mh4bgn","H W","35","F","{""name"":""Chrome"",""chrome"":true,""version"":""105.0"",""blink"":true,""mac"":true,""osname"":""macOS"",""osversion"":""10.15.7"",""a"":true}","9:19:48","0","2","Practice_3","74","j","1","1274.5","1440 x 900","1440 x 900","true","1","10","","","","",""
"null","<p style=""font-size: 80px;"">+ 10 points</p>","null","html-keyboard-response","25","176000","0.0-7.0-2.24","6062edb8e4285e2902380669","mh4bgn","H W","35","F","{""name"":""Chrome"",""chrome"":true,""version"":""105.0"",""blink"":true,""mac"":true,""osname"":""macOS"",""osversion"":""10.15.7"",""a"":true}","9:19:48","0","2","Practice_2","70","f","1","1412.4000000059605","1440 x 900","1440 x 900","true","1","10","","","","",""
"null","<p style=""font-size: 80px;"">+ 10 points</p>","null","html-keyboard-response","26","178859","0.0-7.0-2.25","6062edb8e4285e2902380669","mh4bgn","H W","35","F","{""name"":""Chrome"",""chrome"":true,""version"":""105.0"",""blink"":true,""mac"":true,""osname"":""macOS"",""osversion"":""10.15.7"",""a"":true}","9:19:48","0","2","Practice_2","70","f","1","853","1440 x 900","1440 x 900","true","1","10","","","","",""
"null","<p style=""font-size: 80px;"">+ 10 points</p>","null","html-keyboard-response","27","182912","0.0-7.0-2.26","6062edb8e4285e2902380669","mh4bgn","H W","35","F","{""name"":""Chrome"",""chrome"":true,""version"":""105.0"",""blink"":true,""mac"":true,""osname"":""macOS"",""osversion"":""10.15.7"",""a"":true}","9:19:48","0","2","Practice_1","74","j","1","2043.9000000059605","1440 x 900","1440 x 900","true","1","10","","","","",""
"null","<p style=""font-size: 80px;"">+ 10 points</p>","null","html-keyboard-response","28","185933","0.0-7.0-2.27","6062edb8e4285e2902380669","mh4bgn","H W","35","F","{""name"":""Chrome"",""chrome"":true,""version"":""105.0"",""blink"":true,""mac"":true,""osname"":""macOS"",""osversion"":""10.15.7"",""a"":true}","9:19:48","0","2","Practice_4","70","f","1","1011.9000000059605","1440 x 900","1440 x 900","true","1","10","","","","",""
"null","<p style=""font-size: 80px;"">+ 10 points</p>","null","html-keyboard-response","29","190304","0.0-7.0-2.28","6062edb8e4285e2902380669","mh4bgn","H W","35","F","{""name"":""Chrome"",""chrome"":true,""version"":""105.0"",""blink"":true,""mac"":true,""osname"":""macOS"",""osversion"":""10.15.7"",""a"":true}","9:19:48","0","2","Practice_1","74","j","1","2367.4000000059605","1440 x 900","1440 x 900","true","1","10","","","","",""
"null","<p style=""font-size: 80px;"">+ 10 points</p>","null","html-keyboard-response","30","193147","0.0-7.0-2.29","6062edb8e4285e2902380669","mh4bgn","H W","35","F","{""name"":""Chrome"",""chrome"":true,""version"":""105.0"",""blink"":true,""mac"":true,""osname"":""macOS"",""osversion"":""10.15.7"",""a"":true}","9:19:48","0","2","Practice_1","74","j","1","833","1440 x 900","1440 x 900","true","1","10","","","","",""
"null","<p style=""font-size: 80px;"">+ 10 points</p>","null","html-keyboard-response","31","196071","0.0-7.0-2.30","6062edb8e4285e2902380669","mh4bgn","H W","35","F","{""name"":""Chrome"",""chrome"":true,""version"":""105.0"",""blink"":true,""mac"":true,""osname"":""macOS"",""osversion"":""10.15.7"",""a"":true}","9:19:48","0","2","Practice_3","74","j","1","918.3000000119209","1440 x 900","1440 x 900","true","1","10","","","","",""
"null","<p style=""font-size: 80px; line-height: 1.4em;"">Too late</br> Speed up!</p>","null","html-keyboard-response","32","203082","0.0-7.0-2.31","6062edb8e4285e2902380669","mh4bgn","H W","35","F","{""name"":""Chrome"",""chrome"":true,""version"":""105.0"",""blink"":true,""mac"":true,""osname"":""macOS"",""osversion"":""10.15.7"",""a"":true}","9:19:48","0","2","Practice_3","null","j","0","null","1440 x 900","1440 x 900","true","1","0","","","","",""
"null","<p style=""font-size: 80px;"">+ 0 points</p>","null","html-keyboard-response","33","206109","0.0-7.0-2.32","6062edb8e4285e2902380669","mh4bgn","H W","35","F","{""name"":""Chrome"",""chrome"":true,""version"":""105.0"",""blink"":true,""mac"":true,""osname"":""macOS"",""osversion"":""10.15.7"",""a"":true}","9:19:48","0","2","Practice_2","74","f","0","1016.7999999821186","1440 x 900","1440 x 900","true","1","0","","","","",""
"null","<p style=""font-size: 80px;"">+ 10 points</p>","null","html-keyboard-response","34","209100","0.0-7.0-2.33","6062edb8e4285e2902380669","mh4bgn","H W","35","F","{""name"":""Chrome"",""chrome"":true,""version"":""105.0"",""blink"":true,""mac"":true,""osname"":""macOS"",""osversion"":""10.15.7"",""a"":true}","9:19:48","0","2","Practice_3","74","j","1","988.4000000059605","1440 x 900","1440 x 900","true","1","10","","","","",""
"null","<p style=""font-size: 80px;"">+ 10 points</p>","null","html-keyboard-response","35","212439","0.0-7.0-2.34","6062edb8e4285e2902380669","mh4bgn","H W","35","F","{""name"":""Chrome"",""chrome"":true,""version"":""105.0"",""blink"":true,""mac"":true,""osname"":""macOS"",""osversion"":""10.15.7"",""a"":true}","9:19:48","0","2","Practice_4","70","f","1","1332.5999999940395","1440 x 900","1440 x 900","true","1","10","","","","",""
"null","<p style=""font-size: 80px;"">+ 10 points</p>","null","html-keyboard-response","36","215169","0.0-7.0-2.35","6062edb8e4285e2902380669","mh4bgn","H W","35","F","{""name"":""Chrome"",""chrome"":true,""version"":""105.0"",""blink"":true,""mac"":true,""osname"":""macOS"",""osversion"":""10.15.7"",""a"":true}","9:19:48","0","2","Practice_1","74","j","1","723.0999999940395","1440 x 900","1440 x 900","true","1","10","","","","",""
"null","<p style=""font-size: 80px;"">+ 10 points</p>","null","html-keyboard-response","37","217926","0.0-7.0-2.36","6062edb8e4285e2902380669","mh4bgn","H W","35","F","{""name"":""Chrome"",""chrome"":true,""version"":""105.0"",""blink"":true,""mac"":true,""osname"":""macOS"",""osversion"":""10.15.7"",""a"":true}","9:19:48","0","2","Practice_4","70","f","1","754.0999999940395","1440 x 900","1440 x 900","true","1","10","","","","",""
"null","<p style=""font-size: 80px;"">+ 10 points</p>","null","html-keyboard-response","38","220550","0.0-7.0-2.37","6062edb8e4285e2902380669","mh4bgn","H W","35","F","{""name"":""Chrome"",""chrome"":true,""version"":""105.0"",""blink"":true,""mac"":true,""osname"":""macOS"",""osversion"":""10.15.7"",""a"":true}","9:19:48","0","2","Practice_4","70","f","1","619.1999999880791","1440 x 900","1440 x 900","true","1","10","","","","",""
"null","<p style=""font-size: 80px;"">+ 10 points</p>","null","html-keyboard-response","39","223496","0.0-7.0-2.38","6062edb8e4285e2902380669","mh4bgn","H W","35","F","{""name"":""Chrome"",""chrome"":true,""version"":""105.0"",""blink"":true,""mac"":true,""osname"":""macOS"",""osversion"":""10.15.7"",""a"":true}","9:19:48","0","2","Practice_3","74","j","1","939.5999999940395","1440 x 900","1440 x 900","true","1","10","","","","",""
"null","<p style=""font-size: 80px;"">+ 0 points</p>","null","html-keyboard-response","40","226297","0.0-7.0-2.39","6062edb8e4285e2902380669","mh4bgn","H W","35","F","{""name"":""Chrome"",""chrome"":true,""version"":""105.0"",""blink"":true,""mac"":true,""osname"":""macOS"",""osversion"":""10.15.7"",""a"":true}","9:19:48","0","2","Practice_1","70","j","0","793.8000000119209","1440 x 900","1440 x 900","true","1","0","","","","",""
"10777.800000011921","","","survey-multi-choice","127","237077","0.0-8.0","6062edb8e4285e2902380669","mh4bgn","H W","35","F","{""name"":""Chrome"",""chrome"":true,""version"":""105.0"",""blink"":true,""mac"":true,""osname"":""macOS"",""osversion"":""10.15.7"",""a"":true}","9:19:48","","","","","","","","","","","1","","{""Q0"":""The red one"",""Q1"":""1""}","[0,1]","1","The red one","2"
"null","<p style=""font-size: 80px;"">+ 0 points</p>","null","html-keyboard-response","1","255684","0.0-11.0-2.0","6062edb8e4285e2902380669","mh4bgn","H W","35","F","{""name"":""Chrome"",""chrome"":true,""version"":""105.0"",""blink"":true,""mac"":true,""osname"":""macOS"",""osversion"":""10.15.7"",""a"":true}","9:19:48","1","4","Test_4","74","f","0","1319.9000000059605","1440 x 900","1440 x 900","true","1","0","","","","",""
"null","<p style=""font-size: 80px;"">+ 0 points</p>","null","html-keyboard-response","2","259195","0.0-11.0-2.1","6062edb8e4285e2902380669","mh4bgn","H W","35","F","{""name"":""Chrome"",""chrome"":true,""version"":""105.0"",""blink"":true,""mac"":true,""osname"":""macOS"",""osversion"":""10.15.7"",""a"":true}","9:19:48","1","4","Test_2","74","f","0","1501.800000011921","1440 x 900","1440 x 900","true","1","0","","","","",""
"null","<p style=""font-size: 80px;"">+ 10 points</p>","null","html-keyboard-response","3","262016","0.0-11.0-2.2","6062edb8e4285e2902380669","mh4bgn","H W","35","F","{""name"":""Chrome"",""chrome"":true,""version"":""105.0"",""blink"":true,""mac"":true,""osname"":""macOS"",""osversion"":""10.15.7"",""a"":true}","9:19:48","1","4","Test_3","74","j","1","817.4000000059605","1440 x 900","1440 x 900","true","1","10","","","","",""
"null","<p style=""font-size: 80px;"">+ 10 points</p>","null","html-keyboard-response","4","265613","0.0-11.0-2.3","6062edb8e4285e2902380669","mh4bgn","H W","35","F","{""name"":""Chrome"",""chrome"":true,""version"":""105.0"",""blink"":true,""mac"":true,""osname"":""macOS"",""osversion"":""10.15.7"",""a"":true}","9:19:48","1","4","Test_1","74","j","1","1584.9000000059605","1440 x 900","1440 x 900","true","1","10","","","","",""
"null","<p style=""font-size: 80px;"">+ 10 points</p>","null","html-keyboard-response","5","268810","0.0-11.0-2.4","6062edb8e4285e2902380669","mh4bgn","H W","35","F","{""name"":""Chrome"",""chrome"":true,""version"":""105.0"",""blink"":true,""mac"":true,""osname"":""macOS"",""osversion"":""10.15.7"",""a"":true}","9:19:48","1","4","Test_4","70","f","1","1185.7999999821186","1440 x 900","1440 x 900","true","1","10","","","","",""
"null","<p style=""font-size: 80px;"">+ 10 points</p>","null","html-keyboard-response","6","271980","0.0-11.0-2.5","6062edb8e4285e2902380669","mh4bgn","H W","35","F","{""name"":""Chrome"",""chrome"":true,""version"":""105.0"",""blink"":true,""mac"":true,""osname"":""macOS"",""osversion"":""10.15.7"",""a"":true}","9:19:48","1","4","Test_2","70","f","1","1162.7000000178814","1440 x 900","1440 x 900","true","1","10","","","","",""
"null","<p style=""font-size: 80px;"">+ 10 points</p>","null","html-keyboard-response","7","275432","0.0-11.0-2.6","6062edb8e4285e2902380669","mh4bgn","H W","35","F","{""name"":""Chrome"",""chrome"":true,""version"":""105.0"",""blink"":true,""mac"":true,""osname"":""macOS"",""osversion"":""10.15.7"",""a"":true}","9:19:48","1","4","Test_1","74","j","1","1445","1440 x 900","1440 x 900","true","1","10","","","","",""
"null","<p style=""font-size: 80px;"">+ 10 points</p>","null","html-keyboard-response","8","278579","0.0-11.0-2.7","6062edb8e4285e2902380669","mh4bgn","H W","35","F","{""name"":""Chrome"",""chrome"":true,""version"":""105.0"",""blink"":true,""mac"":true,""osname"":""macOS"",""osversion"":""10.15.7"",""a"":true}","9:19:48","1","4","Test_3","74","j","1","1135","1440 x 900","1440 x 900","true","1","10","","","","",""
"null","<p style=""font-size: 80px;"">+ 10 points</p>","null","html-keyboard-response","9","281309","0.0-11.0-2.8","6062edb8e4285e2902380669","mh4bgn","H W","35","F","{""name"":""Chrome"",""chrome"":true,""version"":""105.0"",""blink"":true,""mac"":true,""osname"":""macOS"",""osversion"":""10.15.7"",""a"":true}","9:19:48","1","4","Test_3","74","j","1","724","1440 x 900","1440 x 900","true","1","10","","","","",""
"null","<p style=""font-size: 80px;"">+ 10 points</p>","null","html-keyboard-response","10","284026","0.0-11.0-2.9","6062edb8e4285e2902380669","mh4bgn","H W","35","F","{""name"":""Chrome"",""chrome"":true,""version"":""105.0"",""blink"":true,""mac"":true,""osname"":""macOS"",""osversion"":""10.15.7"",""a"":true}","9:19:48","1","4","Test_2","70","f","1","708.4000000059605","1440 x 900","1440 x 900","true","1","10","","","","",""
"null","<p style=""font-size: 80px;"">+ 10 points</p>","null","html-keyboard-response","11","286606","0.0-11.0-2.10","6062edb8e4285e2902380669","mh4bgn","H W","35","F","{""name"":""Chrome"",""chrome"":true,""version"":""105.0"",""blink"":true,""mac"":true,""osname"":""macOS"",""osversion"":""10.15.7"",""a"":true}","9:19:48","1","4","Test_2","70","f","1","571.7000000178814","1440 x 900","1440 x 900","true","1","10","","","","",""
"null","<p style=""font-size: 80px;"">+ 10 points</p>","null","html-keyboard-response","12","290217","0.0-11.0-2.11","6062edb8e4285e2902380669","mh4bgn","H W","35","F","{""name"":""Chrome"",""chrome"":true,""version"":""105.0"",""blink"":true,""mac"":true,""osname"":""macOS"",""osversion"":""10.15.7"",""a"":true}","9:19:48","1","4","Test_4","70","f","1","1602.2000000178814","1440 x 900","1440 x 900","true","1","10","","","","",""
"null","<p style=""font-size: 80px;"">+ 10 points</p>","null","html-keyboard-response","13","292871","0.0-11.0-2.12","6062edb8e4285e2902380669","mh4bgn","H W","35","F","{""name"":""Chrome"",""chrome"":true,""version"":""105.0"",""blink"":true,""mac"":true,""osname"":""macOS"",""osversion"":""10.15.7"",""a"":true}","9:19:48","1","4","Test_4","70","f","1","648.3000000119209","1440 x 900","1440 x 900","true","1","10","","","","",""
"null","<p style=""font-size: 80px;"">+ 10 points</p>","null","html-keyboard-response","14","295374","0.0-11.0-2.13","6062edb8e4285e2902380669","mh4bgn","H W","35","F","{""name"":""Chrome"",""chrome"":true,""version"":""105.0"",""blink"":true,""mac"":true,""osname"":""macOS"",""osversion"":""10.15.7"",""a"":true}","9:19:48","1","4","Test_4","70","f","1","492.19999998807907","1440 x 900","1440 x 900","true","1","10","","","","",""
"null","<p style=""font-size: 80px;"">+ 10 points</p>","null","html-keyboard-response","15","298429","0.0-11.0-2.14","6062edb8e4285e2902380669","mh4bgn","H W","35","F","{""name"":""Chrome"",""chrome"":true,""version"":""105.0"",""blink"":true,""mac"":true,""osname"":""macOS"",""osversion"":""10.15.7"",""a"":true}","9:19:48","1","4","Test_2","70","f","1","1046.300000011921","1440 x 900","1440 x 900","true","1","10","","","","",""
"null","<p style=""font-size: 80px;"">+ 10 points</p>","null","html-keyboard-response","16","301038","0.0-11.0-2.15","6062edb8e4285e2902380669","mh4bgn","H W","35","F","{""name"":""Chrome"",""chrome"":true,""version"":""105.0"",""blink"":true,""mac"":true,""osname"":""macOS"",""osversion"":""10.15.7"",""a"":true}","9:19:48","1","4","Test_3","74","j","1","602.5","1440 x 900","1440 x 900","true","1","10","","","","",""
"null","<p style=""font-size: 80px;"">+ 10 points</p>","null","html-keyboard-response","17","304369","0.0-11.0-2.16","6062edb8e4285e2902380669","mh4bgn","H W","35","F","{""name"":""Chrome"",""chrome"":true,""version"":""105.0"",""blink"":true,""mac"":true,""osname"":""macOS"",""osversion"":""10.15.7"",""a"":true}","9:19:48","1","4","Test_1","74","j","1","1317.6000000238419","1440 x 900","1440 x 900","true","1","10","","","","",""
"null","<p style=""font-size: 80px;"">+ 10 points</p>","null","html-keyboard-response","18","307574","0.0-11.0-2.17","6062edb8e4285e2902380669","mh4bgn","H W","35","F","{""name"":""Chrome"",""chrome"":true,""version"":""105.0"",""blink"":true,""mac"":true,""osname"":""macOS"",""osversion"":""10.15.7"",""a"":true}","9:19:48","1","4","Test_3","74","j","1","1192.9000000059605","1440 x 900","1440 x 900","true","1","10","","","","",""
"null","<p style=""font-size: 80px;"">+ 10 points</p>","null","html-keyboard-response","19","310797","0.0-11.0-2.18","6062edb8e4285e2902380669","mh4bgn","H W","35","F","{""name"":""Chrome"",""chrome"":true,""version"":""105.0"",""blink"":true,""mac"":true,""osname"":""macOS"",""osversion"":""10.15.7"",""a"":true}","9:19:48","1","4","Test_1","74","j","1","1216.2000000178814","1440 x 900","1440 x 900","true","1","10","","","","",""
"null","<p style=""font-size: 80px;"">+ 0 points</p>","null","html-keyboard-response","20","314280","0.0-11.0-2.19","6062edb8e4285e2902380669","mh4bgn","H W","35","F","{""name"":""Chrome"",""chrome"":true,""version"":""105.0"",""blink"":true,""mac"":true,""osname"":""macOS"",""osversion"":""10.15.7"",""a"":true}","9:19:48","1","3","Test_3","74","f","0","1475.5","1440 x 900","1440 x 900","true","1","0","","","","",""
"null","<p style=""font-size: 80px;"">+ 0 points</p>","null","html-keyboard-response","21","317937","0.0-11.0-2.20","6062edb8e4285e2902380669","mh4bgn","H W","35","F","{""name"":""Chrome"",""chrome"":true,""version"":""105.0"",""blink"":true,""mac"":true,""osname"":""macOS"",""osversion"":""10.15.7"",""a"":true}","9:19:48","1","3","Test_4","70","j","0","1650.199999988079","1440 x 900","1440 x 900","true","1","0","","","","",""
"null","<p style=""font-size: 80px;"">+ 0 points</p>","null","html-keyboard-response","22","320981","0.0-11.0-2.21","6062edb8e4285e2902380669","mh4bgn","H W","35","F","{""name"":""Chrome"",""chrome"":true,""version"":""105.0"",""blink"":true,""mac"":true,""osname"":""macOS"",""osversion"":""10.15.7"",""a"":true}","9:19:48","1","3","Test_3","74","f","0","1032.7999999821186","1440 x 900","1440 x 900","true","1","0","","","","",""
"null","<p style=""font-size: 80px;"">+ 0 points</p>","null","html-keyboard-response","23","324235","0.0-11.0-2.22","6062edb8e4285e2902380669","mh4bgn","H W","35","F","{""name"":""Chrome"",""chrome"":true,""version"":""105.0"",""blink"":true,""mac"":true,""osname"":""macOS"",""osversion"":""10.15.7"",""a"":true}","9:19:48","1","3","Test_1","74","f","0","1244","1440 x 900","1440 x 900","true","1","0","","","","",""
"null","<p style=""font-size: 80px;"">+ 0 points</p>","null","html-keyboard-response","24","327831","0.0-11.0-2.23","6062edb8e4285e2902380669","mh4bgn","H W","35","F","{""name"":""Chrome"",""chrome"":true,""version"":""105.0"",""blink"":true,""mac"":true,""osname"":""macOS"",""osversion"":""10.15.7"",""a"":true}","9:19:48","1","3","Test_4","70","j","0","1588.2000000178814","1440 x 900","1440 x 900","true","1","0","","","","",""
"null","<p style=""font-size: 80px;"">+ 10 points</p>","null","html-keyboard-response","25","331017","0.0-11.0-2.24","6062edb8e4285e2902380669","mh4bgn","H W","35","F","{""name"":""Chrome"",""chrome"":true,""version"":""105.0"",""blink"":true,""mac"":true,""osname"":""macOS"",""osversion"":""10.15.7"",""a"":true}","9:19:48","1","3","Test_1","70","f","1","1177.199999988079","1440 x 900","1440 x 900","true","1","10","","","","",""
"null","<p style=""font-size: 80px;"">+ 10 points</p>","null","html-keyboard-response","26","333926","0.0-11.0-2.25","6062edb8e4285e2902380669","mh4bgn","H W","35","F","{""name"":""Chrome"",""chrome"":true,""version"":""105.0"",""blink"":true,""mac"":true,""osname"":""macOS"",""osversion"":""10.15.7"",""a"":true}","9:19:48","1","3","Test_4","74","j","1","897.8000000119209","1440 x 900","1440 x 900","true","1","10","","","","",""
"null","<p style=""font-size: 80px;"">+ 10 points</p>","null","html-keyboard-response","27","337114","0.0-11.0-2.26","6062edb8e4285e2902380669","mh4bgn","H W","35","F","{""name"":""Chrome"",""chrome"":true,""version"":""105.0"",""blink"":true,""mac"":true,""osname"":""macOS"",""osversion"":""10.15.7"",""a"":true}","9:19:48","1","3","Test_2","74","j","1","1182.5","1440 x 900","1440 x 900","true","1","10","","","","",""
"null","<p style=""font-size: 80px;"">+ 10 points</p>","null","html-keyboard-response","28","340404","0.0-11.0-2.27","6062edb8e4285e2902380669","mh4bgn","H W","35","F","{""name"":""Chrome"",""chrome"":true,""version"":""105.0"",""blink"":true,""mac"":true,""osname"":""macOS"",""osversion"":""10.15.7"",""a"":true}","9:19:48","1","3","Test_1","70","f","1","1279.0999999940395","1440 x 900","1440 x 900","true","1","10","","","","",""
"null","<p style=""font-size: 80px;"">+ 10 points</p>","null","html-keyboard-response","29","343859","0.0-11.0-2.28","6062edb8e4285e2902380669","mh4bgn","H W","35","F","{""name"":""Chrome"",""chrome"":true,""version"":""105.0"",""blink"":true,""mac"":true,""osname"":""macOS"",""osversion"":""10.15.7"",""a"":true}","9:19:48","1","3","Test_4","74","j","1","1447.5999999940395","1440 x 900","1440 x 900","true","1","10","","","","",""
"null","<p style=""font-size: 80px;"">+ 10 points</p>","null","html-keyboard-response","30","346527","0.0-11.0-2.29","6062edb8e4285e2902380669","mh4bgn","H W","35","F","{""name"":""Chrome"",""chrome"":true,""version"":""105.0"",""blink"":true,""mac"":true,""osname"":""macOS"",""osversion"":""10.15.7"",""a"":true}","9:19:48","1","3","Test_4","74","j","1","662.5999999940395","1440 x 900","1440 x 900","true","1","10","","","","",""
"null","<p style=""font-size: 80px;"">+ 10 points</p>","null","html-keyboard-response","31","349420","0.0-11.0-2.30","6062edb8e4285e2902380669","mh4bgn","H W","35","F","{""name"":""Chrome"",""chrome"":true,""version"":""105.0"",""blink"":true,""mac"":true,""osname"":""macOS"",""osversion"":""10.15.7"",""a"":true}","9:19:48","1","3","Test_2","74","j","1","884.8000000119209","1440 x 900","1440 x 900","true","1","10","","","","",""
"null","<p style=""font-size: 80px;"">+ 10 points</p>","null","html-keyboard-response","32","352049","0.0-11.0-2.31","6062edb8e4285e2902380669","mh4bgn","H W","35","F","{""name"":""Chrome"",""chrome"":true,""version"":""105.0"",""blink"":true,""mac"":true,""osname"":""macOS"",""osversion"":""10.15.7"",""a"":true}","9:19:48","1","3","Test_3","70","f","1","619.5999999940395","1440 x 900","1440 x 900","true","1","10","","","","",""
"null","<p style=""font-size: 80px;"">+ 10 points</p>","null","html-keyboard-response","33","355300","0.0-11.0-2.32","6062edb8e4285e2902380669","mh4bgn","H W","35","F","{""name"":""Chrome"",""chrome"":true,""version"":""105.0"",""blink"":true,""mac"":true,""osname"":""macOS"",""osversion"":""10.15.7"",""a"":true}","9:19:48","1","3","Test_1","70","f","1","1244.0999999940395","1440 x 900","1440 x 900","true","1","10","","","","",""
"null","<p style=""font-size: 80px;"">+ 10 points</p>","null","html-keyboard-response","34","358007","0.0-11.0-2.33","6062edb8e4285e2902380669","mh4bgn","H W","35","F","{""name"":""Chrome"",""chrome"":true,""version"":""105.0"",""blink"":true,""mac"":true,""osname"":""macOS"",""osversion"":""10.15.7"",""a"":true}","9:19:48","1","3","Test_2","74","j","1","696.1999999880791","1440 x 900","1440 x 900","true","1","10","","","","",""
"null","<p style=""font-size: 80px;"">+ 10 points</p>","null","html-keyboard-response","35","360811","0.0-11.0-2.34","6062edb8e4285e2902380669","mh4bgn","H W","35","F","{""name"":""Chrome"",""chrome"":true,""version"":""105.0"",""blink"":true,""mac"":true,""osname"":""macOS"",""osversion"":""10.15.7"",""a"":true}","9:19:48","1","3","Test_2","74","j","1","798.6000000238419","1440 x 900","1440 x 900","true","1","10","","","","",""
"null","<p style=""font-size: 80px;"">+ 10 points</p>","null","html-keyboard-response","36","363563","0.0-11.0-2.35","6062edb8e4285e2902380669","mh4bgn","H W","35","F","{""name"":""Chrome"",""chrome"":true,""version"":""105.0"",""blink"":true,""mac"":true,""osname"":""macOS"",""osversion"":""10.15.7"",""a"":true}","9:19:48","1","3","Test_1","70","f","1","749.7000000178814","1440 x 900","1440 x 900","true","1","10","","","","",""
"null","<p style=""font-size: 80px;"">+ 0 points</p>","null","html-keyboard-response","37","366374","0.0-11.0-2.36","6062edb8e4285e2902380669","mh4bgn","H W","35","F","{""name"":""Chrome"",""chrome"":true,""version"":""105.0"",""blink"":true,""mac"":true,""osname"":""macOS"",""osversion"":""10.15.7"",""a"":true}","9:19:48","1","3","Test_3","74","f","0","805.6999999880791","1440 x 900","1440 x 900","true","1","0","","","","",""
"null","<p style=""font-size: 80px;"">+ 10 points</p>","null","html-keyboard-response","38","369165","0.0-11.0-2.37","6062edb8e4285e2902380669","mh4bgn","H W","35","F","{""name"":""Chrome"",""chrome"":true,""version"":""105.0"",""blink"":true,""mac"":true,""osname"":""macOS"",""osversion"":""10.15.7"",""a"":true}","9:19:48","1","3","Test_2","74","j","1","782.3000000119209","1440 x 900","1440 x 900","true","1","10","","","","",""
"null","<p style=""font-size: 80px;"">+ 10 points</p>","null","html-keyboard-response","39","371877","0.0-11.0-2.38","6062edb8e4285e2902380669","mh4bgn","H W","35","F","{""name"":""Chrome"",""chrome"":true,""version"":""105.0"",""blink"":true,""mac"":true,""osname"":""macOS"",""osversion"":""10.15.7"",""a"":true}","9:19:48","1","3","Test_2","74","j","1","702","1440 x 900","1440 x 900","true","1","10","","","","",""
"null","<p style=""font-size: 80px;"">+ 10 points</p>","null","html-keyboard-response","40","374921","0.0-11.0-2.39","6062edb8e4285e2902380669","mh4bgn","H W","35","F","{""name"":""Chrome"",""chrome"":true,""version"":""105.0"",""blink"":true,""mac"":true,""osname"":""macOS"",""osversion"":""10.15.7"",""a"":true}","9:19:48","1","3","Test_3","70","f","1","1034","1440 x 900","1440 x 900","true","1","10","","","","",""
"null","<p style=""font-size: 80px;"">+ 10 points</p>","null","html-keyboard-response","41","377592","0.0-11.0-2.40","6062edb8e4285e2902380669","mh4bgn","H W","35","F","{""name"":""Chrome"",""chrome"":true,""version"":""105.0"",""blink"":true,""mac"":true,""osname"":""macOS"",""osversion"":""10.15.7"",""a"":true}","9:19:48","1","3","Test_3","70","f","1","666.5999999940395","1440 x 900","1440 x 900","true","1","10","","","","",""
"null","<p style=""font-size: 80px;"">+ 10 points</p>","null","html-keyboard-response","42","380632","0.0-11.0-2.41","6062edb8e4285e2902380669","mh4bgn","H W","35","F","{""name"":""Chrome"",""chrome"":true,""version"":""105.0"",""blink"":true,""mac"":true,""osname"":""macOS"",""osversion"":""10.15.7"",""a"":true}","9:19:48","1","4","Test_4","70","f","1","1027.5999999940395","1440 x 900","1440 x 900","true","1","10","","","","",""
"null","<p style=""font-size: 80px;"">+ 10 points</p>","null","html-keyboard-response","43","383743","0.0-11.0-2.42","6062edb8e4285e2902380669","mh4bgn","H W","35","F","{""name"":""Chrome"",""chrome"":true,""version"":""105.0"",""blink"":true,""mac"":true,""osname"":""macOS"",""osversion"":""10.15.7"",""a"":true}","9:19:48","1","4","Test_2","70","f","1","1100.300000011921","1440 x 900","1440 x 900","true","1","10","","","","",""
"null","<p style=""font-size: 80px;"">+ 10 points</p>","null","html-keyboard-response","44","387245","0.0-11.0-2.43","6062edb8e4285e2902380669","mh4bgn","H W","35","F","{""name"":""Chrome"",""chrome"":true,""version"":""105.0"",""blink"":true,""mac"":true,""osname"":""macOS"",""osversion"":""10.15.7"",""a"":true}","9:19:48","1","4","Test_1","74","j","1","1495.0999999940395","1440 x 900","1440 x 900","true","1","10","","","","",""
"null","<p style=""font-size: 80px;"">+ 10 points</p>","null","html-keyboard-response","45","389798","0.0-11.0-2.44","6062edb8e4285e2902380669","mh4bgn","H W","35","F","{""name"":""Chrome"",""chrome"":true,""version"":""105.0"",""blink"":true,""mac"":true,""osname"":""macOS"",""osversion"":""10.15.7"",""a"":true}","9:19:48","1","4","Test_2","70","f","1","545.5","1440 x 900","1440 x 900","true","1","10","","","","",""
"null","<p style=""font-size: 80px;"">+ 10 points</p>","null","html-keyboard-response","46","392614","0.0-11.0-2.45","6062edb8e4285e2902380669","mh4bgn","H W","35","F","{""name"":""Chrome"",""chrome"":true,""version"":""105.0"",""blink"":true,""mac"":true,""osname"":""macOS"",""osversion"":""10.15.7"",""a"":true}","9:19:48","1","4","Test_3","74","j","1","809.5999999940395","1440 x 900","1440 x 900","true","1","10","","","","",""
"null","<p style=""font-size: 80px;"">+ 10 points</p>","null","html-keyboard-response","47","395587","0.0-11.0-2.46","6062edb8e4285e2902380669","mh4bgn","H W","35","F","{""name"":""Chrome"",""chrome"":true,""version"":""105.0"",""blink"":true,""mac"":true,""osname"":""macOS"",""osversion"":""10.15.7"",""a"":true}","9:19:48","1","4","Test_4","70","f","1","966.2000000178814","1440 x 900","1440 x 900","true","1","10","","","","",""
"null","<p style=""font-size: 80px;"">+ 10 points</p>","null","html-keyboard-response","48","398683","0.0-11.0-2.47","6062edb8e4285e2902380669","mh4bgn","H W","35","F","{""name"":""Chrome"",""chrome"":true,""version"":""105.0"",""blink"":true,""mac"":true,""osname"":""macOS"",""osversion"":""10.15.7"",""a"":true}","9:19:48","1","4","Test_3","74","j","1","1084.7000000178814","1440 x 900","1440 x 900","true","1","10","","","","",""
"null","<p style=""font-size: 80px;"">+ 10 points</p>","null","html-keyboard-response","49","401287","0.0-11.0-2.48","6062edb8e4285e2902380669","mh4bgn","H W","35","F","{""name"":""Chrome"",""chrome"":true,""version"":""105.0"",""blink"":true,""mac"":true,""osname"":""macOS"",""osversion"":""10.15.7"",""a"":true}","9:19:48","1","4","Test_4","70","f","1","595.5","1440 x 900","1440 x 900","true","1","10","","","","",""
"null","<p style=""font-size: 80px;"">+ 10 points</p>","null","html-keyboard-response","50","404038","0.0-11.0-2.49","6062edb8e4285e2902380669","mh4bgn","H W","35","F","{""name"":""Chrome"",""chrome"":true,""version"":""105.0"",""blink"":true,""mac"":true,""osname"":""macOS"",""osversion"":""10.15.7"",""a"":true}","9:19:48","1","4","Test_2","70","f","1","743.5","1440 x 900","1440 x 900","true","1","10","","","","",""
"null","<p style=""font-size: 80px;"">+ 10 points</p>","null","html-keyboard-response","51","407086","0.0-11.0-2.50","6062edb8e4285e2902380669","mh4bgn","H W","35","F","{""name"":""Chrome"",""chrome"":true,""version"":""105.0"",""blink"":true,""mac"":true,""osname"":""macOS"",""osversion"":""10.15.7"",""a"":true}","9:19:48","1","4","Test_1","74","j","1","1038.2000000178814","1440 x 900","1440 x 900","true","1","10","","","","",""
"null","<p style=""font-size: 80px;"">+ 10 points</p>","null","html-keyboard-response","52","409775","0.0-11.0-2.51","6062edb8e4285e2902380669","mh4bgn","H W","35","F","{""name"":""Chrome"",""chrome"":true,""version"":""105.0"",""blink"":true,""mac"":true,""osname"":""macOS"",""osversion"":""10.15.7"",""a"":true}","9:19:48","1","4","Test_3","74","j","1","676.1000000238419","1440 x 900","1440 x 900","true","1","10","","","","",""
"null","<p style=""font-size: 80px;"">+ 0 points</p>","null","html-keyboard-response","53","412496","0.0-11.0-2.52","6062edb8e4285e2902380669","mh4bgn","H W","35","F","{""name"":""Chrome"",""chrome"":true,""version"":""105.0"",""blink"":true,""mac"":true,""osname"":""macOS"",""osversion"":""10.15.7"",""a"":true}","9:19:48","1","4","Test_1","70","j","0","713.1999999880791","1440 x 900","1440 x 900","true","1","0","","","","",""
"null","<p style=""font-size: 80px;"">+ 10 points</p>","null","html-keyboard-response","54","415277","0.0-11.0-2.53","6062edb8e4285e2902380669","mh4bgn","H W","35","F","{""name"":""Chrome"",""chrome"":true,""version"":""105.0"",""blink"":true,""mac"":true,""osname"":""macOS"",""osversion"":""10.15.7"",""a"":true}","9:19:48","1","4","Test_3","74","j","1","775.9000000059605","1440 x 900","1440 x 900","true","1","10","","","","",""
"null","<p style=""font-size: 80px;"">+ 10 points</p>","null","html-keyboard-response","55","418082","0.0-11.0-2.54","6062edb8e4285e2902380669","mh4bgn","H W","35","F","{""name"":""Chrome"",""chrome"":true,""version"":""105.0"",""blink"":true,""mac"":true,""osname"":""macOS"",""osversion"":""10.15.7"",""a"":true}","9:19:48","1","4","Test_1","74","j","1","794","1440 x 900","1440 x 900","true","1","10","","","","",""
"null","<p style=""font-size: 80px;"">+ 10 points</p>","null","html-keyboard-response","56","420792","0.0-11.0-2.55","6062edb8e4285e2902380669","mh4bgn","H W","35","F","{""name"":""Chrome"",""chrome"":true,""version"":""105.0"",""blink"":true,""mac"":true,""osname"":""macOS"",""osversion"":""10.15.7"",""a"":true}","9:19:48","1","4","Test_2","70","f","1","701.6999999880791","1440 x 900","1440 x 900","true","1","10","","","","",""
"null","<p style=""font-size: 80px;"">+ 0 points</p>","null","html-keyboard-response","57","423667","0.0-11.0-2.56","6062edb8e4285e2902380669","mh4bgn","H W","35","F","{""name"":""Chrome"",""chrome"":true,""version"":""105.0"",""blink"":true,""mac"":true,""osname"":""macOS"",""osversion"":""10.15.7"",""a"":true}","9:19:48","1","3","Test_3","74","f","0","866.6000000238419","1440 x 900","1440 x 900","true","1","0","","","","",""
"null","<p style=""font-size: 80px;"">+ 10 points</p>","null","html-keyboard-response","58","426925","0.0-11.0-2.57","6062edb8e4285e2902380669","mh4bgn","H W","35","F","{""name"":""Chrome"",""chrome"":true,""version"":""105.0"",""blink"":true,""mac"":true,""osname"":""macOS"",""osversion"":""10.15.7"",""a"":true}","9:19:48","1","3","Test_4","74","j","1","1251.9000000059605","1440 x 900","1440 x 900","true","1","10","","","","",""
"null","<p style=""font-size: 80px;"">+ 10 points</p>","null","html-keyboard-response","59","430383","0.0-11.0-2.58","6062edb8e4285e2902380669","mh4bgn","H W","35","F","{""name"":""Chrome"",""chrome"":true,""version"":""105.0"",""blink"":true,""mac"":true,""osname"":""macOS"",""osversion"":""10.15.7"",""a"":true}","9:19:48","1","3","Test_2","74","j","1","1448.7999999821186","1440 x 900","1440 x 900","true","1","10","","","","",""
"null","<p style=""font-size: 80px;"">+ 10 points</p>","null","html-keyboard-response","60","433069","0.0-11.0-2.59","6062edb8e4285e2902380669","mh4bgn","H W","35","F","{""name"":""Chrome"",""chrome"":true,""version"":""105.0"",""blink"":true,""mac"":true,""osname"":""macOS"",""osversion"":""10.15.7"",""a"":true}","9:19:48","1","3","Test_1","70","f","1","677.2999999821186","1440 x 900","1440 x 900","true","1","10","","","","",""
"null","<p style=""font-size: 80px;"">+ 10 points</p>","null","html-keyboard-response","61","435511","0.0-11.0-2.60","6062edb8e4285e2902380669","mh4bgn","H W","35","F","{""name"":""Chrome"",""chrome"":true,""version"":""105.0"",""blink"":true,""mac"":true,""osname"":""macOS"",""osversion"":""10.15.7"",""a"":true}","9:19:48","1","3","Test_1","70","f","1","434.40000000596046","1440 x 900","1440 x 900","true","1","10","","","","",""
"null","<p style=""font-size: 80px;"">+ 10 points</p>","null","html-keyboard-response","62","438345","0.0-11.0-2.61","6062edb8e4285e2902380669","mh4bgn","H W","35","F","{""name"":""Chrome"",""chrome"":true,""version"":""105.0"",""blink"":true,""mac"":true,""osname"":""macOS"",""osversion"":""10.15.7"",""a"":true}","9:19:48","1","3","Test_1","70","f","1","830.0999999940395","1440 x 900","1440 x 900","true","1","10","","","","",""
"null","<p style=""font-size: 80px;"">+ 10 points</p>","null","html-keyboard-response","63","440987","0.0-11.0-2.62","6062edb8e4285e2902380669","mh4bgn","H W","35","F","{""name"":""Chrome"",""chrome"":true,""version"":""105.0"",""blink"":true,""mac"":true,""osname"":""macOS"",""osversion"":""10.15.7"",""a"":true}","9:19:48","1","3","Test_1","70","f","1","633.7999999821186","1440 x 900","1440 x 900","true","1","10","","","","",""
"null","<p style=""font-size: 80px;"">+ 10 points</p>","null","html-keyboard-response","64","443788","0.0-11.0-2.63","6062edb8e4285e2902380669","mh4bgn","H W","35","F","{""name"":""Chrome"",""chrome"":true,""version"":""105.0"",""blink"":true,""mac"":true,""osname"":""macOS"",""osversion"":""10.15.7"",""a"":true}","9:19:48","1","3","Test_2","74","j","1","792.5999999940395","1440 x 900","1440 x 900","true","1","10","","","","",""
"null","<p style=""font-size: 80px;"">+ 10 points</p>","null","html-keyboard-response","65","446237","0.0-11.0-2.64","6062edb8e4285e2902380669","mh4bgn","H W","35","F","{""name"":""Chrome"",""chrome"":true,""version"":""105.0"",""blink"":true,""mac"":true,""osname"":""macOS"",""osversion"":""10.15.7"",""a"":true}","9:19:48","1","3","Test_1","70","f","1","440.80000001192093","1440 x 900","1440 x 900","true","1","10","","","","",""
"null","<p style=""font-size: 80px;"">+ 0 points</p>","null","html-keyboard-response","66","448843","0.0-11.0-2.65","6062edb8e4285e2902380669","mh4bgn","H W","35","F","{""name"":""Chrome"",""chrome"":true,""version"":""105.0"",""blink"":true,""mac"":true,""osname"":""macOS"",""osversion"":""10.15.7"",""a"":true}","9:19:48","1","3","Test_3","74","f","0","596","1440 x 900","1440 x 900","true","1","0","","","","",""
"null","<p style=""font-size: 80px;"">+ 0 points</p>","null","html-keyboard-response","67","451665","0.0-11.0-2.66","6062edb8e4285e2902380669","mh4bgn","H W","35","F","{""name"":""Chrome"",""chrome"":true,""version"":""105.0"",""blink"":true,""mac"":true,""osname"":""macOS"",""osversion"":""10.15.7"",""a"":true}","9:19:48","1","3","Test_4","70","j","0","815.4000000059605","1440 x 900","1440 x 900","true","1","0","","","","",""
"null","<p style=""font-size: 80px;"">+ 10 points</p>","null","html-keyboard-response","68","454528","0.0-11.0-2.67","6062edb8e4285e2902380669","mh4bgn","H W","35","F","{""name"":""Chrome"",""chrome"":true,""version"":""105.0"",""blink"":true,""mac"":true,""osname"":""macOS"",""osversion"":""10.15.7"",""a"":true}","9:19:48","1","3","Test_4","74","j","1","855","1440 x 900","1440 x 900","true","1","10","","","","",""
"null","<p style=""font-size: 80px;"">+ 10 points</p>","null","html-keyboard-response","69","457233","0.0-11.0-2.68","6062edb8e4285e2902380669","mh4bgn","H W","35","F","{""name"":""Chrome"",""chrome"":true,""version"":""105.0"",""blink"":true,""mac"":true,""osname"":""macOS"",""osversion"":""10.15.7"",""a"":true}","9:19:48","1","3","Test_3","70","f","1","692.9000000059605","1440 x 900","1440 x 900","true","1","10","","","","",""
"null","<p style=""font-size: 80px;"">+ 10 points</p>","null","html-keyboard-response","70","460770","0.0-11.0-2.69","6062edb8e4285e2902380669","mh4bgn","H W","35","F","{""name"":""Chrome"",""chrome"":true,""version"":""105.0"",""blink"":true,""mac"":true,""osname"":""macOS"",""osversion"":""10.15.7"",""a"":true}","9:19:48","1","3","Test_2","74","j","1","1527.300000011921","1440 x 900","1440 x 900","true","1","10","","","","",""
"null","<p style=""font-size: 80px;"">+ 10 points</p>","null","html-keyboard-response","71","463878","0.0-11.0-2.70","6062edb8e4285e2902380669","mh4bgn","H W","35","F","{""name"":""Chrome"",""chrome"":true,""version"":""105.0"",""blink"":true,""mac"":true,""osname"":""macOS"",""osversion"":""10.15.7"",""a"":true}","9:19:48","1","3","Test_2","74","j","1","1097.300000011921","1440 x 900","1440 x 900","true","1","10","","","","",""
"null","<p style=""font-size: 80px;"">+ 10 points</p>","null","html-keyboard-response","72","466798","0.0-11.0-2.71","6062edb8e4285e2902380669","mh4bgn","H W","35","F","{""name"":""Chrome"",""chrome"":true,""version"":""105.0"",""blink"":true,""mac"":true,""osname"":""macOS"",""osversion"":""10.15.7"",""a"":true}","9:19:48","1","3","Test_3","70","f","1","915.5","1440 x 900","1440 x 900","true","1","10","","","","",""
"null","<p style=""font-size: 80px;"">+ 10 points</p>","null","html-keyboard-response","73","469242","0.0-11.0-2.72","6062edb8e4285e2902380669","mh4bgn","H W","35","F","{""name"":""Chrome"",""chrome"":true,""version"":""105.0"",""blink"":true,""mac"":true,""osname"":""macOS"",""osversion"":""10.15.7"",""a"":true}","9:19:48","1","3","Test_3","70","f","1","435.09999999403954","1440 x 900","1440 x 900","true","1","10","","","","",""
"null","<p style=""font-size: 80px;"">+ 10 points</p>","null","html-keyboard-response","74","471978","0.0-11.0-2.73","6062edb8e4285e2902380669","mh4bgn","H W","35","F","{""name"":""Chrome"",""chrome"":true,""version"":""105.0"",""blink"":true,""mac"":true,""osname"":""macOS"",""osversion"":""10.15.7"",""a"":true}","9:19:48","1","3","Test_2","74","j","1","730.4000000059605","1440 x 900","1440 x 900","true","1","10","","","","",""
"null","<p style=""font-size: 80px;"">+ 0 points</p>","null","html-keyboard-response","75","474544","0.0-11.0-2.74","6062edb8e4285e2902380669","mh4bgn","H W","35","F","{""name"":""Chrome"",""chrome"":true,""version"":""105.0"",""blink"":true,""mac"":true,""osname"":""macOS"",""osversion"":""10.15.7"",""a"":true}","9:19:48","1","3","Test_4","70","j","0","559.5","1440 x 900","1440 x 900","true","1","0","","","","",""
"null","<p style=""font-size: 80px;"">+ 10 points</p>","null","html-keyboard-response","76","477352","0.0-11.0-2.75","6062edb8e4285e2902380669","mh4bgn","H W","35","F","{""name"":""Chrome"",""chrome"":true,""version"":""105.0"",""blink"":true,""mac"":true,""osname"":""macOS"",""osversion"":""10.15.7"",""a"":true}","9:19:48","1","3","Test_4","74","j","1","799.5999999940395","1440 x 900","1440 x 900","true","1","10","","","","",""
"null","<p style=""font-size: 80px;"">+ 10 points</p>","null","html-keyboard-response","77","479812","0.0-11.0-2.76","6062edb8e4285e2902380669","mh4bgn","H W","35","F","{""name"":""Chrome"",""chrome"":true,""version"":""105.0"",""blink"":true,""mac"":true,""osname"":""macOS"",""osversion"":""10.15.7"",""a"":true}","9:19:48","1","3","Test_4","74","j","1","451.90000000596046","1440 x 900","1440 x 900","true","1","10","","","","",""
"null","<p style=""font-size: 80px;"">+ 10 points</p>","null","html-keyboard-response","78","482590","0.0-11.0-2.77","6062edb8e4285e2902380669","mh4bgn","H W","35","F","{""name"":""Chrome"",""chrome"":true,""version"":""105.0"",""blink"":true,""mac"":true,""osname"":""macOS"",""osversion"":""10.15.7"",""a"":true}","9:19:48","1","3","Test_1","70","f","1","767.8999999761581","1440 x 900","1440 x 900","true","1","10","","","","",""
"null","<p style=""font-size: 80px;"">+ 0 points</p>","null","html-keyboard-response","79","485029","0.0-11.0-2.78","6062edb8e4285e2902380669","mh4bgn","H W","35","F","{""name"":""Chrome"",""chrome"":true,""version"":""105.0"",""blink"":true,""mac"":true,""osname"":""macOS"",""osversion"":""10.15.7"",""a"":true}","9:19:48","1","4","Test_1","70","j","0","430.7999999821186","1440 x 900","1440 x 900","true","1","0","","","","",""
"null","<p style=""font-size: 80px;"">+ 0 points</p>","null","html-keyboard-response","80","488087","0.0-11.0-2.79","6062edb8e4285e2902380669","mh4bgn","H W","35","F","{""name"":""Chrome"",""chrome"":true,""version"":""105.0"",""blink"":true,""mac"":true,""osname"":""macOS"",""osversion"":""10.15.7"",""a"":true}","9:19:48","1","4","Test_3","70","j","0","1051.0999999940395","1440 x 900","1440 x 900","true","1","0","","","","",""
"null","<p style=""font-size: 80px;"">+ 10 points</p>","null","html-keyboard-response","81","491277","0.0-11.0-2.80","6062edb8e4285e2902380669","mh4bgn","H W","35","F","{""name"":""Chrome"",""chrome"":true,""version"":""105.0"",""blink"":true,""mac"":true,""osname"":""macOS"",""osversion"":""10.15.7"",""a"":true}","9:19:48","1","4","Test_1","74","j","1","1182.5","1440 x 900","1440 x 900","true","1","10","","","","",""
"null","<p style=""font-size: 80px;"">+ 10 points</p>","null","html-keyboard-response","82","493980","0.0-11.0-2.81","6062edb8e4285e2902380669","mh4bgn","H W","35","F","{""name"":""Chrome"",""chrome"":true,""version"":""105.0"",""blink"":true,""mac"":true,""osname"":""macOS"",""osversion"":""10.15.7"",""a"":true}","9:19:48","1","4","Test_4","70","f","1","690.5","1440 x 900","1440 x 900","true","1","10","","","","",""
"null","<p style=""font-size: 80px;"">+ 10 points</p>","null","html-keyboard-response","83","496698","0.0-11.0-2.82","6062edb8e4285e2902380669","mh4bgn","H W","35","F","{""name"":""Chrome"",""chrome"":true,""version"":""105.0"",""blink"":true,""mac"":true,""osname"":""macOS"",""osversion"":""10.15.7"",""a"":true}","9:19:48","1","4","Test_3","74","j","1","709.7000000178814","1440 x 900","1440 x 900","true","1","10","","","","",""
"null","<p style=""font-size: 80px;"">+ 0 points</p>","null","html-keyboard-response","84","499570","0.0-11.0-2.83","6062edb8e4285e2902380669","mh4bgn","H W","35","F","{""name"":""Chrome"",""chrome"":true,""version"":""105.0"",""blink"":true,""mac"":true,""osname"":""macOS"",""osversion"":""10.15.7"",""a"":true}","9:19:48","1","4","Test_3","70","j","0","866","1440 x 900","1440 x 900","true","1","0","","","","",""
"null","<p style=""font-size: 80px;"">+ 10 points</p>","null","html-keyboard-response","85","502295","0.0-11.0-2.84","6062edb8e4285e2902380669","mh4bgn","H W","35","F","{""name"":""Chrome"",""chrome"":true,""version"":""105.0"",""blink"":true,""mac"":true,""osname"":""macOS"",""osversion"":""10.15.7"",""a"":true}","9:19:48","1","4","Test_2","70","f","1","718.1999999880791","1440 x 900","1440 x 900","true","1","10","","","","",""
"null","<p style=""font-size: 80px;"">+ 10 points</p>","null","html-keyboard-response","86","505655","0.0-11.0-2.85","6062edb8e4285e2902380669","mh4bgn","H W","35","F","{""name"":""Chrome"",""chrome"":true,""version"":""105.0"",""blink"":true,""mac"":true,""osname"":""macOS"",""osversion"":""10.15.7"",""a"":true}","9:19:48","1","4","Test_4","70","f","1","1352","1440 x 900","1440 x 900","true","1","10","","","","",""
"null","<p style=""font-size: 80px;"">+ 10 points</p>","null","html-keyboard-response","87","508699","0.0-11.0-2.86","6062edb8e4285e2902380669","mh4bgn","H W","35","F","{""name"":""Chrome"",""chrome"":true,""version"":""105.0"",""blink"":true,""mac"":true,""osname"":""macOS"",""osversion"":""10.15.7"",""a"":true}","9:19:48","1","4","Test_1","74","j","1","1032.2999999821186","1440 x 900","1440 x 900","true","1","10","","","","",""
"null","<p style=""font-size: 80px;"">+ 10 points</p>","null","html-keyboard-response","88","511322","0.0-11.0-2.87","6062edb8e4285e2902380669","mh4bgn","H W","35","F","{""name"":""Chrome"",""chrome"":true,""version"":""105.0"",""blink"":true,""mac"":true,""osname"":""macOS"",""osversion"":""10.15.7"",""a"":true}","9:19:48","1","4","Test_1","74","j","1","618.4000000059605","1440 x 900","1440 x 900","true","1","10","","","","",""
"null","<p style=""font-size: 80px;"">+ 10 points</p>","null","html-keyboard-response","89","513869","0.0-11.0-2.88","6062edb8e4285e2902380669","mh4bgn","H W","35","F","{""name"":""Chrome"",""chrome"":true,""version"":""105.0"",""blink"":true,""mac"":true,""osname"":""macOS"",""osversion"":""10.15.7"",""a"":true}","9:19:48","1","4","Test_2","70","f","1","540.2999999821186","1440 x 900","1440 x 900","true","1","10","","","","",""
"null","<p style=""font-size: 80px;"">+ 10 points</p>","null","html-keyboard-response","90","516775","0.0-11.0-2.89","6062edb8e4285e2902380669","mh4bgn","H W","35","F","{""name"":""Chrome"",""chrome"":true,""version"":""105.0"",""blink"":true,""mac"":true,""osname"":""macOS"",""osversion"":""10.15.7"",""a"":true}","9:19:48","1","4","Test_4","70","f","1","897.2000000178814","1440 x 900","1440 x 900","true","1","10","","","","",""
"null","<p style=""font-size: 80px;"">+ 10 points</p>","null","html-keyboard-response","91","519529","0.0-11.0-2.90","6062edb8e4285e2902380669","mh4bgn","H W","35","F","{""name"":""Chrome"",""chrome"":true,""version"":""105.0"",""blink"":true,""mac"":true,""osname"":""macOS"",""osversion"":""10.15.7"",""a"":true}","9:19:48","1","4","Test_3","74","j","1","747","1440 x 900","1440 x 900","true","1","10","","","","",""
"null","<p style=""font-size: 80px;"">+ 0 points</p>","null","html-keyboard-response","92","522539","0.0-11.0-2.91","6062edb8e4285e2902380669","mh4bgn","H W","35","F","{""name"":""Chrome"",""chrome"":true,""version"":""105.0"",""blink"":true,""mac"":true,""osname"":""macOS"",""osversion"":""10.15.7"",""a"":true}","9:19:48","1","4","Test_3","70","j","0","1001.2999999821186","1440 x 900","1440 x 900","true","1","0","","","","",""
"null","<p style=""font-size: 80px;"">+ 10 points</p>","null","html-keyboard-response","93","525292","0.0-11.0-2.92","6062edb8e4285e2902380669","mh4bgn","H W","35","F","{""name"":""Chrome"",""chrome"":true,""version"":""105.0"",""blink"":true,""mac"":true,""osname"":""macOS"",""osversion"":""10.15.7"",""a"":true}","9:19:48","1","4","Test_4","70","f","1","750.0999999940395","1440 x 900","1440 x 900","true","1","10","","","","",""
"null","<p style=""font-size: 80px;"">+ 10 points</p>","null","html-keyboard-response","94","527889","0.0-11.0-2.93","6062edb8e4285e2902380669","mh4bgn","H W","35","F","{""name"":""Chrome"",""chrome"":true,""version"":""105.0"",""blink"":true,""mac"":true,""osname"":""macOS"",""osversion"":""10.15.7"",""a"":true}","9:19:48","1","4","Test_3","74","j","1","588.1000000238419","1440 x 900","1440 x 900","true","1","10","","","","",""
"null","<p style=""font-size: 80px;"">+ 10 points</p>","null","html-keyboard-response","95","530606","0.0-11.0-2.94","6062edb8e4285e2902380669","mh4bgn","H W","35","F","{""name"":""Chrome"",""chrome"":true,""version"":""105.0"",""blink"":true,""mac"":true,""osname"":""macOS"",""osversion"":""10.15.7"",""a"":true}","9:19:48","1","4","Test_4","70","f","1","710.1999999880791","1440 x 900","1440 x 900","true","1","10","","","","",""
"null","<p style=""font-size: 80px;"">+ 10 points</p>","null","html-keyboard-response","96","533392","0.0-11.0-2.95","6062edb8e4285e2902380669","mh4bgn","H W","35","F","{""name"":""Chrome"",""chrome"":true,""version"":""105.0"",""blink"":true,""mac"":true,""osname"":""macOS"",""osversion"":""10.15.7"",""a"":true}","9:19:48","1","4","Test_2","70","f","1","781.8000000119209","1440 x 900","1440 x 900","true","1","10","","","","",""
"null","<p style=""font-size: 80px;"">+ 10 points</p>","null","html-keyboard-response","97","536219","0.0-11.0-2.96","6062edb8e4285e2902380669","mh4bgn","H W","35","F","{""name"":""Chrome"",""chrome"":true,""version"":""105.0"",""blink"":true,""mac"":true,""osname"":""macOS"",""osversion"":""10.15.7"",""a"":true}","9:19:48","1","4","Test_1","74","j","1","819.5","1440 x 900","1440 x 900","true","1","10","","","","",""
"null","<p style=""font-size: 80px;"">+ 10 points</p>","null","html-keyboard-response","98","538674","0.0-11.0-2.97","6062edb8e4285e2902380669","mh4bgn","H W","35","F","{""name"":""Chrome"",""chrome"":true,""version"":""105.0"",""blink"":true,""mac"":true,""osname"":""macOS"",""osversion"":""10.15.7"",""a"":true}","9:19:48","1","4","Test_1","74","j","1","450.09999999403954","1440 x 900","1440 x 900","true","1","10","","","","",""
"null","<p style=""font-size: 80px;"">+ 10 points</p>","null","html-keyboard-response","99","541563","0.0-11.0-2.98","6062edb8e4285e2902380669","mh4bgn","H W","35","F","{""name"":""Chrome"",""chrome"":true,""version"":""105.0"",""blink"":true,""mac"":true,""osname"":""macOS"",""osversion"":""10.15.7"",""a"":true}","9:19:48","1","4","Test_2","70","f","1","878.8000000119209","1440 x 900","1440 x 900","true","1","10","","","","",""
"null","<p style=""font-size: 80px;"">+ 0 points</p>","null","html-keyboard-response","100","544513","0.0-11.0-2.99","6062edb8e4285e2902380669","mh4bgn","H W","35","F","{""name"":""Chrome"",""chrome"":true,""version"":""105.0"",""blink"":true,""mac"":true,""osname"":""macOS"",""osversion"":""10.15.7"",""a"":true}","9:19:48","1","3","Test_2","70","j","0","940.1000000238419","1440 x 900","1440 x 900","true","1","0","","","","",""
"null","<p style=""font-size: 80px;"">+ 10 points</p>","null","html-keyboard-response","101","547742","0.0-11.0-2.100","6062edb8e4285e2902380669","mh4bgn","H W","35","F","{""name"":""Chrome"",""chrome"":true,""version"":""105.0"",""blink"":true,""mac"":true,""osname"":""macOS"",""osversion"":""10.15.7"",""a"":true}","9:19:48","1","3","Test_4","74","j","1","1219.0999999940395","1440 x 900","1440 x 900","true","1","10","","","","",""
"null","<p style=""font-size: 80px;"">+ 10 points</p>","null","html-keyboard-response","102","550730","0.0-11.0-2.101","6062edb8e4285e2902380669","mh4bgn","H W","35","F","{""name"":""Chrome"",""chrome"":true,""version"":""105.0"",""blink"":true,""mac"":true,""osname"":""macOS"",""osversion"":""10.15.7"",""a"":true}","9:19:48","1","3","Test_2","74","j","1","979.1999999880791","1440 x 900","1440 x 900","true","1","10","","","","",""
"null","<p style=""font-size: 80px;"">+ 10 points</p>","null","html-keyboard-response","103","553745","0.0-11.0-2.102","6062edb8e4285e2902380669","mh4bgn","H W","35","F","{""name"":""Chrome"",""chrome"":true,""version"":""105.0"",""blink"":true,""mac"":true,""osname"":""macOS"",""osversion"":""10.15.7"",""a"":true}","9:19:48","1","3","Test_3","70","f","1","1004","1440 x 900","1440 x 900","true","1","10","","","","",""
"null","<p style=""font-size: 80px;"">+ 10 points</p>","null","html-keyboard-response","104","557018","0.0-11.0-2.103","6062edb8e4285e2902380669","mh4bgn","H W","35","F","{""name"":""Chrome"",""chrome"":true,""version"":""105.0"",""blink"":true,""mac"":true,""osname"":""macOS"",""osversion"":""10.15.7"",""a"":true}","9:19:48","1","3","Test_1","70","f","1","1261.8999999761581","1440 x 900","1440 x 900","true","1","10","","","","",""
"null","<p style=""font-size: 80px;"">+ 10 points</p>","null","html-keyboard-response","105","559817","0.0-11.0-2.104","6062edb8e4285e2902380669","mh4bgn","H W","35","F","{""name"":""Chrome"",""chrome"":true,""version"":""105.0"",""blink"":true,""mac"":true,""osname"":""macOS"",""osversion"":""10.15.7"",""a"":true}","9:19:48","1","3","Test_4","74","j","1","793.6999999880791","1440 x 900","1440 x 900","true","1","10","","","","",""
"null","<p style=""font-size: 80px;"">+ 10 points</p>","null","html-keyboard-response","106","562678","0.0-11.0-2.105","6062edb8e4285e2902380669","mh4bgn","H W","35","F","{""name"":""Chrome"",""chrome"":true,""version"":""105.0"",""blink"":true,""mac"":true,""osname"":""macOS"",""osversion"":""10.15.7"",""a"":true}","9:19:48","1","3","Test_3","70","f","1","854.4000000059605","1440 x 900","1440 x 900","true","1","10","","","","",""
"null","<p style=""font-size: 80px;"">+ 10 points</p>","null","html-keyboard-response","107","566028","0.0-11.0-2.106","6062edb8e4285e2902380669","mh4bgn","H W","35","F","{""name"":""Chrome"",""chrome"":true,""version"":""105.0"",""blink"":true,""mac"":true,""osname"":""macOS"",""osversion"":""10.15.7"",""a"":true}","9:19:48","1","3","Test_3","70","f","1","1340.800000011921","1440 x 900","1440 x 900","true","1","10","","","","",""
"null","<p style=""font-size: 80px;"">+ 10 points</p>","null","html-keyboard-response","108","568863","0.0-11.0-2.107","6062edb8e4285e2902380669","mh4bgn","H W","35","F","{""name"":""Chrome"",""chrome"":true,""version"":""105.0"",""blink"":true,""mac"":true,""osname"":""macOS"",""osversion"":""10.15.7"",""a"":true}","9:19:48","1","3","Test_1","70","f","1","827.0999999940395","1440 x 900","1440 x 900","true","1","10","","","","",""
"null","<p style=""font-size: 80px;"">+ 10 points</p>","null","html-keyboard-response","109","572229","0.0-11.0-2.108","6062edb8e4285e2902380669","mh4bgn","H W","35","F","{""name"":""Chrome"",""chrome"":true,""version"":""105.0"",""blink"":true,""mac"":true,""osname"":""macOS"",""osversion"":""10.15.7"",""a"":true}","9:19:48","1","3","Test_4","74","j","1","1356.6000000238419","1440 x 900","1440 x 900","true","1","10","","","","",""
"null","<p style=""font-size: 80px;"">+ 10 points</p>","null","html-keyboard-response","110","583950","0.0-11.0-2.109","6062edb8e4285e2902380669","mh4bgn","H W","35","F","{""name"":""Chrome"",""chrome"":true,""version"":""105.0"",""blink"":true,""mac"":true,""osname"":""macOS"",""osversion"":""10.15.7"",""a"":true}","9:19:48","1","3","Test_4","74","j","1","1005.9000000059605","1440 x 900","1440 x 900","true","1","10","","","","",""
"null","<p style=""font-size: 80px;"">+ 10 points</p>","null","html-keyboard-response","111","586866","0.0-11.0-2.110","6062edb8e4285e2902380669","mh4bgn","H W","35","F","{""name"":""Chrome"",""chrome"":true,""version"":""105.0"",""blink"":true,""mac"":true,""osname"":""macOS"",""osversion"":""10.15.7"",""a"":true}","9:19:48","1","3","Test_2","74","j","1","909.4000000059605","1440 x 900","1440 x 900","true","1","10","","","","",""
"null","<p style=""font-size: 80px;"">+ 10 points</p>","null","html-keyboard-response","112","589627","0.0-11.0-2.111","6062edb8e4285e2902380669","mh4bgn","H W","35","F","{""name"":""Chrome"",""chrome"":true,""version"":""105.0"",""blink"":true,""mac"":true,""osname"":""macOS"",""osversion"":""10.15.7"",""a"":true}","9:19:48","1","3","Test_1","70","f","1","753.5","1440 x 900","1440 x 900","true","1","10","","","","",""
"null","<p style=""font-size: 80px;"">+ 0 points</p>","null","html-keyboard-response","113","592109","0.0-11.0-2.112","6062edb8e4285e2902380669","mh4bgn","H W","35","F","{""name"":""Chrome"",""chrome"":true,""version"":""105.0"",""blink"":true,""mac"":true,""osname"":""macOS"",""osversion"":""10.15.7"",""a"":true}","9:19:48","1","3","Test_3","74","f","0","477.59999999403954","1440 x 900","1440 x 900","true","1","0","","","","",""
"null","<p style=""font-size: 80px;"">+ 10 points</p>","null","html-keyboard-response","114","594851","0.0-11.0-2.113","6062edb8e4285e2902380669","mh4bgn","H W","35","F","{""name"":""Chrome"",""chrome"":true,""version"":""105.0"",""blink"":true,""mac"":true,""osname"":""macOS"",""osversion"":""10.15.7"",""a"":true}","9:19:48","1","3","Test_1","70","f","1","737.9000000059605","1440 x 900","1440 x 900","true","1","10","","","","",""
"null","<p style=""font-size: 80px;"">+ 10 points</p>","null","html-keyboard-response","115","597715","0.0-11.0-2.114","6062edb8e4285e2902380669","mh4bgn","H W","35","F","{""name"":""Chrome"",""chrome"":true,""version"":""105.0"",""blink"":true,""mac"":true,""osname"":""macOS"",""osversion"":""10.15.7"",""a"":true}","9:19:48","1","3","Test_1","70","f","1","853.0999999940395","1440 x 900","1440 x 900","true","1","10","","","","",""
"null","<p style=""font-size: 80px;"">+ 10 points</p>","null","html-keyboard-response","116","600572","0.0-11.0-2.115","6062edb8e4285e2902380669","mh4bgn","H W","35","F","{""name"":""Chrome"",""chrome"":true,""version"":""105.0"",""blink"":true,""mac"":true,""osname"":""macOS"",""osversion"":""10.15.7"",""a"":true}","9:19:48","1","3","Test_2","74","j","1","845.3000000119209","1440 x 900","1440 x 900","true","1","10","","","","",""
"null","<p style=""font-size: 80px;"">+ 10 points</p>","null","html-keyboard-response","117","603570","0.0-11.0-2.116","6062edb8e4285e2902380669","mh4bgn","H W","35","F","{""name"":""Chrome"",""chrome"":true,""version"":""105.0"",""blink"":true,""mac"":true,""osname"":""macOS"",""osversion"":""10.15.7"",""a"":true}","9:19:48","1","3","Test_4","74","j","1","989.5999999940395","1440 x 900","1440 x 900","true","1","10","","","","",""
"null","<p style=""font-size: 80px;"">+ 10 points</p>","null","html-keyboard-response","118","606466","0.0-11.0-2.117","6062edb8e4285e2902380669","mh4bgn","H W","35","F","{""name"":""Chrome"",""chrome"":true,""version"":""105.0"",""blink"":true,""mac"":true,""osname"":""macOS"",""osversion"":""10.15.7"",""a"":true}","9:19:48","1","3","Test_2","74","j","1","882.4000000059605","1440 x 900","1440 x 900","true","1","10","","","","",""
"null","<p style=""font-size: 80px;"">+ 0 points</p>","null","html-keyboard-response","119","609408","0.0-11.0-2.118","6062edb8e4285e2902380669","mh4bgn","H W","35","F","{""name"":""Chrome"",""chrome"":true,""version"":""105.0"",""blink"":true,""mac"":true,""osname"":""macOS"",""osversion"":""10.15.7"",""a"":true}","9:19:48","1","3","Test_3","74","f","0","936.2000000178814","1440 x 900","1440 x 900","true","1","0","","","","",""
"null","<p style=""font-size: 80px;"">+ 10 points</p>","null","html-keyboard-response","120","612084","0.0-11.0-2.119","6062edb8e4285e2902380669","mh4bgn","H W","35","F","{""name"":""Chrome"",""chrome"":true,""version"":""105.0"",""blink"":true,""mac"":true,""osname"":""macOS"",""osversion"":""10.15.7"",""a"":true}","9:19:48","1","3","Test_3","70","f","1","667.6000000238419","1440 x 900","1440 x 900","true","1","10","","","","",""
"null","<p style=""font-size: 80px;"">+ 10 points</p>","null","html-keyboard-response","121","614881","0.0-11.0-2.120","6062edb8e4285e2902380669","mh4bgn","H W","35","F","{""name"":""Chrome"",""chrome"":true,""version"":""105.0"",""blink"":true,""mac"":true,""osname"":""macOS"",""osversion"":""10.15.7"",""a"":true}","9:19:48","1","3","Test_4","74","j","1","784","1440 x 900","1440 x 900","true","1","10","","","","",""
"null","<p style=""font-size: 80px;"">+ 10 points</p>","null","html-keyboard-response","122","617620","0.0-11.0-2.121","6062edb8e4285e2902380669","mh4bgn","H W","35","F","{""name"":""Chrome"",""chrome"":true,""version"":""105.0"",""blink"":true,""mac"":true,""osname"":""macOS"",""osversion"":""10.15.7"",""a"":true}","9:19:48","1","3","Test_1","70","f","1","730.1999999880791","1440 x 900","1440 x 900","true","1","10","","","","",""
"null","<p style=""font-size: 80px;"">+ 10 points</p>","null","html-keyboard-response","123","620443","0.0-11.0-2.122","6062edb8e4285e2902380669","mh4bgn","H W","35","F","{""name"":""Chrome"",""chrome"":true,""version"":""105.0"",""blink"":true,""mac"":true,""osname"":""macOS"",""osversion"":""10.15.7"",""a"":true}","9:19:48","1","3","Test_2","74","j","1","818.4000000059605","1440 x 900","1440 x 900","true","1","10","","","","",""
"null","<p style=""font-size: 80px;"">+ 0 points</p>","null","html-keyboard-response","124","623442","0.0-11.0-2.123","6062edb8e4285e2902380669","mh4bgn","H W","35","F","{""name"":""Chrome"",""chrome"":true,""version"":""105.0"",""blink"":true,""mac"":true,""osname"":""macOS"",""osversion"":""10.15.7"",""a"":true}","9:19:48","1","4","Test_4","74","f","0","987","1440 x 900","1440 x 900","true","1","0","","","","",""
"null","<p style=""font-size: 80px;"">+ 0 points</p>","null","html-keyboard-response","125","627056","0.0-11.0-2.124","6062edb8e4285e2902380669","mh4bgn","H W","35","F","{""name"":""Chrome"",""chrome"":true,""version"":""105.0"",""blink"":true,""mac"":true,""osname"":""macOS"",""osversion"":""10.15.7"",""a"":true}","9:19:48","1","4","Test_2","74","f","0","1604","1440 x 900","1440 x 900","true","1","0","","","","",""
"null","<p style=""font-size: 80px;"">+ 10 points</p>","null","html-keyboard-response","126","629827","0.0-11.0-2.125","6062edb8e4285e2902380669","mh4bgn","H W","35","F","{""name"":""Chrome"",""chrome"":true,""version"":""105.0"",""blink"":true,""mac"":true,""osname"":""macOS"",""osversion"":""10.15.7"",""a"":true}","9:19:48","1","4","Test_3","74","j","1","762.3000000119209","1440 x 900","1440 x 900","true","1","10","","","","",""
"null","<p style=""font-size: 80px;"">+ 10 points</p>","null","html-keyboard-response","127","632512","0.0-11.0-2.126","6062edb8e4285e2902380669","mh4bgn","H W","35","F","{""name"":""Chrome"",""chrome"":true,""version"":""105.0"",""blink"":true,""mac"":true,""osname"":""macOS"",""osversion"":""10.15.7"",""a"":true}","9:19:48","1","4","Test_1","74","j","1","681","1440 x 900","1440 x 900","true","1","10","","","","",""
"null","<p style=""font-size: 80px;"">+ 10 points</p>","null","html-keyboard-response","128","635512","0.0-11.0-2.127","6062edb8e4285e2902380669","mh4bgn","H W","35","F","{""name"":""Chrome"",""chrome"":true,""version"":""105.0"",""blink"":true,""mac"":true,""osname"":""macOS"",""osversion"":""10.15.7"",""a"":true}","9:19:48","1","4","Test_4","70","f","1","994.5999999940395","1440 x 900","1440 x 900","true","1","10","","","","",""
"null","<p style=""font-size: 80px;"">+ 10 points</p>","null","html-keyboard-response","129","638165","0.0-11.0-2.128","6062edb8e4285e2902380669","mh4bgn","H W","35","F","{""name"":""Chrome"",""chrome"":true,""version"":""105.0"",""blink"":true,""mac"":true,""osname"":""macOS"",""osversion"":""10.15.7"",""a"":true}","9:19:48","1","4","Test_1","74","j","1","641.9000000059605","1440 x 900","1440 x 900","true","1","10","","","","",""
"null","<p style=""font-size: 80px;"">+ 10 points</p>","null","html-keyboard-response","130","640672","0.0-11.0-2.129","6062edb8e4285e2902380669","mh4bgn","H W","35","F","{""name"":""Chrome"",""chrome"":true,""version"":""105.0"",""blink"":true,""mac"":true,""osname"":""macOS"",""osversion"":""10.15.7"",""a"":true}","9:19:48","1","4","Test_1","74","j","1","493.30000001192093","1440 x 900","1440 x 900","true","1","10","","","","",""
"null","<p style=""font-size: 80px;"">+ 0 points</p>","null","html-keyboard-response","131","643535","0.0-11.0-2.130","6062edb8e4285e2902380669","mh4bgn","H W","35","F","{""name"":""Chrome"",""chrome"":true,""version"":""105.0"",""blink"":true,""mac"":true,""osname"":""macOS"",""osversion"":""10.15.7"",""a"":true}","9:19:48","1","4","Test_3","70","j","0","856.6999999880791","1440 x 900","1440 x 900","true","1","0","","","","",""
"null","<p style=""font-size: 80px;"">+ 10 points</p>","null","html-keyboard-response","132","646127","0.0-11.0-2.131","6062edb8e4285e2902380669","mh4bgn","H W","35","F","{""name"":""Chrome"",""chrome"":true,""version"":""105.0"",""blink"":true,""mac"":true,""osname"":""macOS"",""osversion"":""10.15.7"",""a"":true}","9:19:48","1","4","Test_3","74","j","1","584.5","1440 x 900","1440 x 900","true","1","10","","","","",""
"null","<p style=""font-size: 80px;"">+ 10 points</p>","null","html-keyboard-response","133","648794","0.0-11.0-2.132","6062edb8e4285e2902380669","mh4bgn","H W","35","F","{""name"":""Chrome"",""chrome"":true,""version"":""105.0"",""blink"":true,""mac"":true,""osname"":""macOS"",""osversion"":""10.15.7"",""a"":true}","9:19:48","1","4","Test_4","70","f","1","661.8000000119209","1440 x 900","1440 x 900","true","1","10","","","","",""
"null","<p style=""font-size: 80px;"">+ 10 points</p>","null","html-keyboard-response","134","651410","0.0-11.0-2.133","6062edb8e4285e2902380669","mh4bgn","H W","35","F","{""name"":""Chrome"",""chrome"":true,""version"":""105.0"",""blink"":true,""mac"":true,""osname"":""macOS"",""osversion"":""10.15.7"",""a"":true}","9:19:48","1","4","Test_2","70","f","1","612.2000000178814","1440 x 900","1440 x 900","true","1","10","","","","",""
"null","<p style=""font-size: 80px;"">+ 10 points</p>","null","html-keyboard-response","135","654160","0.0-11.0-2.134","6062edb8e4285e2902380669","mh4bgn","H W","35","F","{""name"":""Chrome"",""chrome"":true,""version"":""105.0"",""blink"":true,""mac"":true,""osname"":""macOS"",""osversion"":""10.15.7"",""a"":true}","9:19:48","1","4","Test_4","70","f","1","746.2000000178814","1440 x 900","1440 x 900","true","1","10","","","","",""
"null","<p style=""font-size: 80px;"">+ 10 points</p>","null","html-keyboard-response","136","656872","0.0-11.0-2.135","6062edb8e4285e2902380669","mh4bgn","H W","35","F","{""name"":""Chrome"",""chrome"":true,""version"":""105.0"",""blink"":true,""mac"":true,""osname"":""macOS"",""osversion"":""10.15.7"",""a"":true}","9:19:48","1","4","Test_2","70","f","1","704.8000000119209","1440 x 900","1440 x 900","true","1","10","","","","",""
"null","<p style=""font-size: 80px;"">+ 10 points</p>","null","html-keyboard-response","137","659447","0.0-11.0-2.136","6062edb8e4285e2902380669","mh4bgn","H W","35","F","{""name"":""Chrome"",""chrome"":true,""version"":""105.0"",""blink"":true,""mac"":true,""osname"":""macOS"",""osversion"":""10.15.7"",""a"":true}","9:19:48","1","4","Test_2","70","f","1","565.5","1440 x 900","1440 x 900","true","1","10","","","","",""
"null","<p style=""font-size: 80px;"">+ 10 points</p>","null","html-keyboard-response","138","662065","0.0-11.0-2.137","6062edb8e4285e2902380669","mh4bgn","H W","35","F","{""name"":""Chrome"",""chrome"":true,""version"":""105.0"",""blink"":true,""mac"":true,""osname"":""macOS"",""osversion"":""10.15.7"",""a"":true}","9:19:48","1","4","Test_1","74","j","1","611","1440 x 900","1440 x 900","true","1","10","","","","",""
"null","<p style=""font-size: 80px;"">+ 10 points</p>","null","html-keyboard-response","139","664941","0.0-11.0-2.138","6062edb8e4285e2902380669","mh4bgn","H W","35","F","{""name"":""Chrome"",""chrome"":true,""version"":""105.0"",""blink"":true,""mac"":true,""osname"":""macOS"",""osversion"":""10.15.7"",""a"":true}","9:19:48","1","4","Test_3","74","j","1","870.8000000119209","1440 x 900","1440 x 900","true","1","10","","","","",""
"null","<p style=""font-size: 80px;"">+ 10 points</p>","null","html-keyboard-response","140","667395","0.0-11.0-2.139","6062edb8e4285e2902380669","mh4bgn","H W","35","F","{""name"":""Chrome"",""chrome"":true,""version"":""105.0"",""blink"":true,""mac"":true,""osname"":""macOS"",""osversion"":""10.15.7"",""a"":true}","9:19:48","1","4","Test_3","74","j","1","446.19999998807907","1440 x 900","1440 x 900","true","1","10","","","","",""
"null","<p style=""font-size: 80px;"">+ 10 points</p>","null","html-keyboard-response","141","670105","0.0-11.0-2.140","6062edb8e4285e2902380669","mh4bgn","H W","35","F","{""name"":""Chrome"",""chrome"":true,""version"":""105.0"",""blink"":true,""mac"":true,""osname"":""macOS"",""osversion"":""10.15.7"",""a"":true}","9:19:48","1","4","Test_4","70","f","1","703.9000000059605","1440 x 900","1440 x 900","true","1","10","","","","",""
"null","<p style=""font-size: 80px;"">+ 0 points</p>","null","html-keyboard-response","142","672810","0.0-11.0-2.141","6062edb8e4285e2902380669","mh4bgn","H W","35","F","{""name"":""Chrome"",""chrome"":true,""version"":""105.0"",""blink"":true,""mac"":true,""osname"":""macOS"",""osversion"":""10.15.7"",""a"":true}","9:19:48","1","3","Test_3","74","f","0","697.7999999821186","1440 x 900","1440 x 900","true","1","0","","","","",""
"null","<p style=""font-size: 80px;"">+ 0 points</p>","null","html-keyboard-response","143","675593","0.0-11.0-2.142","6062edb8e4285e2902380669","mh4bgn","H W","35","F","{""name"":""Chrome"",""chrome"":true,""version"":""105.0"",""blink"":true,""mac"":true,""osname"":""macOS"",""osversion"":""10.15.7"",""a"":true}","9:19:48","1","3","Test_4","70","j","0","775.1999999880791","1440 x 900","1440 x 900","true","1","0","","","","",""
"null","<p style=""font-size: 80px;"">+ 10 points</p>","null","html-keyboard-response","144","678344","0.0-11.0-2.143","6062edb8e4285e2902380669","mh4bgn","H W","35","F","{""name"":""Chrome"",""chrome"":true,""version"":""105.0"",""blink"":true,""mac"":true,""osname"":""macOS"",""osversion"":""10.15.7"",""a"":true}","9:19:48","1","3","Test_4","74","j","1","746.2000000178814","1440 x 900","1440 x 900","true","1","10","","","","",""
"null","<p style=""font-size: 80px;"">+ 10 points</p>","null","html-keyboard-response","145","681312","0.0-11.0-2.144","6062edb8e4285e2902380669","mh4bgn","H W","35","F","{""name"":""Chrome"",""chrome"":true,""version"":""105.0"",""blink"":true,""mac"":true,""osname"":""macOS"",""osversion"":""10.15.7"",""a"":true}","9:19:48","1","3","Test_4","74","j","1","962.5999999940395","1440 x 900","1440 x 900","true","1","10","","","","",""
"null","<p style=""font-size: 80px;"">+ 10 points</p>","null","html-keyboard-response","146","684227","0.0-11.0-2.145","6062edb8e4285e2902380669","mh4bgn","H W","35","F","{""name"":""Chrome"",""chrome"":true,""version"":""105.0"",""blink"":true,""mac"":true,""osname"":""macOS"",""osversion"":""10.15.7"",""a"":true}","9:19:48","1","3","Test_2","74","j","1","906.7000000178814","1440 x 900","1440 x 900","true","1","10","","","","",""
"null","<p style=""font-size: 80px;"">+ 10 points</p>","null","html-keyboard-response","147","687350","0.0-11.0-2.146","6062edb8e4285e2902380669","mh4bgn","H W","35","F","{""name"":""Chrome"",""chrome"":true,""version"":""105.0"",""blink"":true,""mac"":true,""osname"":""macOS"",""osversion"":""10.15.7"",""a"":true}","9:19:48","1","3","Test_3","70","f","1","1112.7000000178814","1440 x 900","1440 x 900","true","1","10","","","","",""
"null","<p style=""font-size: 80px;"">+ 10 points</p>","null","html-keyboard-response","148","690507","0.0-11.0-2.147","6062edb8e4285e2902380669","mh4bgn","H W","35","F","{""name"":""Chrome"",""chrome"":true,""version"":""105.0"",""blink"":true,""mac"":true,""osname"":""macOS"",""osversion"":""10.15.7"",""a"":true}","9:19:48","1","3","Test_1","70","f","1","1149.7000000178814","1440 x 900","1440 x 900","true","1","10","","","","",""
"null","<p style=""font-size: 80px;"">+ 10 points</p>","null","html-keyboard-response","149","693164","0.0-11.0-2.148","6062edb8e4285e2902380669","mh4bgn","H W","35","F","{""name"":""Chrome"",""chrome"":true,""version"":""105.0"",""blink"":true,""mac"":true,""osname"":""macOS"",""osversion"":""10.15.7"",""a"":true}","9:19:48","1","3","Test_3","70","f","1","651.0999999940395","1440 x 900","1440 x 900","true","1","10","","","","",""
"null","<p style=""font-size: 80px;"">+ 10 points</p>","null","html-keyboard-response","150","695672","0.0-11.0-2.149","6062edb8e4285e2902380669","mh4bgn","H W","35","F","{""name"":""Chrome"",""chrome"":true,""version"":""105.0"",""blink"":true,""mac"":true,""osname"":""macOS"",""osversion"":""10.15.7"",""a"":true}","9:19:48","1","3","Test_1","70","f","1","500.40000000596046","1440 x 900","1440 x 900","true","1","10","","","","",""
"null","<p style=""font-size: 80px;"">+ 10 points</p>","null","html-keyboard-response","151","698312","0.0-11.0-2.150","6062edb8e4285e2902380669","mh4bgn","H W","35","F","{""name"":""Chrome"",""chrome"":true,""version"":""105.0"",""blink"":true,""mac"":true,""osname"":""macOS"",""osversion"":""10.15.7"",""a"":true}","9:19:48","1","3","Test_2","74","j","1","636","1440 x 900","1440 x 900","true","1","10","","","","",""
"null","<p style=""font-size: 80px;"">+ 10 points</p>","null","html-keyboard-response","152","700831","0.0-11.0-2.151","6062edb8e4285e2902380669","mh4bgn","H W","35","F","{""name"":""Chrome"",""chrome"":true,""version"":""105.0"",""blink"":true,""mac"":true,""osname"":""macOS"",""osversion"":""10.15.7"",""a"":true}","9:19:48","1","3","Test_1","70","f","1","511.09999999403954","1440 x 900","1440 x 900","true","1","10","","","","",""
"null","<p style=""font-size: 80px;"">+ 10 points</p>","null","html-keyboard-response","153","703498","0.0-11.0-2.152","6062edb8e4285e2902380669","mh4bgn","H W","35","F","{""name"":""Chrome"",""chrome"":true,""version"":""105.0"",""blink"":true,""mac"":true,""osname"":""macOS"",""osversion"":""10.15.7"",""a"":true}","9:19:48","1","3","Test_2","74","j","1","658.1999999880791","1440 x 900","1440 x 900","true","1","10","","","","",""
"null","<p style=""font-size: 80px;"">+ 10 points</p>","null","html-keyboard-response","154","706348","0.0-11.0-2.153","6062edb8e4285e2902380669","mh4bgn","H W","35","F","{""name"":""Chrome"",""chrome"":true,""version"":""105.0"",""blink"":true,""mac"":true,""osname"":""macOS"",""osversion"":""10.15.7"",""a"":true}","9:19:48","1","3","Test_2","74","j","1","841.8000000119209","1440 x 900","1440 x 900","true","1","10","","","","",""
"null","<p style=""font-size: 80px;"">+ 10 points</p>","null","html-keyboard-response","155","709018","0.0-11.0-2.154","6062edb8e4285e2902380669","mh4bgn","H W","35","F","{""name"":""Chrome"",""chrome"":true,""version"":""105.0"",""blink"":true,""mac"":true,""osname"":""macOS"",""osversion"":""10.15.7"",""a"":true}","9:19:48","1","3","Test_2","74","j","1","662.0999999940395","1440 x 900","1440 x 900","true","1","10","","","","",""
"null","<p style=""font-size: 80px;"">+ 10 points</p>","null","html-keyboard-response","156","711867","0.0-11.0-2.155","6062edb8e4285e2902380669","mh4bgn","H W","35","F","{""name"":""Chrome"",""chrome"":true,""version"":""105.0"",""blink"":true,""mac"":true,""osname"":""macOS"",""osversion"":""10.15.7"",""a"":true}","9:19:48","1","3","Test_4","74","j","1","844.3000000119209","1440 x 900","1440 x 900","true","1","10","","","","",""
"null","<p style=""font-size: 80px;"">+ 10 points</p>","null","html-keyboard-response","157","714650","0.0-11.0-2.156","6062edb8e4285e2902380669","mh4bgn","H W","35","F","{""name"":""Chrome"",""chrome"":true,""version"":""105.0"",""blink"":true,""mac"":true,""osname"":""macOS"",""osversion"":""10.15.7"",""a"":true}","9:19:48","1","3","Test_3","70","f","1","772.6999999880791","1440 x 900","1440 x 900","true","1","10","","","","",""
"null","<p style=""font-size: 80px;"">+ 0 points</p>","null","html-keyboard-response","158","717415","0.0-11.0-2.157","6062edb8e4285e2902380669","mh4bgn","H W","35","F","{""name"":""Chrome"",""chrome"":true,""version"":""105.0"",""blink"":true,""mac"":true,""osname"":""macOS"",""osversion"":""10.15.7"",""a"":true}","9:19:48","1","3","Test_1","74","f","0","753.3000000119209","1440 x 900","1440 x 900","true","1","0","","","","",""
"null","<p style=""font-size: 80px;"">+ 10 points</p>","null","html-keyboard-response","159","720744","0.0-11.0-2.158","6062edb8e4285e2902380669","mh4bgn","H W","35","F","{""name"":""Chrome"",""chrome"":true,""version"":""105.0"",""blink"":true,""mac"":true,""osname"":""macOS"",""osversion"":""10.15.7"",""a"":true}","9:19:48","1","3","Test_3","70","f","1","1315.9000000059605","1440 x 900","1440 x 900","true","1","10","","","","",""
"null","<p style=""font-size: 80px;"">+ 10 points</p>","null","html-keyboard-response","160","723568","0.0-11.0-2.159","6062edb8e4285e2902380669","mh4bgn","H W","35","F","{""name"":""Chrome"",""chrome"":true,""version"":""105.0"",""blink"":true,""mac"":true,""osname"":""macOS"",""osversion"":""10.15.7"",""a"":true}","9:19:48","1","3","Test_4","74","j","1","815.3999999761581","1440 x 900","1440 x 900","true","1","10","","","","",""
"null","<p style=""font-size: 80px;"">+ 10 points</p>","null","html-keyboard-response","161","726427","0.0-11.0-2.160","6062edb8e4285e2902380669","mh4bgn","H W","35","F","{""name"":""Chrome"",""chrome"":true,""version"":""105.0"",""blink"":true,""mac"":true,""osname"":""macOS"",""osversion"":""10.15.7"",""a"":true}","9:19:48","1","3","Test_1","70","f","1","848.3000000119209","1440 x 900","1440 x 900","true","1","10","","","","",""
"null","<p style=""font-size: 80px;"">+ 0 points</p>","null","html-keyboard-response","162","729077","0.0-11.0-2.161","6062edb8e4285e2902380669","mh4bgn","H W","35","F","{""name"":""Chrome"",""chrome"":true,""version"":""105.0"",""blink"":true,""mac"":true,""osname"":""macOS"",""osversion"":""10.15.7"",""a"":true}","9:19:48","1","4","Test_1","70","j","0","646.6999999880791","1440 x 900","1440 x 900","true","1","0","","","","",""
"null","<p style=""font-size: 80px;"">+ 0 points</p>","null","html-keyboard-response","163","731616","0.0-11.0-2.162","6062edb8e4285e2902380669","mh4bgn","H W","35","F","{""name"":""Chrome"",""chrome"":true,""version"":""105.0"",""blink"":true,""mac"":true,""osname"":""macOS"",""osversion"":""10.15.7"",""a"":true}","9:19:48","1","4","Test_1","70","j","0","529","1440 x 900","1440 x 900","true","1","0","","","","",""
"null","<p style=""font-size: 80px;"">+ 10 points</p>","null","html-keyboard-response","164","734851","0.0-11.0-2.163","6062edb8e4285e2902380669","mh4bgn","H W","35","F","{""name"":""Chrome"",""chrome"":true,""version"":""105.0"",""blink"":true,""mac"":true,""osname"":""macOS"",""osversion"":""10.15.7"",""a"":true}","9:19:48","1","4","Test_3","74","j","1","1222.699999988079","1440 x 900","1440 x 900","true","1","10","","","","",""
"null","<p style=""font-size: 80px;"">+ 10 points</p>","null","html-keyboard-response","165","738008","0.0-11.0-2.164","6062edb8e4285e2902380669","mh4bgn","H W","35","F","{""name"":""Chrome"",""chrome"":true,""version"":""105.0"",""blink"":true,""mac"":true,""osname"":""macOS"",""osversion"":""10.15.7"",""a"":true}","9:19:48","1","4","Test_4","70","f","1","1146.7999999821186","1440 x 900","1440 x 900","true","1","10","","","","",""
"null","<p style=""font-size: 80px;"">+ 10 points</p>","null","html-keyboard-response","166","741001","0.0-11.0-2.165","6062edb8e4285e2902380669","mh4bgn","H W","35","F","{""name"":""Chrome"",""chrome"":true,""version"":""105.0"",""blink"":true,""mac"":true,""osname"":""macOS"",""osversion"":""10.15.7"",""a"":true}","9:19:48","1","4","Test_2","70","f","1","985.5","1440 x 900","1440 x 900","true","1","10","","","","",""
"null","<p style=""font-size: 80px;"">+ 10 points</p>","null","html-keyboard-response","167","744004","0.0-11.0-2.166","6062edb8e4285e2902380669","mh4bgn","H W","35","F","{""name"":""Chrome"",""chrome"":true,""version"":""105.0"",""blink"":true,""mac"":true,""osname"":""macOS"",""osversion"":""10.15.7"",""a"":true}","9:19:48","1","4","Test_3","74","j","1","998.6000000238419","1440 x 900","1440 x 900","true","1","10","","","","",""
"null","<p style=""font-size: 80px;"">+ 10 points</p>","null","html-keyboard-response","168","746589","0.0-11.0-2.167","6062edb8e4285e2902380669","mh4bgn","H W","35","F","{""name"":""Chrome"",""chrome"":true,""version"":""105.0"",""blink"":true,""mac"":true,""osname"":""macOS"",""osversion"":""10.15.7"",""a"":true}","9:19:48","1","4","Test_3","74","j","1","577.0999999940395","1440 x 900","1440 x 900","true","1","10","","","","",""
"null","<p style=""font-size: 80px;"">+ 10 points</p>","null","html-keyboard-response","169","749119","0.0-11.0-2.168","6062edb8e4285e2902380669","mh4bgn","H W","35","F","{""name"":""Chrome"",""chrome"":true,""version"":""105.0"",""blink"":true,""mac"":true,""osname"":""macOS"",""osversion"":""10.15.7"",""a"":true}","9:19:48","1","4","Test_2","70","f","1","519.4000000059605","1440 x 900","1440 x 900","true","1","10","","","","",""
"null","<p style=""font-size: 80px;"">+ 10 points</p>","null","html-keyboard-response","170","751941","0.0-11.0-2.169","6062edb8e4285e2902380669","mh4bgn","H W","35","F","{""name"":""Chrome"",""chrome"":true,""version"":""105.0"",""blink"":true,""mac"":true,""osname"":""macOS"",""osversion"":""10.15.7"",""a"":true}","9:19:48","1","4","Test_1","74","j","1","814.4000000059605","1440 x 900","1440 x 900","true","1","10","","","","",""
"null","<p style=""font-size: 80px;"">+ 10 points</p>","null","html-keyboard-response","171","754999","0.0-11.0-2.170","6062edb8e4285e2902380669","mh4bgn","H W","35","F","{""name"":""Chrome"",""chrome"":true,""version"":""105.0"",""blink"":true,""mac"":true,""osname"":""macOS"",""osversion"":""10.15.7"",""a"":true}","9:19:48","1","4","Test_4","70","f","1","1049.5","1440 x 900","1440 x 900","true","1","10","","","","",""
"null","<p style=""font-size: 80px;"">+ 10 points</p>","null","html-keyboard-response","172","757673","0.0-11.0-2.171","6062edb8e4285e2902380669","mh4bgn","H W","35","F","{""name"":""Chrome"",""chrome"":true,""version"":""105.0"",""blink"":true,""mac"":true,""osname"":""macOS"",""osversion"":""10.15.7"",""a"":true}","9:19:48","1","4","Test_3","74","j","1","664.8000000119209","1440 x 900","1440 x 900","true","1","10","","","","",""
"null","<p style=""font-size: 80px;"">+ 10 points</p>","null","html-keyboard-response","173","760417","0.0-11.0-2.172","6062edb8e4285e2902380669","mh4bgn","H W","35","F","{""name"":""Chrome"",""chrome"":true,""version"":""105.0"",""blink"":true,""mac"":true,""osname"":""macOS"",""osversion"":""10.15.7"",""a"":true}","9:19:48","1","4","Test_4","70","f","1","736","1440 x 900","1440 x 900","true","1","10","","","","",""
"null","<p style=""font-size: 80px;"">+ 10 points</p>","null","html-keyboard-response","174","763331","0.0-11.0-2.173","6062edb8e4285e2902380669","mh4bgn","H W","35","F","{""name"":""Chrome"",""chrome"":true,""version"":""105.0"",""blink"":true,""mac"":true,""osname"":""macOS"",""osversion"":""10.15.7"",""a"":true}","9:19:48","1","4","Test_1","74","j","1","907.1999999880791","1440 x 900","1440 x 900","true","1","10","","","","",""
"null","<p style=""font-size: 80px;"">+ 10 points</p>","null","html-keyboard-response","175","765873","0.0-11.0-2.174","6062edb8e4285e2902380669","mh4bgn","H W","35","F","{""name"":""Chrome"",""chrome"":true,""version"":""105.0"",""blink"":true,""mac"":true,""osname"":""macOS"",""osversion"":""10.15.7"",""a"":true}","9:19:48","1","4","Test_2","70","f","1","527.9000000059605","1440 x 900","1440 x 900","true","1","10","","","","",""
"null","<p style=""font-size: 80px;"">+ 10 points</p>","null","html-keyboard-response","176","769067","0.0-11.0-2.175","6062edb8e4285e2902380669","mh4bgn","H W","35","F","{""name"":""Chrome"",""chrome"":true,""version"":""105.0"",""blink"":true,""mac"":true,""osname"":""macOS"",""osversion"":""10.15.7"",""a"":true}","9:19:48","1","4","Test_2","70","f","1","1185.9000000059605","1440 x 900","1440 x 900","true","1","10","","","","",""
"null","<p style=""font-size: 80px;"">+ 0 points</p>","null","html-keyboard-response","177","771756","0.0-11.0-2.176","6062edb8e4285e2902380669","mh4bgn","H W","35","F","{""name"":""Chrome"",""chrome"":true,""version"":""105.0"",""blink"":true,""mac"":true,""osname"":""macOS"",""osversion"":""10.15.7"",""a"":true}","9:19:48","1","3","Test_4","70","j","0","680.7999999821186","1440 x 900","1440 x 900","true","1","0","","","","",""
"null","<p style=""font-size: 80px;"">+ 10 points</p>","null","html-keyboard-response","178","774512","0.0-11.0-2.177","6062edb8e4285e2902380669","mh4bgn","H W","35","F","{""name"":""Chrome"",""chrome"":true,""version"":""105.0"",""blink"":true,""mac"":true,""osname"":""macOS"",""osversion"":""10.15.7"",""a"":true}","9:19:48","1","3","Test_4","74","j","1","747.9000000059605","1440 x 900","1440 x 900","true","1","10","","","","",""
"null","<p style=""font-size: 80px;"">+ 10 points</p>","null","html-keyboard-response","179","777071","0.0-11.0-2.178","6062edb8e4285e2902380669","mh4bgn","H W","35","F","{""name"":""Chrome"",""chrome"":true,""version"":""105.0"",""blink"":true,""mac"":true,""osname"":""macOS"",""osversion"":""10.15.7"",""a"":true}","9:19:48","1","3","Test_4","74","j","1","554.7999999821186","1440 x 900","1440 x 900","true","1","10","","","","",""
"null","<p style=""font-size: 80px;"">+ 10 points</p>","null","html-keyboard-response","180","779774","0.0-11.0-2.179","6062edb8e4285e2902380669","mh4bgn","H W","35","F","{""name"":""Chrome"",""chrome"":true,""version"":""105.0"",""blink"":true,""mac"":true,""osname"":""macOS"",""osversion"":""10.15.7"",""a"":true}","9:19:48","1","3","Test_3","70","f","1","693.7000000178814","1440 x 900","1440 x 900","true","1","10","","","","",""
"null","<p style=""font-size: 80px;"">+ 10 points</p>","null","html-keyboard-response","181","782615","0.0-11.0-2.180","6062edb8e4285e2902380669","mh4bgn","H W","35","F","{""name"":""Chrome"",""chrome"":true,""version"":""105.0"",""blink"":true,""mac"":true,""osname"":""macOS"",""osversion"":""10.15.7"",""a"":true}","9:19:48","1","3","Test_3","70","f","1","832.5","1440 x 900","1440 x 900","true","1","10","","","","",""
"null","<p style=""font-size: 80px;"">+ 10 points</p>","null","html-keyboard-response","182","785279","0.0-11.0-2.181","6062edb8e4285e2902380669","mh4bgn","H W","35","F","{""name"":""Chrome"",""chrome"":true,""version"":""105.0"",""blink"":true,""mac"":true,""osname"":""macOS"",""osversion"":""10.15.7"",""a"":true}","9:19:48","1","3","Test_3","70","f","1","660.5","1440 x 900","1440 x 900","true","1","10","","","","",""
"null","<p style=""font-size: 80px;"">+ 10 points</p>","null","html-keyboard-response","183","788691","0.0-11.0-2.182","6062edb8e4285e2902380669","mh4bgn","H W","35","F","{""name"":""Chrome"",""chrome"":true,""version"":""105.0"",""blink"":true,""mac"":true,""osname"":""macOS"",""osversion"":""10.15.7"",""a"":true}","9:19:48","1","3","Test_1","70","f","1","1401.800000011921","1440 x 900","1440 x 900","true","1","10","","","","",""
"null","<p style=""font-size: 80px;"">+ 10 points</p>","null","html-keyboard-response","184","791749","0.0-11.0-2.183","6062edb8e4285e2902380669","mh4bgn","H W","35","F","{""name"":""Chrome"",""chrome"":true,""version"":""105.0"",""blink"":true,""mac"":true,""osname"":""macOS"",""osversion"":""10.15.7"",""a"":true}","9:19:48","1","3","Test_3","70","f","1","1046.699999988079","1440 x 900","1440 x 900","true","1","10","","","","",""
"null","<p style=""font-size: 80px;"">+ 10 points</p>","null","html-keyboard-response","185","794685","0.0-11.0-2.184","6062edb8e4285e2902380669","mh4bgn","H W","35","F","{""name"":""Chrome"",""chrome"":true,""version"":""105.0"",""blink"":true,""mac"":true,""osname"":""macOS"",""osversion"":""10.15.7"",""a"":true}","9:19:48","1","3","Test_2","74","j","1","927","1440 x 900","1440 x 900","true","1","10","","","","",""
"null","<p style=""font-size: 80px;"">+ 10 points</p>","null","html-keyboard-response","186","797546","0.0-11.0-2.185","6062edb8e4285e2902380669","mh4bgn","H W","35","F","{""name"":""Chrome"",""chrome"":true,""version"":""105.0"",""blink"":true,""mac"":true,""osname"":""macOS"",""osversion"":""10.15.7"",""a"":true}","9:19:48","1","3","Test_1","70","f","1","853.2999999821186","1440 x 900","1440 x 900","true","1","10","","","","",""
"null","<p style=""font-size: 80px;"">+ 10 points</p>","null","html-keyboard-response","187","800265","0.0-11.0-2.186","6062edb8e4285e2902380669","mh4bgn","H W","35","F","{""name"":""Chrome"",""chrome"":true,""version"":""105.0"",""blink"":true,""mac"":true,""osname"":""macOS"",""osversion"":""10.15.7"",""a"":true}","9:19:48","1","3","Test_4","74","j","1","710.8000000119209","1440 x 900","1440 x 900","true","1","10","","","","",""
"null","<p style=""font-size: 80px;"">+ 10 points</p>","null","html-keyboard-response","188","803134","0.0-11.0-2.187","6062edb8e4285e2902380669","mh4bgn","H W","35","F","{""name"":""Chrome"",""chrome"":true,""version"":""105.0"",""blink"":true,""mac"":true,""osname"":""macOS"",""osversion"":""10.15.7"",""a"":true}","9:19:48","1","3","Test_2","74","j","1","857","1440 x 900","1440 x 900","true","1","10","","","","",""
"null","<p style=""font-size: 80px;"">+ 10 points</p>","null","html-keyboard-response","189","805985","0.0-11.0-2.188","6062edb8e4285e2902380669","mh4bgn","H W","35","F","{""name"":""Chrome"",""chrome"":true,""version"":""105.0"",""blink"":true,""mac"":true,""osname"":""macOS"",""osversion"":""10.15.7"",""a"":true}","9:19:48","1","3","Test_2","74","j","1","837.5","1440 x 900","1440 x 900","true","1","10","","","","",""
