"rt","stimulus","key_press","trial_type","trial_index","time_elapsed","internal_node_id","Prolific_ID","random_ID","initials","age","gender","pc_info","start_time","Phase","Rule","Stimulus","Response","CorrResp","Accuracy","ResponseTime","screen_resolution","window_resolution","focus","relevant","Points","responses","question_order","rev_check","butterfly_check","passed_practice"
"null","<p style=""font-size: 80px;"">+ 10 points</p>","null","html-keyboard-response","1","70410","0.0-7.0-2.0","5d973ebf47985300199edb9b","88lbbu","HK","21","F","{""name"":""Chrome"",""chrome"":true,""version"":""106.0"",""blink"":true,""mac"":true,""osname"":""macOS"",""osversion"":""10.15.7"",""a"":true}","9:17:2","0","1","Practice_3","70","f","1","866.8999999985099","1440 x 900","1440 x 900","true","1","10","","","","",""
"null","<p style=""font-size: 80px;"">+ 10 points</p>","null","html-keyboard-response","2","72898","0.0-7.0-2.1","5d973ebf47985300199edb9b","88lbbu","HK","21","F","{""name"":""Chrome"",""chrome"":true,""version"":""106.0"",""blink"":true,""mac"":true,""osname"":""macOS"",""osversion"":""10.15.7"",""a"":true}","9:17:2","0","1","Practice_3","70","f","1","474.70000000298023","1440 x 900","1440 x 900","true","1","10","","","","",""
"null","<p style=""font-size: 80px;"">+ 10 points</p>","null","html-keyboard-response","3","75743","0.0-7.0-2.2","5d973ebf47985300199edb9b","88lbbu","HK","21","F","{""name"":""Chrome"",""chrome"":true,""version"":""106.0"",""blink"":true,""mac"":true,""osname"":""macOS"",""osversion"":""10.15.7"",""a"":true}","9:17:2","0","1","Practice_4","74","j","1","834.1000000014901","1440 x 900","1440 x 900","true","1","10","","","","",""
"null","<p style=""font-size: 80px;"">+ 10 points</p>","null","html-keyboard-response","4","78237","0.0-7.0-2.3","5d973ebf47985300199edb9b","88lbbu","HK","21","F","{""name"":""Chrome"",""chrome"":true,""version"":""106.0"",""blink"":true,""mac"":true,""osname"":""macOS"",""osversion"":""10.15.7"",""a"":true}","9:17:2","0","1","Practice_4","74","j","1","488.8999999985099","1440 x 900","1440 x 900","true","1","10","","","","",""
"null","<p style=""font-size: 80px;"">+ 10 points</p>","null","html-keyboard-response","5","80893","0.0-7.0-2.4","5d973ebf47985300199edb9b","88lbbu","HK","21","F","{""name"":""Chrome"",""chrome"":true,""version"":""106.0"",""blink"":true,""mac"":true,""osname"":""macOS"",""osversion"":""10.15.7"",""a"":true}","9:17:2","0","1","Practice_2","74","j","1","647","1440 x 900","1440 x 900","true","1","10","","","","",""
"null","<p style=""font-size: 80px;"">+ 10 points</p>","null","html-keyboard-response","6","83558","0.0-7.0-2.5","5d973ebf47985300199edb9b","88lbbu","HK","21","F","{""name"":""Chrome"",""chrome"":true,""version"":""106.0"",""blink"":true,""mac"":true,""osname"":""macOS"",""osversion"":""10.15.7"",""a"":true}","9:17:2","0","1","Practice_4","74","j","1","650.3999999985099","1440 x 900","1440 x 900","true","1","10","","","","",""
"null","<p style=""font-size: 80px;"">+ 10 points</p>","null","html-keyboard-response","7","86059","0.0-7.0-2.6","5d973ebf47985300199edb9b","88lbbu","HK","21","F","{""name"":""Chrome"",""chrome"":true,""version"":""106.0"",""blink"":true,""mac"":true,""osname"":""macOS"",""osversion"":""10.15.7"",""a"":true}","9:17:2","0","1","Practice_2","74","j","1","496.1000000014901","1440 x 900","1440 x 900","true","1","10","","","","",""
"null","<p style=""font-size: 80px;"">+ 10 points</p>","null","html-keyboard-response","8","88572","0.0-7.0-2.7","5d973ebf47985300199edb9b","88lbbu","HK","21","F","{""name"":""Chrome"",""chrome"":true,""version"":""106.0"",""blink"":true,""mac"":true,""osname"":""macOS"",""osversion"":""10.15.7"",""a"":true}","9:17:2","0","1","Practice_3","70","f","1","504.79999999701977","1440 x 900","1440 x 900","true","1","10","","","","",""
"null","<p style=""font-size: 80px;"">+ 10 points</p>","null","html-keyboard-response","9","91232","0.0-7.0-2.8","5d973ebf47985300199edb9b","88lbbu","HK","21","F","{""name"":""Chrome"",""chrome"":true,""version"":""106.0"",""blink"":true,""mac"":true,""osname"":""macOS"",""osversion"":""10.15.7"",""a"":true}","9:17:2","0","1","Practice_1","70","f","1","650.2999999970198","1440 x 900","1440 x 900","true","1","10","","","","",""
"null","<p style=""font-size: 80px;"">+ 10 points</p>","null","html-keyboard-response","10","93893","0.0-7.0-2.9","5d973ebf47985300199edb9b","88lbbu","HK","21","F","{""name"":""Chrome"",""chrome"":true,""version"":""106.0"",""blink"":true,""mac"":true,""osname"":""macOS"",""osversion"":""10.15.7"",""a"":true}","9:17:2","0","1","Practice_1","70","f","1","652","1440 x 900","1440 x 900","true","1","10","","","","",""
"null","<p style=""font-size: 80px;"">+ 10 points</p>","null","html-keyboard-response","11","96390","0.0-7.0-2.10","5d973ebf47985300199edb9b","88lbbu","HK","21","F","{""name"":""Chrome"",""chrome"":true,""version"":""106.0"",""blink"":true,""mac"":true,""osname"":""macOS"",""osversion"":""10.15.7"",""a"":true}","9:17:2","0","1","Practice_2","74","j","1","485.30000000447035","1440 x 900","1440 x 900","true","1","10","","","","",""
"null","<p style=""font-size: 80px;"">+ 10 points</p>","null","html-keyboard-response","12","98938","0.0-7.0-2.11","5d973ebf47985300199edb9b","88lbbu","HK","21","F","{""name"":""Chrome"",""chrome"":true,""version"":""106.0"",""blink"":true,""mac"":true,""osname"":""macOS"",""osversion"":""10.15.7"",""a"":true}","9:17:2","0","1","Practice_1","70","f","1","543.6000000014901","1440 x 900","1440 x 900","true","1","10","","","","",""
"null","<p style=""font-size: 80px;"">+ 10 points</p>","null","html-keyboard-response","13","101344","0.0-7.0-2.12","5d973ebf47985300199edb9b","88lbbu","HK","21","F","{""name"":""Chrome"",""chrome"":true,""version"":""106.0"",""blink"":true,""mac"":true,""osname"":""macOS"",""osversion"":""10.15.7"",""a"":true}","9:17:2","0","1","Practice_3","70","f","1","398.40000000596046","1440 x 900","1440 x 900","true","1","10","","","","",""
"null","<p style=""font-size: 80px;"">+ 10 points</p>","null","html-keyboard-response","14","103770","0.0-7.0-2.13","5d973ebf47985300199edb9b","88lbbu","HK","21","F","{""name"":""Chrome"",""chrome"":true,""version"":""106.0"",""blink"":true,""mac"":true,""osname"":""macOS"",""osversion"":""10.15.7"",""a"":true}","9:17:2","0","1","Practice_4","74","j","1","413.8999999985099","1440 x 900","1440 x 900","true","1","10","","","","",""
"null","<p style=""font-size: 80px;"">+ 10 points</p>","null","html-keyboard-response","15","106556","0.0-7.0-2.14","5d973ebf47985300199edb9b","88lbbu","HK","21","F","{""name"":""Chrome"",""chrome"":true,""version"":""106.0"",""blink"":true,""mac"":true,""osname"":""macOS"",""osversion"":""10.15.7"",""a"":true}","9:17:2","0","1","Practice_1","70","f","1","775.5999999940395","1440 x 900","1440 x 900","true","1","10","","","","",""
"null","<p style=""font-size: 80px;"">+ 10 points</p>","null","html-keyboard-response","16","109550","0.0-7.0-2.15","5d973ebf47985300199edb9b","88lbbu","HK","21","F","{""name"":""Chrome"",""chrome"":true,""version"":""106.0"",""blink"":true,""mac"":true,""osname"":""macOS"",""osversion"":""10.15.7"",""a"":true}","9:17:2","0","1","Practice_2","74","j","1","985.7000000029802","1440 x 900","1440 x 900","true","1","10","","","","",""
"null","<p style=""font-size: 80px;"">+ 10 points</p>","null","html-keyboard-response","17","112043","0.0-7.0-2.16","5d973ebf47985300199edb9b","88lbbu","HK","21","F","{""name"":""Chrome"",""chrome"":true,""version"":""106.0"",""blink"":true,""mac"":true,""osname"":""macOS"",""osversion"":""10.15.7"",""a"":true}","9:17:2","0","1","Practice_1","70","f","1","482.3999999985099","1440 x 900","1440 x 900","true","1","10","","","","",""
"null","<p style=""font-size: 80px;"">+ 10 points</p>","null","html-keyboard-response","18","114503","0.0-7.0-2.17","5d973ebf47985300199edb9b","88lbbu","HK","21","F","{""name"":""Chrome"",""chrome"":true,""version"":""106.0"",""blink"":true,""mac"":true,""osname"":""macOS"",""osversion"":""10.15.7"",""a"":true}","9:17:2","0","1","Practice_4","74","j","1","451.3999999985099","1440 x 900","1440 x 900","true","1","10","","","","",""
"null","<p style=""font-size: 80px;"">+ 10 points</p>","null","html-keyboard-response","19","116989","0.0-7.0-2.18","5d973ebf47985300199edb9b","88lbbu","HK","21","F","{""name"":""Chrome"",""chrome"":true,""version"":""106.0"",""blink"":true,""mac"":true,""osname"":""macOS"",""osversion"":""10.15.7"",""a"":true}","9:17:2","0","1","Practice_3","70","f","1","482.69999999552965","1440 x 900","1440 x 900","true","1","10","","","","",""
"null","<p style=""font-size: 80px;"">+ 10 points</p>","null","html-keyboard-response","20","119482","0.0-7.0-2.19","5d973ebf47985300199edb9b","88lbbu","HK","21","F","{""name"":""Chrome"",""chrome"":true,""version"":""106.0"",""blink"":true,""mac"":true,""osname"":""macOS"",""osversion"":""10.15.7"",""a"":true}","9:17:2","0","1","Practice_2","74","j","1","484.1000000014901","1440 x 900","1440 x 900","true","1","10","","","","",""
"null","<p style=""font-size: 80px;"">+ 0 points</p>","null","html-keyboard-response","21","122009","0.0-7.0-2.20","5d973ebf47985300199edb9b","88lbbu","HK","21","F","{""name"":""Chrome"",""chrome"":true,""version"":""106.0"",""blink"":true,""mac"":true,""osname"":""macOS"",""osversion"":""10.15.7"",""a"":true}","9:17:2","0","2","Practice_2","74","f","0","515.7999999970198","1440 x 900","1440 x 900","true","1","0","","","","",""
"null","<p style=""font-size: 80px;"">+ 10 points</p>","null","html-keyboard-response","22","124544","0.0-7.0-2.21","5d973ebf47985300199edb9b","88lbbu","HK","21","F","{""name"":""Chrome"",""chrome"":true,""version"":""106.0"",""blink"":true,""mac"":true,""osname"":""macOS"",""osversion"":""10.15.7"",""a"":true}","9:17:2","0","2","Practice_2","70","f","1","526.1000000014901","1440 x 900","1440 x 900","true","1","10","","","","",""
"null","<p style=""font-size: 80px;"">+ 0 points</p>","null","html-keyboard-response","23","127048","0.0-7.0-2.22","5d973ebf47985300199edb9b","88lbbu","HK","21","F","{""name"":""Chrome"",""chrome"":true,""version"":""106.0"",""blink"":true,""mac"":true,""osname"":""macOS"",""osversion"":""10.15.7"",""a"":true}","9:17:2","0","2","Practice_4","74","f","0","496.20000000298023","1440 x 900","1440 x 900","true","1","0","","","","",""
"null","<p style=""font-size: 80px;"">+ 10 points</p>","null","html-keyboard-response","24","129936","0.0-7.0-2.23","5d973ebf47985300199edb9b","88lbbu","HK","21","F","{""name"":""Chrome"",""chrome"":true,""version"":""106.0"",""blink"":true,""mac"":true,""osname"":""macOS"",""osversion"":""10.15.7"",""a"":true}","9:17:2","0","2","Practice_2","70","f","1","879.1000000014901","1440 x 900","1440 x 900","true","1","10","","","","",""
"null","<p style=""font-size: 80px;"">+ 10 points</p>","null","html-keyboard-response","25","132785","0.0-7.0-2.24","5d973ebf47985300199edb9b","88lbbu","HK","21","F","{""name"":""Chrome"",""chrome"":true,""version"":""106.0"",""blink"":true,""mac"":true,""osname"":""macOS"",""osversion"":""10.15.7"",""a"":true}","9:17:2","0","2","Practice_3","74","j","1","840.3000000044703","1440 x 900","1440 x 900","true","1","10","","","","",""
"null","<p style=""font-size: 80px;"">+ 10 points</p>","null","html-keyboard-response","26","135571","0.0-7.0-2.25","5d973ebf47985300199edb9b","88lbbu","HK","21","F","{""name"":""Chrome"",""chrome"":true,""version"":""106.0"",""blink"":true,""mac"":true,""osname"":""macOS"",""osversion"":""10.15.7"",""a"":true}","9:17:2","0","2","Practice_1","74","j","1","781.3999999985099","1440 x 900","1440 x 900","true","1","10","","","","",""
"null","<p style=""font-size: 80px;"">+ 10 points</p>","null","html-keyboard-response","27","138202","0.0-7.0-2.26","5d973ebf47985300199edb9b","88lbbu","HK","21","F","{""name"":""Chrome"",""chrome"":true,""version"":""106.0"",""blink"":true,""mac"":true,""osname"":""macOS"",""osversion"":""10.15.7"",""a"":true}","9:17:2","0","2","Practice_3","74","j","1","619.6999999955297","1440 x 900","1440 x 900","true","1","10","","","","",""
"null","<p style=""font-size: 80px;"">+ 10 points</p>","null","html-keyboard-response","28","140956","0.0-7.0-2.27","5d973ebf47985300199edb9b","88lbbu","HK","21","F","{""name"":""Chrome"",""chrome"":true,""version"":""106.0"",""blink"":true,""mac"":true,""osname"":""macOS"",""osversion"":""10.15.7"",""a"":true}","9:17:2","0","2","Practice_3","74","j","1","747.5","1440 x 900","1440 x 900","true","1","10","","","","",""
"null","<p style=""font-size: 80px;"">+ 10 points</p>","null","html-keyboard-response","29","143774","0.0-7.0-2.28","5d973ebf47985300199edb9b","88lbbu","HK","21","F","{""name"":""Chrome"",""chrome"":true,""version"":""106.0"",""blink"":true,""mac"":true,""osname"":""macOS"",""osversion"":""10.15.7"",""a"":true}","9:17:2","0","2","Practice_2","70","f","1","809.8999999985099","1440 x 900","1440 x 900","true","1","10","","","","",""
"null","<p style=""font-size: 80px;"">+ 0 points</p>","null","html-keyboard-response","30","146385","0.0-7.0-2.29","5d973ebf47985300199edb9b","88lbbu","HK","21","F","{""name"":""Chrome"",""chrome"":true,""version"":""106.0"",""blink"":true,""mac"":true,""osname"":""macOS"",""osversion"":""10.15.7"",""a"":true}","9:17:2","0","2","Practice_1","70","j","0","600.4000000059605","1440 x 900","1440 x 900","true","1","0","","","","",""
"null","<p style=""font-size: 80px;"">+ 10 points</p>","null","html-keyboard-response","31","148879","0.0-7.0-2.30","5d973ebf47985300199edb9b","88lbbu","HK","21","F","{""name"":""Chrome"",""chrome"":true,""version"":""106.0"",""blink"":true,""mac"":true,""osname"":""macOS"",""osversion"":""10.15.7"",""a"":true}","9:17:2","0","2","Practice_1","74","j","1","485.6000000014901","1440 x 900","1440 x 900","true","1","10","","","","",""
"null","<p style=""font-size: 80px;"">+ 10 points</p>","null","html-keyboard-response","32","151803","0.0-7.0-2.31","5d973ebf47985300199edb9b","88lbbu","HK","21","F","{""name"":""Chrome"",""chrome"":true,""version"":""106.0"",""blink"":true,""mac"":true,""osname"":""macOS"",""osversion"":""10.15.7"",""a"":true}","9:17:2","0","2","Practice_4","70","f","1","917.2999999970198","1440 x 900","1440 x 900","true","1","10","","","","",""
"null","<p style=""font-size: 80px;"">+ 0 points</p>","null","html-keyboard-response","33","154363","0.0-7.0-2.32","5d973ebf47985300199edb9b","88lbbu","HK","21","F","{""name"":""Chrome"",""chrome"":true,""version"":""106.0"",""blink"":true,""mac"":true,""osname"":""macOS"",""osversion"":""10.15.7"",""a"":true}","9:17:2","0","2","Practice_4","74","f","0","552.5","1440 x 900","1440 x 900","true","1","0","","","","",""
"null","<p style=""font-size: 80px;"">+ 10 points</p>","null","html-keyboard-response","34","157118","0.0-7.0-2.33","5d973ebf47985300199edb9b","88lbbu","HK","21","F","{""name"":""Chrome"",""chrome"":true,""version"":""106.0"",""blink"":true,""mac"":true,""osname"":""macOS"",""osversion"":""10.15.7"",""a"":true}","9:17:2","0","2","Practice_3","74","j","1","744.7000000029802","1440 x 900","1440 x 900","true","1","10","","","","",""
"null","<p style=""font-size: 80px;"">+ 10 points</p>","null","html-keyboard-response","35","159877","0.0-7.0-2.34","5d973ebf47985300199edb9b","88lbbu","HK","21","F","{""name"":""Chrome"",""chrome"":true,""version"":""106.0"",""blink"":true,""mac"":true,""osname"":""macOS"",""osversion"":""10.15.7"",""a"":true}","9:17:2","0","2","Practice_1","74","j","1","746.3000000044703","1440 x 900","1440 x 900","true","1","10","","","","",""
"null","<p style=""font-size: 80px;"">+ 10 points</p>","null","html-keyboard-response","36","162456","0.0-7.0-2.35","5d973ebf47985300199edb9b","88lbbu","HK","21","F","{""name"":""Chrome"",""chrome"":true,""version"":""106.0"",""blink"":true,""mac"":true,""osname"":""macOS"",""osversion"":""10.15.7"",""a"":true}","9:17:2","0","2","Practice_2","70","f","1","572.3999999985099","1440 x 900","1440 x 900","true","1","10","","","","",""
"null","<p style=""font-size: 80px;"">+ 10 points</p>","null","html-keyboard-response","37","165364","0.0-7.0-2.36","5d973ebf47985300199edb9b","88lbbu","HK","21","F","{""name"":""Chrome"",""chrome"":true,""version"":""106.0"",""blink"":true,""mac"":true,""osname"":""macOS"",""osversion"":""10.15.7"",""a"":true}","9:17:2","0","2","Practice_1","74","j","1","901.6000000014901","1440 x 900","1440 x 900","true","1","10","","","","",""
"null","<p style=""font-size: 80px;"">+ 10 points</p>","null","html-keyboard-response","38","168102","0.0-7.0-2.37","5d973ebf47985300199edb9b","88lbbu","HK","21","F","{""name"":""Chrome"",""chrome"":true,""version"":""106.0"",""blink"":true,""mac"":true,""osname"":""macOS"",""osversion"":""10.15.7"",""a"":true}","9:17:2","0","2","Practice_4","70","f","1","728.5","1440 x 900","1440 x 900","true","1","10","","","","",""
"null","<p style=""font-size: 80px;"">+ 10 points</p>","null","html-keyboard-response","39","170889","0.0-7.0-2.38","5d973ebf47985300199edb9b","88lbbu","HK","21","F","{""name"":""Chrome"",""chrome"":true,""version"":""106.0"",""blink"":true,""mac"":true,""osname"":""macOS"",""osversion"":""10.15.7"",""a"":true}","9:17:2","0","2","Practice_4","70","f","1","782.8999999985099","1440 x 900","1440 x 900","true","1","10","","","","",""
"null","<p style=""font-size: 80px;"">+ 10 points</p>","null","html-keyboard-response","40","173608","0.0-7.0-2.39","5d973ebf47985300199edb9b","88lbbu","HK","21","F","{""name"":""Chrome"",""chrome"":true,""version"":""106.0"",""blink"":true,""mac"":true,""osname"":""macOS"",""osversion"":""10.15.7"",""a"":true}","9:17:2","0","2","Practice_3","74","j","1","710.2999999970198","1440 x 900","1440 x 900","true","1","10","","","","",""
"10229.39999999851","","","survey-multi-choice","127","183842","0.0-8.0","5d973ebf47985300199edb9b","88lbbu","HK","21","F","{""name"":""Chrome"",""chrome"":true,""version"":""106.0"",""blink"":true,""mac"":true,""osname"":""macOS"",""osversion"":""10.15.7"",""a"":true}","9:17:2","","","","","","","","","","","1","","{""Q0"":""The red one"",""Q1"":""1""}","[0,1]","1","The red one","2"
"null","<p style=""font-size: 80px;"">+ 0 points</p>","null","html-keyboard-response","1","194906","0.0-11.0-2.0","5d973ebf47985300199edb9b","88lbbu","HK","21","F","{""name"":""Chrome"",""chrome"":true,""version"":""106.0"",""blink"":true,""mac"":true,""osname"":""macOS"",""osversion"":""10.15.7"",""a"":true}","9:17:2","1","3","Test_3","74","f","0","824.8999999985099","1440 x 900","1440 x 900","true","1","0","","","","",""
"null","<p style=""font-size: 80px;"">+ 0 points</p>","null","html-keyboard-response","2","197984","0.0-11.0-2.1","5d973ebf47985300199edb9b","88lbbu","HK","21","F","{""name"":""Chrome"",""chrome"":true,""version"":""106.0"",""blink"":true,""mac"":true,""osname"":""macOS"",""osversion"":""10.15.7"",""a"":true}","9:17:2","1","3","Test_1","74","f","0","1067.5999999940395","1440 x 900","1440 x 900","true","1","0","","","","",""
"null","<p style=""font-size: 80px;"">+ 10 points</p>","null","html-keyboard-response","3","201253","0.0-11.0-2.2","5d973ebf47985300199edb9b","88lbbu","HK","21","F","{""name"":""Chrome"",""chrome"":true,""version"":""106.0"",""blink"":true,""mac"":true,""osname"":""macOS"",""osversion"":""10.15.7"",""a"":true}","9:17:2","1","3","Test_3","70","f","1","1257.8999999985099","1440 x 900","1440 x 900","true","1","10","","","","",""
"null","<p style=""font-size: 80px;"">+ 10 points</p>","null","html-keyboard-response","4","204155","0.0-11.0-2.3","5d973ebf47985300199edb9b","88lbbu","HK","21","F","{""name"":""Chrome"",""chrome"":true,""version"":""106.0"",""blink"":true,""mac"":true,""osname"":""macOS"",""osversion"":""10.15.7"",""a"":true}","9:17:2","1","3","Test_4","74","j","1","893.5","1440 x 900","1440 x 900","true","1","10","","","","",""
"null","<p style=""font-size: 80px;"">+ 10 points</p>","null","html-keyboard-response","5","207427","0.0-11.0-2.4","5d973ebf47985300199edb9b","88lbbu","HK","21","F","{""name"":""Chrome"",""chrome"":true,""version"":""106.0"",""blink"":true,""mac"":true,""osname"":""macOS"",""osversion"":""10.15.7"",""a"":true}","9:17:2","1","3","Test_1","70","f","1","1262.1999999955297","1440 x 900","1440 x 900","true","1","10","","","","",""
"null","<p style=""font-size: 80px;"">+ 10 points</p>","null","html-keyboard-response","6","209976","0.0-11.0-2.5","5d973ebf47985300199edb9b","88lbbu","HK","21","F","{""name"":""Chrome"",""chrome"":true,""version"":""106.0"",""blink"":true,""mac"":true,""osname"":""macOS"",""osversion"":""10.15.7"",""a"":true}","9:17:2","1","3","Test_1","70","f","1","539.5","1440 x 900","1440 x 900","true","1","10","","","","",""
"null","<p style=""font-size: 80px;"">+ 10 points</p>","null","html-keyboard-response","7","212735","0.0-11.0-2.6","5d973ebf47985300199edb9b","88lbbu","HK","21","F","{""name"":""Chrome"",""chrome"":true,""version"":""106.0"",""blink"":true,""mac"":true,""osname"":""macOS"",""osversion"":""10.15.7"",""a"":true}","9:17:2","1","3","Test_4","74","j","1","751.7000000029802","1440 x 900","1440 x 900","true","1","10","","","","",""
"null","<p style=""font-size: 80px;"">+ 10 points</p>","null","html-keyboard-response","8","215581","0.0-11.0-2.7","5d973ebf47985300199edb9b","88lbbu","HK","21","F","{""name"":""Chrome"",""chrome"":true,""version"":""106.0"",""blink"":true,""mac"":true,""osname"":""macOS"",""osversion"":""10.15.7"",""a"":true}","9:17:2","1","3","Test_2","74","j","1","838.6000000014901","1440 x 900","1440 x 900","true","1","10","","","","",""
"null","<p style=""font-size: 80px;"">+ 10 points</p>","null","html-keyboard-response","9","218423","0.0-11.0-2.8","5d973ebf47985300199edb9b","88lbbu","HK","21","F","{""name"":""Chrome"",""chrome"":true,""version"":""106.0"",""blink"":true,""mac"":true,""osname"":""macOS"",""osversion"":""10.15.7"",""a"":true}","9:17:2","1","3","Test_2","74","j","1","835.5","1440 x 900","1440 x 900","true","1","10","","","","",""
"null","<p style=""font-size: 80px;"">+ 10 points</p>","null","html-keyboard-response","10","221125","0.0-11.0-2.9","5d973ebf47985300199edb9b","88lbbu","HK","21","F","{""name"":""Chrome"",""chrome"":true,""version"":""106.0"",""blink"":true,""mac"":true,""osname"":""macOS"",""osversion"":""10.15.7"",""a"":true}","9:17:2","1","3","Test_2","74","j","1","694.3999999985099","1440 x 900","1440 x 900","true","1","10","","","","",""
"null","<p style=""font-size: 80px;"">+ 10 points</p>","null","html-keyboard-response","11","223834","0.0-11.0-2.10","5d973ebf47985300199edb9b","88lbbu","HK","21","F","{""name"":""Chrome"",""chrome"":true,""version"":""106.0"",""blink"":true,""mac"":true,""osname"":""macOS"",""osversion"":""10.15.7"",""a"":true}","9:17:2","1","3","Test_3","70","f","1","702.7000000029802","1440 x 900","1440 x 900","true","1","10","","","","",""
"null","<p style=""font-size: 80px;"">+ 10 points</p>","null","html-keyboard-response","12","226675","0.0-11.0-2.11","5d973ebf47985300199edb9b","88lbbu","HK","21","F","{""name"":""Chrome"",""chrome"":true,""version"":""106.0"",""blink"":true,""mac"":true,""osname"":""macOS"",""osversion"":""10.15.7"",""a"":true}","9:17:2","1","3","Test_1","70","f","1","829.7999999970198","1440 x 900","1440 x 900","true","1","10","","","","",""
"null","<p style=""font-size: 80px;"">+ 10 points</p>","null","html-keyboard-response","13","229315","0.0-11.0-2.12","5d973ebf47985300199edb9b","88lbbu","HK","21","F","{""name"":""Chrome"",""chrome"":true,""version"":""106.0"",""blink"":true,""mac"":true,""osname"":""macOS"",""osversion"":""10.15.7"",""a"":true}","9:17:2","1","3","Test_2","74","j","1","630.6000000014901","1440 x 900","1440 x 900","true","1","10","","","","",""
"null","<p style=""font-size: 80px;"">+ 0 points</p>","null","html-keyboard-response","14","231980","0.0-11.0-2.13","5d973ebf47985300199edb9b","88lbbu","HK","21","F","{""name"":""Chrome"",""chrome"":true,""version"":""106.0"",""blink"":true,""mac"":true,""osname"":""macOS"",""osversion"":""10.15.7"",""a"":true}","9:17:2","1","3","Test_4","70","j","0","652.9000000059605","1440 x 900","1440 x 900","true","1","0","","","","",""
"null","<p style=""font-size: 80px;"">+ 10 points</p>","null","html-keyboard-response","15","234853","0.0-11.0-2.14","5d973ebf47985300199edb9b","88lbbu","HK","21","F","{""name"":""Chrome"",""chrome"":true,""version"":""106.0"",""blink"":true,""mac"":true,""osname"":""macOS"",""osversion"":""10.15.7"",""a"":true}","9:17:2","1","3","Test_3","70","f","1","863","1440 x 900","1440 x 900","true","1","10","","","","",""
"null","<p style=""font-size: 80px;"">+ 10 points</p>","null","html-keyboard-response","16","237814","0.0-11.0-2.15","5d973ebf47985300199edb9b","88lbbu","HK","21","F","{""name"":""Chrome"",""chrome"":true,""version"":""106.0"",""blink"":true,""mac"":true,""osname"":""macOS"",""osversion"":""10.15.7"",""a"":true}","9:17:2","1","3","Test_4","74","j","1","951.8999999985099","1440 x 900","1440 x 900","true","1","10","","","","",""
"null","<p style=""font-size: 80px;"">+ 0 points</p>","null","html-keyboard-response","17","240463","0.0-11.0-2.16","5d973ebf47985300199edb9b","88lbbu","HK","21","F","{""name"":""Chrome"",""chrome"":true,""version"":""106.0"",""blink"":true,""mac"":true,""osname"":""macOS"",""osversion"":""10.15.7"",""a"":true}","9:17:2","1","4","Test_3","70","j","0","643.1999999955297","1440 x 900","1440 x 900","true","1","0","","","","",""
"null","<p style=""font-size: 80px;"">+ 10 points</p>","null","html-keyboard-response","18","243454","0.0-11.0-2.17","5d973ebf47985300199edb9b","88lbbu","HK","21","F","{""name"":""Chrome"",""chrome"":true,""version"":""106.0"",""blink"":true,""mac"":true,""osname"":""macOS"",""osversion"":""10.15.7"",""a"":true}","9:17:2","1","4","Test_2","70","f","1","983.1000000014901","1440 x 900","1440 x 900","true","1","10","","","","",""
"null","<p style=""font-size: 80px;"">+ 10 points</p>","null","html-keyboard-response","19","246229","0.0-11.0-2.18","5d973ebf47985300199edb9b","88lbbu","HK","21","F","{""name"":""Chrome"",""chrome"":true,""version"":""106.0"",""blink"":true,""mac"":true,""osname"":""macOS"",""osversion"":""10.15.7"",""a"":true}","9:17:2","1","4","Test_4","70","f","1","766.6000000014901","1440 x 900","1440 x 900","true","1","10","","","","",""
"null","<p style=""font-size: 80px;"">+ 10 points</p>","null","html-keyboard-response","20","249742","0.0-11.0-2.19","5d973ebf47985300199edb9b","88lbbu","HK","21","F","{""name"":""Chrome"",""chrome"":true,""version"":""106.0"",""blink"":true,""mac"":true,""osname"":""macOS"",""osversion"":""10.15.7"",""a"":true}","9:17:2","1","4","Test_4","70","f","1","1501.7000000029802","1440 x 900","1440 x 900","true","1","10","","","","",""
"null","<p style=""font-size: 80px;"">+ 10 points</p>","null","html-keyboard-response","21","252927","0.0-11.0-2.20","5d973ebf47985300199edb9b","88lbbu","HK","21","F","{""name"":""Chrome"",""chrome"":true,""version"":""106.0"",""blink"":true,""mac"":true,""osname"":""macOS"",""osversion"":""10.15.7"",""a"":true}","9:17:2","1","4","Test_1","74","j","1","1174.5","1440 x 900","1440 x 900","true","1","10","","","","",""
"null","<p style=""font-size: 80px;"">+ 10 points</p>","null","html-keyboard-response","22","255453","0.0-11.0-2.21","5d973ebf47985300199edb9b","88lbbu","HK","21","F","{""name"":""Chrome"",""chrome"":true,""version"":""106.0"",""blink"":true,""mac"":true,""osname"":""macOS"",""osversion"":""10.15.7"",""a"":true}","9:17:2","1","4","Test_2","70","f","1","519.8999999985099","1440 x 900","1440 x 900","true","1","10","","","","",""
"null","<p style=""font-size: 80px;"">+ 10 points</p>","null","html-keyboard-response","23","258808","0.0-11.0-2.22","5d973ebf47985300199edb9b","88lbbu","HK","21","F","{""name"":""Chrome"",""chrome"":true,""version"":""106.0"",""blink"":true,""mac"":true,""osname"":""macOS"",""osversion"":""10.15.7"",""a"":true}","9:17:2","1","4","Test_1","74","j","1","1345.3999999985099","1440 x 900","1440 x 900","true","1","10","","","","",""
"null","<p style=""font-size: 80px;"">+ 10 points</p>","null","html-keyboard-response","24","261445","0.0-11.0-2.23","5d973ebf47985300199edb9b","88lbbu","HK","21","F","{""name"":""Chrome"",""chrome"":true,""version"":""106.0"",""blink"":true,""mac"":true,""osname"":""macOS"",""osversion"":""10.15.7"",""a"":true}","9:17:2","1","4","Test_3","74","j","1","628.3999999985099","1440 x 900","1440 x 900","true","1","10","","","","",""
"null","<p style=""font-size: 80px;"">+ 10 points</p>","null","html-keyboard-response","25","264369","0.0-11.0-2.24","5d973ebf47985300199edb9b","88lbbu","HK","21","F","{""name"":""Chrome"",""chrome"":true,""version"":""106.0"",""blink"":true,""mac"":true,""osname"":""macOS"",""osversion"":""10.15.7"",""a"":true}","9:17:2","1","4","Test_1","74","j","1","912.7999999970198","1440 x 900","1440 x 900","true","1","10","","","","",""
"null","<p style=""font-size: 80px;"">+ 10 points</p>","null","html-keyboard-response","26","267241","0.0-11.0-2.25","5d973ebf47985300199edb9b","88lbbu","HK","21","F","{""name"":""Chrome"",""chrome"":true,""version"":""106.0"",""blink"":true,""mac"":true,""osname"":""macOS"",""osversion"":""10.15.7"",""a"":true}","9:17:2","1","4","Test_2","70","f","1","861.5","1440 x 900","1440 x 900","true","1","10","","","","",""
"null","<p style=""font-size: 80px;"">+ 10 points</p>","null","html-keyboard-response","27","270474","0.0-11.0-2.26","5d973ebf47985300199edb9b","88lbbu","HK","21","F","{""name"":""Chrome"",""chrome"":true,""version"":""106.0"",""blink"":true,""mac"":true,""osname"":""macOS"",""osversion"":""10.15.7"",""a"":true}","9:17:2","1","4","Test_3","74","j","1","1227","1440 x 900","1440 x 900","true","1","10","","","","",""
"null","<p style=""font-size: 80px;"">+ 10 points</p>","null","html-keyboard-response","28","273034","0.0-11.0-2.27","5d973ebf47985300199edb9b","88lbbu","HK","21","F","{""name"":""Chrome"",""chrome"":true,""version"":""106.0"",""blink"":true,""mac"":true,""osname"":""macOS"",""osversion"":""10.15.7"",""a"":true}","9:17:2","1","4","Test_3","74","j","1","549.7999999970198","1440 x 900","1440 x 900","true","1","10","","","","",""
"null","<p style=""font-size: 80px;"">+ 10 points</p>","null","html-keyboard-response","29","275619","0.0-11.0-2.28","5d973ebf47985300199edb9b","88lbbu","HK","21","F","{""name"":""Chrome"",""chrome"":true,""version"":""106.0"",""blink"":true,""mac"":true,""osname"":""macOS"",""osversion"":""10.15.7"",""a"":true}","9:17:2","1","4","Test_4","70","f","1","573.3999999985099","1440 x 900","1440 x 900","true","1","10","","","","",""
"null","<p style=""font-size: 80px;"">+ 10 points</p>","null","html-keyboard-response","30","279719","0.0-11.0-2.29","5d973ebf47985300199edb9b","88lbbu","HK","21","F","{""name"":""Chrome"",""chrome"":true,""version"":""106.0"",""blink"":true,""mac"":true,""osname"":""macOS"",""osversion"":""10.15.7"",""a"":true}","9:17:2","1","4","Test_2","70","f","1","2089.2999999970198","1440 x 900","1440 x 900","true","1","10","","","","",""
"null","<p style=""font-size: 80px;"">+ 10 points</p>","null","html-keyboard-response","31","282473","0.0-11.0-2.30","5d973ebf47985300199edb9b","88lbbu","HK","21","F","{""name"":""Chrome"",""chrome"":true,""version"":""106.0"",""blink"":true,""mac"":true,""osname"":""macOS"",""osversion"":""10.15.7"",""a"":true}","9:17:2","1","4","Test_2","70","f","1","746.2999999970198","1440 x 900","1440 x 900","true","1","10","","","","",""
"null","<p style=""font-size: 80px;"">+ 10 points</p>","null","html-keyboard-response","32","285107","0.0-11.0-2.31","5d973ebf47985300199edb9b","88lbbu","HK","21","F","{""name"":""Chrome"",""chrome"":true,""version"":""106.0"",""blink"":true,""mac"":true,""osname"":""macOS"",""osversion"":""10.15.7"",""a"":true}","9:17:2","1","4","Test_2","70","f","1","629.5","1440 x 900","1440 x 900","true","1","10","","","","",""
"null","<p style=""font-size: 80px;"">+ 10 points</p>","null","html-keyboard-response","33","287706","0.0-11.0-2.32","5d973ebf47985300199edb9b","88lbbu","HK","21","F","{""name"":""Chrome"",""chrome"":true,""version"":""106.0"",""blink"":true,""mac"":true,""osname"":""macOS"",""osversion"":""10.15.7"",""a"":true}","9:17:2","1","4","Test_1","74","j","1","592.6000000014901","1440 x 900","1440 x 900","true","1","10","","","","",""
"null","<p style=""font-size: 80px;"">+ 0 points</p>","null","html-keyboard-response","34","290223","0.0-11.0-2.33","5d973ebf47985300199edb9b","88lbbu","HK","21","F","{""name"":""Chrome"",""chrome"":true,""version"":""106.0"",""blink"":true,""mac"":true,""osname"":""macOS"",""osversion"":""10.15.7"",""a"":true}","9:17:2","1","4","Test_3","70","j","0","510","1440 x 900","1440 x 900","true","1","0","","","","",""
"null","<p style=""font-size: 80px;"">+ 10 points</p>","null","html-keyboard-response","35","293472","0.0-11.0-2.34","5d973ebf47985300199edb9b","88lbbu","HK","21","F","{""name"":""Chrome"",""chrome"":true,""version"":""106.0"",""blink"":true,""mac"":true,""osname"":""macOS"",""osversion"":""10.15.7"",""a"":true}","9:17:2","1","4","Test_1","74","j","1","1237","1440 x 900","1440 x 900","true","1","10","","","","",""
"null","<p style=""font-size: 80px;"">+ 10 points</p>","null","html-keyboard-response","36","296714","0.0-11.0-2.35","5d973ebf47985300199edb9b","88lbbu","HK","21","F","{""name"":""Chrome"",""chrome"":true,""version"":""106.0"",""blink"":true,""mac"":true,""osname"":""macOS"",""osversion"":""10.15.7"",""a"":true}","9:17:2","1","4","Test_3","74","j","1","1231","1440 x 900","1440 x 900","true","1","10","","","","",""
"null","<p style=""font-size: 80px;"">+ 10 points</p>","null","html-keyboard-response","37","299610","0.0-11.0-2.36","5d973ebf47985300199edb9b","88lbbu","HK","21","F","{""name"":""Chrome"",""chrome"":true,""version"":""106.0"",""blink"":true,""mac"":true,""osname"":""macOS"",""osversion"":""10.15.7"",""a"":true}","9:17:2","1","4","Test_4","70","f","1","888.7000000029802","1440 x 900","1440 x 900","true","1","10","","","","",""
"null","<p style=""font-size: 80px;"">+ 10 points</p>","null","html-keyboard-response","38","302805","0.0-11.0-2.37","5d973ebf47985300199edb9b","88lbbu","HK","21","F","{""name"":""Chrome"",""chrome"":true,""version"":""106.0"",""blink"":true,""mac"":true,""osname"":""macOS"",""osversion"":""10.15.7"",""a"":true}","9:17:2","1","4","Test_1","74","j","1","1188.1000000014901","1440 x 900","1440 x 900","true","1","10","","","","",""
"null","<p style=""font-size: 80px;"">+ 10 points</p>","null","html-keyboard-response","39","306272","0.0-11.0-2.38","5d973ebf47985300199edb9b","88lbbu","HK","21","F","{""name"":""Chrome"",""chrome"":true,""version"":""106.0"",""blink"":true,""mac"":true,""osname"":""macOS"",""osversion"":""10.15.7"",""a"":true}","9:17:2","1","4","Test_4","70","f","1","1457.8000000044703","1440 x 900","1440 x 900","true","1","10","","","","",""
"null","<p style=""font-size: 80px;"">+ 0 points</p>","null","html-keyboard-response","40","309082","0.0-11.0-2.39","5d973ebf47985300199edb9b","88lbbu","HK","21","F","{""name"":""Chrome"",""chrome"":true,""version"":""106.0"",""blink"":true,""mac"":true,""osname"":""macOS"",""osversion"":""10.15.7"",""a"":true}","9:17:2","1","3","Test_2","70","j","0","801.8999999985099","1440 x 900","1440 x 900","true","1","0","","","","",""
"null","<p style=""font-size: 80px;"">+ 10 points</p>","null","html-keyboard-response","41","312027","0.0-11.0-2.40","5d973ebf47985300199edb9b","88lbbu","HK","21","F","{""name"":""Chrome"",""chrome"":true,""version"":""106.0"",""blink"":true,""mac"":true,""osname"":""macOS"",""osversion"":""10.15.7"",""a"":true}","9:17:2","1","3","Test_1","70","f","1","935.3000000044703","1440 x 900","1440 x 900","true","1","10","","","","",""
"null","<p style=""font-size: 80px;"">+ 10 points</p>","null","html-keyboard-response","42","314699","0.0-11.0-2.41","5d973ebf47985300199edb9b","88lbbu","HK","21","F","{""name"":""Chrome"",""chrome"":true,""version"":""106.0"",""blink"":true,""mac"":true,""osname"":""macOS"",""osversion"":""10.15.7"",""a"":true}","9:17:2","1","3","Test_4","74","j","1","668.7000000029802","1440 x 900","1440 x 900","true","1","10","","","","",""
"null","<p style=""font-size: 80px;"">+ 0 points</p>","null","html-keyboard-response","43","317323","0.0-11.0-2.42","5d973ebf47985300199edb9b","88lbbu","HK","21","F","{""name"":""Chrome"",""chrome"":true,""version"":""106.0"",""blink"":true,""mac"":true,""osname"":""macOS"",""osversion"":""10.15.7"",""a"":true}","9:17:2","1","3","Test_1","74","f","0","616","1440 x 900","1440 x 900","true","1","0","","","","",""
"null","<p style=""font-size: 80px;"">+ 10 points</p>","null","html-keyboard-response","44","320171","0.0-11.0-2.43","5d973ebf47985300199edb9b","88lbbu","HK","21","F","{""name"":""Chrome"",""chrome"":true,""version"":""106.0"",""blink"":true,""mac"":true,""osname"":""macOS"",""osversion"":""10.15.7"",""a"":true}","9:17:2","1","3","Test_3","70","f","1","840.6000000014901","1440 x 900","1440 x 900","true","1","10","","","","",""
"null","<p style=""font-size: 80px;"">+ 10 points</p>","null","html-keyboard-response","45","322683","0.0-11.0-2.44","5d973ebf47985300199edb9b","88lbbu","HK","21","F","{""name"":""Chrome"",""chrome"":true,""version"":""106.0"",""blink"":true,""mac"":true,""osname"":""macOS"",""osversion"":""10.15.7"",""a"":true}","9:17:2","1","3","Test_1","70","f","1","506.6000000014901","1440 x 900","1440 x 900","true","1","10","","","","",""
"null","<p style=""font-size: 80px;"">+ 10 points</p>","null","html-keyboard-response","46","325421","0.0-11.0-2.45","5d973ebf47985300199edb9b","88lbbu","HK","21","F","{""name"":""Chrome"",""chrome"":true,""version"":""106.0"",""blink"":true,""mac"":true,""osname"":""macOS"",""osversion"":""10.15.7"",""a"":true}","9:17:2","1","3","Test_4","74","j","1","727.3000000044703","1440 x 900","1440 x 900","true","1","10","","","","",""
"null","<p style=""font-size: 80px;"">+ 10 points</p>","null","html-keyboard-response","47","328053","0.0-11.0-2.46","5d973ebf47985300199edb9b","88lbbu","HK","21","F","{""name"":""Chrome"",""chrome"":true,""version"":""106.0"",""blink"":true,""mac"":true,""osname"":""macOS"",""osversion"":""10.15.7"",""a"":true}","9:17:2","1","3","Test_2","74","j","1","624.2000000029802","1440 x 900","1440 x 900","true","1","10","","","","",""
"null","<p style=""font-size: 80px;"">+ 10 points</p>","null","html-keyboard-response","48","330507","0.0-11.0-2.47","5d973ebf47985300199edb9b","88lbbu","HK","21","F","{""name"":""Chrome"",""chrome"":true,""version"":""106.0"",""blink"":true,""mac"":true,""osname"":""macOS"",""osversion"":""10.15.7"",""a"":true}","9:17:2","1","3","Test_4","74","j","1","445.29999999701977","1440 x 900","1440 x 900","true","1","10","","","","",""
"null","<p style=""font-size: 80px;"">+ 10 points</p>","null","html-keyboard-response","49","333089","0.0-11.0-2.48","5d973ebf47985300199edb9b","88lbbu","HK","21","F","{""name"":""Chrome"",""chrome"":true,""version"":""106.0"",""blink"":true,""mac"":true,""osname"":""macOS"",""osversion"":""10.15.7"",""a"":true}","9:17:2","1","3","Test_3","70","f","1","573.6000000014901","1440 x 900","1440 x 900","true","1","10","","","","",""
"null","<p style=""font-size: 80px;"">+ 10 points</p>","null","html-keyboard-response","50","335612","0.0-11.0-2.49","5d973ebf47985300199edb9b","88lbbu","HK","21","F","{""name"":""Chrome"",""chrome"":true,""version"":""106.0"",""blink"":true,""mac"":true,""osname"":""macOS"",""osversion"":""10.15.7"",""a"":true}","9:17:2","1","3","Test_4","74","j","1","512.8999999985099","1440 x 900","1440 x 900","true","1","10","","","","",""
"null","<p style=""font-size: 80px;"">+ 10 points</p>","null","html-keyboard-response","51","338170","0.0-11.0-2.50","5d973ebf47985300199edb9b","88lbbu","HK","21","F","{""name"":""Chrome"",""chrome"":true,""version"":""106.0"",""blink"":true,""mac"":true,""osname"":""macOS"",""osversion"":""10.15.7"",""a"":true}","9:17:2","1","3","Test_1","70","f","1","551.0999999940395","1440 x 900","1440 x 900","true","1","10","","","","",""
"null","<p style=""font-size: 80px;"">+ 0 points</p>","null","html-keyboard-response","52","341010","0.0-11.0-2.51","5d973ebf47985300199edb9b","88lbbu","HK","21","F","{""name"":""Chrome"",""chrome"":true,""version"":""106.0"",""blink"":true,""mac"":true,""osname"":""macOS"",""osversion"":""10.15.7"",""a"":true}","9:17:2","1","3","Test_2","70","j","0","832.1000000014901","1440 x 900","1440 x 900","true","1","0","","","","",""
"null","<p style=""font-size: 80px;"">+ 10 points</p>","null","html-keyboard-response","53","343870","0.0-11.0-2.52","5d973ebf47985300199edb9b","88lbbu","HK","21","F","{""name"":""Chrome"",""chrome"":true,""version"":""106.0"",""blink"":true,""mac"":true,""osname"":""macOS"",""osversion"":""10.15.7"",""a"":true}","9:17:2","1","3","Test_2","74","j","1","853","1440 x 900","1440 x 900","true","1","10","","","","",""
"null","<p style=""font-size: 80px;"">+ 10 points</p>","null","html-keyboard-response","54","346448","0.0-11.0-2.53","5d973ebf47985300199edb9b","88lbbu","HK","21","F","{""name"":""Chrome"",""chrome"":true,""version"":""106.0"",""blink"":true,""mac"":true,""osname"":""macOS"",""osversion"":""10.15.7"",""a"":true}","9:17:2","1","3","Test_3","70","f","1","566.7999999970198","1440 x 900","1440 x 900","true","1","10","","","","",""
"null","<p style=""font-size: 80px;"">+ 10 points</p>","null","html-keyboard-response","55","349113","0.0-11.0-2.54","5d973ebf47985300199edb9b","88lbbu","HK","21","F","{""name"":""Chrome"",""chrome"":true,""version"":""106.0"",""blink"":true,""mac"":true,""osname"":""macOS"",""osversion"":""10.15.7"",""a"":true}","9:17:2","1","3","Test_1","70","f","1","654.3000000044703","1440 x 900","1440 x 900","true","1","10","","","","",""
"null","<p style=""font-size: 80px;"">+ 10 points</p>","null","html-keyboard-response","56","352113","0.0-11.0-2.55","5d973ebf47985300199edb9b","88lbbu","HK","21","F","{""name"":""Chrome"",""chrome"":true,""version"":""106.0"",""blink"":true,""mac"":true,""osname"":""macOS"",""osversion"":""10.15.7"",""a"":true}","9:17:2","1","3","Test_4","74","j","1","990.7999999970198","1440 x 900","1440 x 900","true","1","10","","","","",""
"null","<p style=""font-size: 80px;"">+ 10 points</p>","null","html-keyboard-response","57","354716","0.0-11.0-2.56","5d973ebf47985300199edb9b","88lbbu","HK","21","F","{""name"":""Chrome"",""chrome"":true,""version"":""106.0"",""blink"":true,""mac"":true,""osname"":""macOS"",""osversion"":""10.15.7"",""a"":true}","9:17:2","1","3","Test_3","70","f","1","594.6999999955297","1440 x 900","1440 x 900","true","1","10","","","","",""
"null","<p style=""font-size: 80px;"">+ 10 points</p>","null","html-keyboard-response","58","357353","0.0-11.0-2.57","5d973ebf47985300199edb9b","88lbbu","HK","21","F","{""name"":""Chrome"",""chrome"":true,""version"":""106.0"",""blink"":true,""mac"":true,""osname"":""macOS"",""osversion"":""10.15.7"",""a"":true}","9:17:2","1","3","Test_3","70","f","1","628.3999999985099","1440 x 900","1440 x 900","true","1","10","","","","",""
"null","<p style=""font-size: 80px;"">+ 0 points</p>","null","html-keyboard-response","59","359878","0.0-11.0-2.58","5d973ebf47985300199edb9b","88lbbu","HK","21","F","{""name"":""Chrome"",""chrome"":true,""version"":""106.0"",""blink"":true,""mac"":true,""osname"":""macOS"",""osversion"":""10.15.7"",""a"":true}","9:17:2","1","4","Test_3","70","j","0","517.3000000044703","1440 x 900","1440 x 900","true","1","0","","","","",""
"null","<p style=""font-size: 80px;"">+ 10 points</p>","null","html-keyboard-response","60","362594","0.0-11.0-2.59","5d973ebf47985300199edb9b","88lbbu","HK","21","F","{""name"":""Chrome"",""chrome"":true,""version"":""106.0"",""blink"":true,""mac"":true,""osname"":""macOS"",""osversion"":""10.15.7"",""a"":true}","9:17:2","1","4","Test_4","70","f","1","710","1440 x 900","1440 x 900","true","1","10","","","","",""
"null","<p style=""font-size: 80px;"">+ 0 points</p>","null","html-keyboard-response","61","365422","0.0-11.0-2.60","5d973ebf47985300199edb9b","88lbbu","HK","21","F","{""name"":""Chrome"",""chrome"":true,""version"":""106.0"",""blink"":true,""mac"":true,""osname"":""macOS"",""osversion"":""10.15.7"",""a"":true}","9:17:2","1","4","Test_2","74","f","0","816.1000000014901","1440 x 900","1440 x 900","true","1","0","","","","",""
"null","<p style=""font-size: 80px;"">+ 10 points</p>","null","html-keyboard-response","62","368119","0.0-11.0-2.61","5d973ebf47985300199edb9b","88lbbu","HK","21","F","{""name"":""Chrome"",""chrome"":true,""version"":""106.0"",""blink"":true,""mac"":true,""osname"":""macOS"",""osversion"":""10.15.7"",""a"":true}","9:17:2","1","4","Test_1","74","j","1","687","1440 x 900","1440 x 900","true","1","10","","","","",""
"null","<p style=""font-size: 80px;"">+ 10 points</p>","null","html-keyboard-response","63","370953","0.0-11.0-2.62","5d973ebf47985300199edb9b","88lbbu","HK","21","F","{""name"":""Chrome"",""chrome"":true,""version"":""106.0"",""blink"":true,""mac"":true,""osname"":""macOS"",""osversion"":""10.15.7"",""a"":true}","9:17:2","1","4","Test_4","70","f","1","823.3000000044703","1440 x 900","1440 x 900","true","1","10","","","","",""
"null","<p style=""font-size: 80px;"">+ 10 points</p>","null","html-keyboard-response","64","373899","0.0-11.0-2.63","5d973ebf47985300199edb9b","88lbbu","HK","21","F","{""name"":""Chrome"",""chrome"":true,""version"":""106.0"",""blink"":true,""mac"":true,""osname"":""macOS"",""osversion"":""10.15.7"",""a"":true}","9:17:2","1","4","Test_1","74","j","1","935.7999999970198","1440 x 900","1440 x 900","true","1","10","","","","",""
"null","<p style=""font-size: 80px;"">+ 10 points</p>","null","html-keyboard-response","65","376553","0.0-11.0-2.64","5d973ebf47985300199edb9b","88lbbu","HK","21","F","{""name"":""Chrome"",""chrome"":true,""version"":""106.0"",""blink"":true,""mac"":true,""osname"":""macOS"",""osversion"":""10.15.7"",""a"":true}","9:17:2","1","4","Test_1","74","j","1","646.3999999985099","1440 x 900","1440 x 900","true","1","10","","","","",""
"null","<p style=""font-size: 80px;"">+ 10 points</p>","null","html-keyboard-response","66","379265","0.0-11.0-2.65","5d973ebf47985300199edb9b","88lbbu","HK","21","F","{""name"":""Chrome"",""chrome"":true,""version"":""106.0"",""blink"":true,""mac"":true,""osname"":""macOS"",""osversion"":""10.15.7"",""a"":true}","9:17:2","1","4","Test_2","70","f","1","700.1000000014901","1440 x 900","1440 x 900","true","1","10","","","","",""
"null","<p style=""font-size: 80px;"">+ 10 points</p>","null","html-keyboard-response","67","381981","0.0-11.0-2.66","5d973ebf47985300199edb9b","88lbbu","HK","21","F","{""name"":""Chrome"",""chrome"":true,""version"":""106.0"",""blink"":true,""mac"":true,""osname"":""macOS"",""osversion"":""10.15.7"",""a"":true}","9:17:2","1","4","Test_1","74","j","1","708","1440 x 900","1440 x 900","true","1","10","","","","",""
"null","<p style=""font-size: 80px;"">+ 0 points</p>","null","html-keyboard-response","68","384993","0.0-11.0-2.67","5d973ebf47985300199edb9b","88lbbu","HK","21","F","{""name"":""Chrome"",""chrome"":true,""version"":""106.0"",""blink"":true,""mac"":true,""osname"":""macOS"",""osversion"":""10.15.7"",""a"":true}","9:17:2","1","4","Test_3","70","j","0","1001.6000000014901","1440 x 900","1440 x 900","true","1","0","","","","",""
"null","<p style=""font-size: 80px;"">+ 10 points</p>","null","html-keyboard-response","69","387668","0.0-11.0-2.68","5d973ebf47985300199edb9b","88lbbu","HK","21","F","{""name"":""Chrome"",""chrome"":true,""version"":""106.0"",""blink"":true,""mac"":true,""osname"":""macOS"",""osversion"":""10.15.7"",""a"":true}","9:17:2","1","4","Test_3","74","j","1","663.6000000014901","1440 x 900","1440 x 900","true","1","10","","","","",""
"null","<p style=""font-size: 80px;"">+ 10 points</p>","null","html-keyboard-response","70","390675","0.0-11.0-2.69","5d973ebf47985300199edb9b","88lbbu","HK","21","F","{""name"":""Chrome"",""chrome"":true,""version"":""106.0"",""blink"":true,""mac"":true,""osname"":""macOS"",""osversion"":""10.15.7"",""a"":true}","9:17:2","1","4","Test_1","74","j","1","996.7000000029802","1440 x 900","1440 x 900","true","1","10","","","","",""
"null","<p style=""font-size: 80px;"">+ 10 points</p>","null","html-keyboard-response","71","393268","0.0-11.0-2.70","5d973ebf47985300199edb9b","88lbbu","HK","21","F","{""name"":""Chrome"",""chrome"":true,""version"":""106.0"",""blink"":true,""mac"":true,""osname"":""macOS"",""osversion"":""10.15.7"",""a"":true}","9:17:2","1","4","Test_2","70","f","1","586.1000000014901","1440 x 900","1440 x 900","true","1","10","","","","",""
"null","<p style=""font-size: 80px;"">+ 10 points</p>","null","html-keyboard-response","72","395854","0.0-11.0-2.71","5d973ebf47985300199edb9b","88lbbu","HK","21","F","{""name"":""Chrome"",""chrome"":true,""version"":""106.0"",""blink"":true,""mac"":true,""osname"":""macOS"",""osversion"":""10.15.7"",""a"":true}","9:17:2","1","4","Test_2","70","f","1","581.3000000044703","1440 x 900","1440 x 900","true","1","10","","","","",""
"null","<p style=""font-size: 80px;"">+ 10 points</p>","null","html-keyboard-response","73","398301","0.0-11.0-2.72","5d973ebf47985300199edb9b","88lbbu","HK","21","F","{""name"":""Chrome"",""chrome"":true,""version"":""106.0"",""blink"":true,""mac"":true,""osname"":""macOS"",""osversion"":""10.15.7"",""a"":true}","9:17:2","1","4","Test_2","70","f","1","437.79999999701977","1440 x 900","1440 x 900","true","1","10","","","","",""
"null","<p style=""font-size: 80px;"">+ 10 points</p>","null","html-keyboard-response","74","400870","0.0-11.0-2.73","5d973ebf47985300199edb9b","88lbbu","HK","21","F","{""name"":""Chrome"",""chrome"":true,""version"":""106.0"",""blink"":true,""mac"":true,""osname"":""macOS"",""osversion"":""10.15.7"",""a"":true}","9:17:2","1","4","Test_1","74","j","1","562.5","1440 x 900","1440 x 900","true","1","10","","","","",""
"null","<p style=""font-size: 80px;"">+ 10 points</p>","null","html-keyboard-response","75","403715","0.0-11.0-2.74","5d973ebf47985300199edb9b","88lbbu","HK","21","F","{""name"":""Chrome"",""chrome"":true,""version"":""106.0"",""blink"":true,""mac"":true,""osname"":""macOS"",""osversion"":""10.15.7"",""a"":true}","9:17:2","1","4","Test_4","70","f","1","833.6000000014901","1440 x 900","1440 x 900","true","1","10","","","","",""
"null","<p style=""font-size: 80px;"">+ 0 points</p>","null","html-keyboard-response","76","406326","0.0-11.0-2.75","5d973ebf47985300199edb9b","88lbbu","HK","21","F","{""name"":""Chrome"",""chrome"":true,""version"":""106.0"",""blink"":true,""mac"":true,""osname"":""macOS"",""osversion"":""10.15.7"",""a"":true}","9:17:2","1","4","Test_3","70","j","0","601.8000000044703","1440 x 900","1440 x 900","true","1","0","","","","",""
"null","<p style=""font-size: 80px;"">+ 0 points</p>","null","html-keyboard-response","77","408844","0.0-11.0-2.76","5d973ebf47985300199edb9b","88lbbu","HK","21","F","{""name"":""Chrome"",""chrome"":true,""version"":""106.0"",""blink"":true,""mac"":true,""osname"":""macOS"",""osversion"":""10.15.7"",""a"":true}","9:17:2","1","4","Test_4","74","f","0","511.6000000014901","1440 x 900","1440 x 900","true","1","0","","","","",""
"null","<p style=""font-size: 80px;"">+ 10 points</p>","null","html-keyboard-response","78","412103","0.0-11.0-2.77","5d973ebf47985300199edb9b","88lbbu","HK","21","F","{""name"":""Chrome"",""chrome"":true,""version"":""106.0"",""blink"":true,""mac"":true,""osname"":""macOS"",""osversion"":""10.15.7"",""a"":true}","9:17:2","1","4","Test_3","74","j","1","1253","1440 x 900","1440 x 900","true","1","10","","","","",""
"null","<p style=""font-size: 80px;"">+ 0 points</p>","null","html-keyboard-response","79","415180","0.0-11.0-2.78","5d973ebf47985300199edb9b","88lbbu","HK","21","F","{""name"":""Chrome"",""chrome"":true,""version"":""106.0"",""blink"":true,""mac"":true,""osname"":""macOS"",""osversion"":""10.15.7"",""a"":true}","9:17:2","1","4","Test_4","74","f","0","1069.6999999955297","1440 x 900","1440 x 900","true","1","0","","","","",""
"null","<p style=""font-size: 80px;"">+ 10 points</p>","null","html-keyboard-response","80","417967","0.0-11.0-2.79","5d973ebf47985300199edb9b","88lbbu","HK","21","F","{""name"":""Chrome"",""chrome"":true,""version"":""106.0"",""blink"":true,""mac"":true,""osname"":""macOS"",""osversion"":""10.15.7"",""a"":true}","9:17:2","1","4","Test_3","74","j","1","776.3000000044703","1440 x 900","1440 x 900","true","1","10","","","","",""
"null","<p style=""font-size: 80px;"">+ 10 points</p>","null","html-keyboard-response","81","420940","0.0-11.0-2.80","5d973ebf47985300199edb9b","88lbbu","HK","21","F","{""name"":""Chrome"",""chrome"":true,""version"":""106.0"",""blink"":true,""mac"":true,""osname"":""macOS"",""osversion"":""10.15.7"",""a"":true}","9:17:2","1","3","Test_1","70","f","1","966.1999999955297","1440 x 900","1440 x 900","true","1","10","","","","",""
"null","<p style=""font-size: 80px;"">+ 10 points</p>","null","html-keyboard-response","82","423577","0.0-11.0-2.81","5d973ebf47985300199edb9b","88lbbu","HK","21","F","{""name"":""Chrome"",""chrome"":true,""version"":""106.0"",""blink"":true,""mac"":true,""osname"":""macOS"",""osversion"":""10.15.7"",""a"":true}","9:17:2","1","3","Test_2","74","j","1","629.1999999955297","1440 x 900","1440 x 900","true","1","10","","","","",""
"null","<p style=""font-size: 80px;"">+ 10 points</p>","null","html-keyboard-response","83","426417","0.0-11.0-2.82","5d973ebf47985300199edb9b","88lbbu","HK","21","F","{""name"":""Chrome"",""chrome"":true,""version"":""106.0"",""blink"":true,""mac"":true,""osname"":""macOS"",""osversion"":""10.15.7"",""a"":true}","9:17:2","1","3","Test_3","70","f","1","831","1440 x 900","1440 x 900","true","1","10","","","","",""
"null","<p style=""font-size: 80px;"">+ 10 points</p>","null","html-keyboard-response","84","429087","0.0-11.0-2.83","5d973ebf47985300199edb9b","88lbbu","HK","21","F","{""name"":""Chrome"",""chrome"":true,""version"":""106.0"",""blink"":true,""mac"":true,""osname"":""macOS"",""osversion"":""10.15.7"",""a"":true}","9:17:2","1","3","Test_3","70","f","1","658.7999999970198","1440 x 900","1440 x 900","true","1","10","","","","",""
"null","<p style=""font-size: 80px;"">+ 10 points</p>","null","html-keyboard-response","85","432121","0.0-11.0-2.84","5d973ebf47985300199edb9b","88lbbu","HK","21","F","{""name"":""Chrome"",""chrome"":true,""version"":""106.0"",""blink"":true,""mac"":true,""osname"":""macOS"",""osversion"":""10.15.7"",""a"":true}","9:17:2","1","3","Test_4","74","j","1","1023.8000000044703","1440 x 900","1440 x 900","true","1","10","","","","",""
"null","<p style=""font-size: 80px;"">+ 10 points</p>","null","html-keyboard-response","86","436005","0.0-11.0-2.85","5d973ebf47985300199edb9b","88lbbu","HK","21","F","{""name"":""Chrome"",""chrome"":true,""version"":""106.0"",""blink"":true,""mac"":true,""osname"":""macOS"",""osversion"":""10.15.7"",""a"":true}","9:17:2","1","3","Test_1","70","f","1","1875.5","1440 x 900","1440 x 900","true","1","10","","","","",""
"null","<p style=""font-size: 80px;"">+ 10 points</p>","null","html-keyboard-response","87","438987","0.0-11.0-2.86","5d973ebf47985300199edb9b","88lbbu","HK","21","F","{""name"":""Chrome"",""chrome"":true,""version"":""106.0"",""blink"":true,""mac"":true,""osname"":""macOS"",""osversion"":""10.15.7"",""a"":true}","9:17:2","1","3","Test_4","74","j","1","972.3999999985099","1440 x 900","1440 x 900","true","1","10","","","","",""
"null","<p style=""font-size: 80px;"">+ 10 points</p>","null","html-keyboard-response","88","441765","0.0-11.0-2.87","5d973ebf47985300199edb9b","88lbbu","HK","21","F","{""name"":""Chrome"",""chrome"":true,""version"":""106.0"",""blink"":true,""mac"":true,""osname"":""macOS"",""osversion"":""10.15.7"",""a"":true}","9:17:2","1","3","Test_3","70","f","1","767.3999999985099","1440 x 900","1440 x 900","true","1","10","","","","",""
"null","<p style=""font-size: 80px;"">+ 10 points</p>","null","html-keyboard-response","89","444492","0.0-11.0-2.88","5d973ebf47985300199edb9b","88lbbu","HK","21","F","{""name"":""Chrome"",""chrome"":true,""version"":""106.0"",""blink"":true,""mac"":true,""osname"":""macOS"",""osversion"":""10.15.7"",""a"":true}","9:17:2","1","3","Test_1","70","f","1","713.8999999985099","1440 x 900","1440 x 900","true","1","10","","","","",""
"null","<p style=""font-size: 80px;"">+ 10 points</p>","null","html-keyboard-response","90","447293","0.0-11.0-2.89","5d973ebf47985300199edb9b","88lbbu","HK","21","F","{""name"":""Chrome"",""chrome"":true,""version"":""106.0"",""blink"":true,""mac"":true,""osname"":""macOS"",""osversion"":""10.15.7"",""a"":true}","9:17:2","1","3","Test_4","74","j","1","790.1000000014901","1440 x 900","1440 x 900","true","1","10","","","","",""
"null","<p style=""font-size: 80px;"">+ 10 points</p>","null","html-keyboard-response","91","449932","0.0-11.0-2.90","5d973ebf47985300199edb9b","88lbbu","HK","21","F","{""name"":""Chrome"",""chrome"":true,""version"":""106.0"",""blink"":true,""mac"":true,""osname"":""macOS"",""osversion"":""10.15.7"",""a"":true}","9:17:2","1","3","Test_3","70","f","1","628","1440 x 900","1440 x 900","true","1","10","","","","",""
"null","<p style=""font-size: 80px;"">+ 10 points</p>","null","html-keyboard-response","92","452559","0.0-11.0-2.91","5d973ebf47985300199edb9b","88lbbu","HK","21","F","{""name"":""Chrome"",""chrome"":true,""version"":""106.0"",""blink"":true,""mac"":true,""osname"":""macOS"",""osversion"":""10.15.7"",""a"":true}","9:17:2","1","3","Test_2","74","j","1","614.1000000014901","1440 x 900","1440 x 900","true","1","10","","","","",""
"null","<p style=""font-size: 80px;"">+ 10 points</p>","null","html-keyboard-response","93","455128","0.0-11.0-2.92","5d973ebf47985300199edb9b","88lbbu","HK","21","F","{""name"":""Chrome"",""chrome"":true,""version"":""106.0"",""blink"":true,""mac"":true,""osname"":""macOS"",""osversion"":""10.15.7"",""a"":true}","9:17:2","1","3","Test_2","74","j","1","558","1440 x 900","1440 x 900","true","1","10","","","","",""
"null","<p style=""font-size: 80px;"">+ 10 points</p>","null","html-keyboard-response","94","457688","0.0-11.0-2.93","5d973ebf47985300199edb9b","88lbbu","HK","21","F","{""name"":""Chrome"",""chrome"":true,""version"":""106.0"",""blink"":true,""mac"":true,""osname"":""macOS"",""osversion"":""10.15.7"",""a"":true}","9:17:2","1","3","Test_4","74","j","1","548.3999999985099","1440 x 900","1440 x 900","true","1","10","","","","",""
"null","<p style=""font-size: 80px;"">+ 10 points</p>","null","html-keyboard-response","95","460409","0.0-11.0-2.94","5d973ebf47985300199edb9b","88lbbu","HK","21","F","{""name"":""Chrome"",""chrome"":true,""version"":""106.0"",""blink"":true,""mac"":true,""osname"":""macOS"",""osversion"":""10.15.7"",""a"":true}","9:17:2","1","3","Test_1","70","f","1","714.3000000044703","1440 x 900","1440 x 900","true","1","10","","","","",""
"null","<p style=""font-size: 80px;"">+ 10 points</p>","null","html-keyboard-response","96","463012","0.0-11.0-2.95","5d973ebf47985300199edb9b","88lbbu","HK","21","F","{""name"":""Chrome"",""chrome"":true,""version"":""106.0"",""blink"":true,""mac"":true,""osname"":""macOS"",""osversion"":""10.15.7"",""a"":true}","9:17:2","1","3","Test_2","74","j","1","595.3999999985099","1440 x 900","1440 x 900","true","1","10","","","","",""
"null","<p style=""font-size: 80px;"">+ 0 points</p>","null","html-keyboard-response","97","465617","0.0-11.0-2.96","5d973ebf47985300199edb9b","88lbbu","HK","21","F","{""name"":""Chrome"",""chrome"":true,""version"":""106.0"",""blink"":true,""mac"":true,""osname"":""macOS"",""osversion"":""10.15.7"",""a"":true}","9:17:2","1","4","Test_2","74","f","0","598.0999999940395","1440 x 900","1440 x 900","true","1","0","","","","",""
"null","<p style=""font-size: 80px;"">+ 10 points</p>","null","html-keyboard-response","98","468365","0.0-11.0-2.97","5d973ebf47985300199edb9b","88lbbu","HK","21","F","{""name"":""Chrome"",""chrome"":true,""version"":""106.0"",""blink"":true,""mac"":true,""osname"":""macOS"",""osversion"":""10.15.7"",""a"":true}","9:17:2","1","4","Test_3","74","j","1","737.9000000059605","1440 x 900","1440 x 900","true","1","10","","","","",""
"null","<p style=""font-size: 80px;"">+ 10 points</p>","null","html-keyboard-response","99","471234","0.0-11.0-2.98","5d973ebf47985300199edb9b","88lbbu","HK","21","F","{""name"":""Chrome"",""chrome"":true,""version"":""106.0"",""blink"":true,""mac"":true,""osname"":""macOS"",""osversion"":""10.15.7"",""a"":true}","9:17:2","1","4","Test_3","74","j","1","860.6000000014901","1440 x 900","1440 x 900","true","1","10","","","","",""
"null","<p style=""font-size: 80px;"">+ 0 points</p>","null","html-keyboard-response","100","474017","0.0-11.0-2.99","5d973ebf47985300199edb9b","88lbbu","HK","21","F","{""name"":""Chrome"",""chrome"":true,""version"":""106.0"",""blink"":true,""mac"":true,""osname"":""macOS"",""osversion"":""10.15.7"",""a"":true}","9:17:2","1","4","Test_1","70","j","0","776.3000000044703","1440 x 900","1440 x 900","true","1","0","","","","",""
"null","<p style=""font-size: 80px;"">+ 10 points</p>","null","html-keyboard-response","101","477781","0.0-11.0-2.100","5d973ebf47985300199edb9b","88lbbu","HK","21","F","{""name"":""Chrome"",""chrome"":true,""version"":""106.0"",""blink"":true,""mac"":true,""osname"":""macOS"",""osversion"":""10.15.7"",""a"":true}","9:17:2","1","4","Test_2","70","f","1","1754.1000000014901","1440 x 900","1440 x 900","true","1","10","","","","",""
"null","<p style=""font-size: 80px;"">+ 10 points</p>","null","html-keyboard-response","102","480418","0.0-11.0-2.101","5d973ebf47985300199edb9b","88lbbu","HK","21","F","{""name"":""Chrome"",""chrome"":true,""version"":""106.0"",""blink"":true,""mac"":true,""osname"":""macOS"",""osversion"":""10.15.7"",""a"":true}","9:17:2","1","4","Test_4","70","f","1","624.2999999970198","1440 x 900","1440 x 900","true","1","10","","","","",""
"null","<p style=""font-size: 80px;"">+ 10 points</p>","null","html-keyboard-response","103","482964","0.0-11.0-2.102","5d973ebf47985300199edb9b","88lbbu","HK","21","F","{""name"":""Chrome"",""chrome"":true,""version"":""106.0"",""blink"":true,""mac"":true,""osname"":""macOS"",""osversion"":""10.15.7"",""a"":true}","9:17:2","1","4","Test_2","70","f","1","540.5","1440 x 900","1440 x 900","true","1","10","","","","",""
"null","<p style=""font-size: 80px;"">+ 10 points</p>","null","html-keyboard-response","104","485597","0.0-11.0-2.103","5d973ebf47985300199edb9b","88lbbu","HK","21","F","{""name"":""Chrome"",""chrome"":true,""version"":""106.0"",""blink"":true,""mac"":true,""osname"":""macOS"",""osversion"":""10.15.7"",""a"":true}","9:17:2","1","4","Test_1","74","j","1","623.1999999955297","1440 x 900","1440 x 900","true","1","10","","","","",""
"null","<p style=""font-size: 80px;"">+ 10 points</p>","null","html-keyboard-response","105","488700","0.0-11.0-2.104","5d973ebf47985300199edb9b","88lbbu","HK","21","F","{""name"":""Chrome"",""chrome"":true,""version"":""106.0"",""blink"":true,""mac"":true,""osname"":""macOS"",""osversion"":""10.15.7"",""a"":true}","9:17:2","1","4","Test_4","70","f","1","1092.4000000059605","1440 x 900","1440 x 900","true","1","10","","","","",""
"null","<p style=""font-size: 80px;"">+ 10 points</p>","null","html-keyboard-response","106","491381","0.0-11.0-2.105","5d973ebf47985300199edb9b","88lbbu","HK","21","F","{""name"":""Chrome"",""chrome"":true,""version"":""106.0"",""blink"":true,""mac"":true,""osname"":""macOS"",""osversion"":""10.15.7"",""a"":true}","9:17:2","1","4","Test_2","70","f","1","673.6999999955297","1440 x 900","1440 x 900","true","1","10","","","","",""
"null","<p style=""font-size: 80px;"">+ 10 points</p>","null","html-keyboard-response","107","494373","0.0-11.0-2.106","5d973ebf47985300199edb9b","88lbbu","HK","21","F","{""name"":""Chrome"",""chrome"":true,""version"":""106.0"",""blink"":true,""mac"":true,""osname"":""macOS"",""osversion"":""10.15.7"",""a"":true}","9:17:2","1","4","Test_1","74","j","1","984.0999999940395","1440 x 900","1440 x 900","true","1","10","","","","",""
"null","<p style=""font-size: 80px;"">+ 10 points</p>","null","html-keyboard-response","108","497247","0.0-11.0-2.107","5d973ebf47985300199edb9b","88lbbu","HK","21","F","{""name"":""Chrome"",""chrome"":true,""version"":""106.0"",""blink"":true,""mac"":true,""osname"":""macOS"",""osversion"":""10.15.7"",""a"":true}","9:17:2","1","4","Test_1","74","j","1","863","1440 x 900","1440 x 900","true","1","10","","","","",""
"null","<p style=""font-size: 80px;"">+ 10 points</p>","null","html-keyboard-response","109","500338","0.0-11.0-2.108","5d973ebf47985300199edb9b","88lbbu","HK","21","F","{""name"":""Chrome"",""chrome"":true,""version"":""106.0"",""blink"":true,""mac"":true,""osname"":""macOS"",""osversion"":""10.15.7"",""a"":true}","9:17:2","1","4","Test_4","70","f","1","1081.8999999985099","1440 x 900","1440 x 900","true","1","10","","","","",""
"null","<p style=""font-size: 80px;"">+ 0 points</p>","null","html-keyboard-response","110","536037","0.0-11.0-2.109","5d973ebf47985300199edb9b","88lbbu","HK","21","F","{""name"":""Chrome"",""chrome"":true,""version"":""106.0"",""blink"":true,""mac"":true,""osname"":""macOS"",""osversion"":""10.15.7"",""a"":true}","9:17:2","1","4","Test_3","70","j","0","705.7999999970198","1440 x 900","1440 x 900","true","1","0","","","","",""
"null","<p style=""font-size: 80px;"">+ 10 points</p>","null","html-keyboard-response","111","538730","0.0-11.0-2.110","5d973ebf47985300199edb9b","88lbbu","HK","21","F","{""name"":""Chrome"",""chrome"":true,""version"":""106.0"",""blink"":true,""mac"":true,""osname"":""macOS"",""osversion"":""10.15.7"",""a"":true}","9:17:2","1","4","Test_3","74","j","1","682.6000000014901","1440 x 900","1440 x 900","true","1","10","","","","",""
"null","<p style=""font-size: 80px;"">+ 10 points</p>","null","html-keyboard-response","112","541624","0.0-11.0-2.111","5d973ebf47985300199edb9b","88lbbu","HK","21","F","{""name"":""Chrome"",""chrome"":true,""version"":""106.0"",""blink"":true,""mac"":true,""osname"":""macOS"",""osversion"":""10.15.7"",""a"":true}","9:17:2","1","4","Test_2","70","f","1","882.8999999985099","1440 x 900","1440 x 900","true","1","10","","","","",""
"null","<p style=""font-size: 80px;"">+ 0 points</p>","null","html-keyboard-response","113","544171","0.0-11.0-2.112","5d973ebf47985300199edb9b","88lbbu","HK","21","F","{""name"":""Chrome"",""chrome"":true,""version"":""106.0"",""blink"":true,""mac"":true,""osname"":""macOS"",""osversion"":""10.15.7"",""a"":true}","9:17:2","1","4","Test_3","70","j","0","538.2000000029802","1440 x 900","1440 x 900","true","1","0","","","","",""
"null","<p style=""font-size: 80px;"">+ 10 points</p>","null","html-keyboard-response","114","546912","0.0-11.0-2.113","5d973ebf47985300199edb9b","88lbbu","HK","21","F","{""name"":""Chrome"",""chrome"":true,""version"":""106.0"",""blink"":true,""mac"":true,""osname"":""macOS"",""osversion"":""10.15.7"",""a"":true}","9:17:2","1","4","Test_4","70","f","1","732.8999999985099","1440 x 900","1440 x 900","true","1","10","","","","",""
"null","<p style=""font-size: 80px;"">+ 10 points</p>","null","html-keyboard-response","115","550295","0.0-11.0-2.114","5d973ebf47985300199edb9b","88lbbu","HK","21","F","{""name"":""Chrome"",""chrome"":true,""version"":""106.0"",""blink"":true,""mac"":true,""osname"":""macOS"",""osversion"":""10.15.7"",""a"":true}","9:17:2","1","4","Test_3","74","j","1","1370.2000000029802","1440 x 900","1440 x 900","true","1","10","","","","",""
"null","<p style=""font-size: 80px;"">+ 10 points</p>","null","html-keyboard-response","116","553061","0.0-11.0-2.115","5d973ebf47985300199edb9b","88lbbu","HK","21","F","{""name"":""Chrome"",""chrome"":true,""version"":""106.0"",""blink"":true,""mac"":true,""osname"":""macOS"",""osversion"":""10.15.7"",""a"":true}","9:17:2","1","4","Test_4","70","f","1","756.3999999985099","1440 x 900","1440 x 900","true","1","10","","","","",""
"null","<p style=""font-size: 80px;"">+ 10 points</p>","null","html-keyboard-response","117","556204","0.0-11.0-2.116","5d973ebf47985300199edb9b","88lbbu","HK","21","F","{""name"":""Chrome"",""chrome"":true,""version"":""106.0"",""blink"":true,""mac"":true,""osname"":""macOS"",""osversion"":""10.15.7"",""a"":true}","9:17:2","1","4","Test_1","74","j","1","1130.5","1440 x 900","1440 x 900","true","1","10","","","","",""
"null","<p style=""font-size: 80px;"">+ 10 points</p>","null","html-keyboard-response","118","558929","0.0-11.0-2.117","5d973ebf47985300199edb9b","88lbbu","HK","21","F","{""name"":""Chrome"",""chrome"":true,""version"":""106.0"",""blink"":true,""mac"":true,""osname"":""macOS"",""osversion"":""10.15.7"",""a"":true}","9:17:2","1","4","Test_4","70","f","1","716.1000000014901","1440 x 900","1440 x 900","true","1","10","","","","",""
"null","<p style=""font-size: 80px;"">+ 0 points</p>","null","html-keyboard-response","119","561790","0.0-11.0-2.118","5d973ebf47985300199edb9b","88lbbu","HK","21","F","{""name"":""Chrome"",""chrome"":true,""version"":""106.0"",""blink"":true,""mac"":true,""osname"":""macOS"",""osversion"":""10.15.7"",""a"":true}","9:17:2","1","4","Test_2","74","f","0","853.7999999970198","1440 x 900","1440 x 900","true","1","0","","","","",""
"null","<p style=""font-size: 80px;"">+ 0 points</p>","null","html-keyboard-response","120","564860","0.0-11.0-2.119","5d973ebf47985300199edb9b","88lbbu","HK","21","F","{""name"":""Chrome"",""chrome"":true,""version"":""106.0"",""blink"":true,""mac"":true,""osname"":""macOS"",""osversion"":""10.15.7"",""a"":true}","9:17:2","1","3","Test_4","70","j","0","1059.8000000044703","1440 x 900","1440 x 900","true","1","0","","","","",""
"null","<p style=""font-size: 80px;"">+ 10 points</p>","null","html-keyboard-response","121","567625","0.0-11.0-2.120","5d973ebf47985300199edb9b","88lbbu","HK","21","F","{""name"":""Chrome"",""chrome"":true,""version"":""106.0"",""blink"":true,""mac"":true,""osname"":""macOS"",""osversion"":""10.15.7"",""a"":true}","9:17:2","1","3","Test_2","74","j","1","753.7999999970198","1440 x 900","1440 x 900","true","1","10","","","","",""
"null","<p style=""font-size: 80px;"">+ 10 points</p>","null","html-keyboard-response","122","570196","0.0-11.0-2.121","5d973ebf47985300199edb9b","88lbbu","HK","21","F","{""name"":""Chrome"",""chrome"":true,""version"":""106.0"",""blink"":true,""mac"":true,""osname"":""macOS"",""osversion"":""10.15.7"",""a"":true}","9:17:2","1","3","Test_1","70","f","1","563.2000000029802","1440 x 900","1440 x 900","true","1","10","","","","",""
"null","<p style=""font-size: 80px;"">+ 10 points</p>","null","html-keyboard-response","123","573744","0.0-11.0-2.122","5d973ebf47985300199edb9b","88lbbu","HK","21","F","{""name"":""Chrome"",""chrome"":true,""version"":""106.0"",""blink"":true,""mac"":true,""osname"":""macOS"",""osversion"":""10.15.7"",""a"":true}","9:17:2","1","3","Test_4","74","j","1","1539.8000000044703","1440 x 900","1440 x 900","true","1","10","","","","",""
"null","<p style=""font-size: 80px;"">+ 10 points</p>","null","html-keyboard-response","124","576413","0.0-11.0-2.123","5d973ebf47985300199edb9b","88lbbu","HK","21","F","{""name"":""Chrome"",""chrome"":true,""version"":""106.0"",""blink"":true,""mac"":true,""osname"":""macOS"",""osversion"":""10.15.7"",""a"":true}","9:17:2","1","3","Test_2","74","j","1","658.6999999955297","1440 x 900","1440 x 900","true","1","10","","","","",""
"null","<p style=""font-size: 80px;"">+ 10 points</p>","null","html-keyboard-response","125","580016","0.0-11.0-2.124","5d973ebf47985300199edb9b","88lbbu","HK","21","F","{""name"":""Chrome"",""chrome"":true,""version"":""106.0"",""blink"":true,""mac"":true,""osname"":""macOS"",""osversion"":""10.15.7"",""a"":true}","9:17:2","1","3","Test_2","74","j","1","1589.5999999940395","1440 x 900","1440 x 900","true","1","10","","","","",""
"null","<p style=""font-size: 80px;"">+ 10 points</p>","null","html-keyboard-response","126","583018","0.0-11.0-2.125","5d973ebf47985300199edb9b","88lbbu","HK","21","F","{""name"":""Chrome"",""chrome"":true,""version"":""106.0"",""blink"":true,""mac"":true,""osname"":""macOS"",""osversion"":""10.15.7"",""a"":true}","9:17:2","1","3","Test_1","70","f","1","988","1440 x 900","1440 x 900","true","1","10","","","","",""
"null","<p style=""font-size: 80px;"">+ 10 points</p>","null","html-keyboard-response","127","587269","0.0-11.0-2.126","5d973ebf47985300199edb9b","88lbbu","HK","21","F","{""name"":""Chrome"",""chrome"":true,""version"":""106.0"",""blink"":true,""mac"":true,""osname"":""macOS"",""osversion"":""10.15.7"",""a"":true}","9:17:2","1","3","Test_4","74","j","1","2240.89999999851","1440 x 900","1440 x 900","true","1","10","","","","",""
"null","<p style=""font-size: 80px;"">+ 10 points</p>","null","html-keyboard-response","128","590004","0.0-11.0-2.127","5d973ebf47985300199edb9b","88lbbu","HK","21","F","{""name"":""Chrome"",""chrome"":true,""version"":""106.0"",""blink"":true,""mac"":true,""osname"":""macOS"",""osversion"":""10.15.7"",""a"":true}","9:17:2","1","3","Test_4","74","j","1","723.2999999970198","1440 x 900","1440 x 900","true","1","10","","","","",""
"null","<p style=""font-size: 80px;"">+ 10 points</p>","null","html-keyboard-response","129","592986","0.0-11.0-2.128","5d973ebf47985300199edb9b","88lbbu","HK","21","F","{""name"":""Chrome"",""chrome"":true,""version"":""106.0"",""blink"":true,""mac"":true,""osname"":""macOS"",""osversion"":""10.15.7"",""a"":true}","9:17:2","1","3","Test_1","70","f","1","969.6999999955297","1440 x 900","1440 x 900","true","1","10","","","","",""
"null","<p style=""font-size: 80px;"">+ 10 points</p>","null","html-keyboard-response","130","595909","0.0-11.0-2.129","5d973ebf47985300199edb9b","88lbbu","HK","21","F","{""name"":""Chrome"",""chrome"":true,""version"":""106.0"",""blink"":true,""mac"":true,""osname"":""macOS"",""osversion"":""10.15.7"",""a"":true}","9:17:2","1","3","Test_3","70","f","1","913.5","1440 x 900","1440 x 900","true","1","10","","","","",""
"null","<p style=""font-size: 80px;"">+ 10 points</p>","null","html-keyboard-response","131","598655","0.0-11.0-2.130","5d973ebf47985300199edb9b","88lbbu","HK","21","F","{""name"":""Chrome"",""chrome"":true,""version"":""106.0"",""blink"":true,""mac"":true,""osname"":""macOS"",""osversion"":""10.15.7"",""a"":true}","9:17:2","1","3","Test_4","74","j","1","734.3000000044703","1440 x 900","1440 x 900","true","1","10","","","","",""
"null","<p style=""font-size: 80px;"">+ 0 points</p>","null","html-keyboard-response","132","601451","0.0-11.0-2.131","5d973ebf47985300199edb9b","88lbbu","HK","21","F","{""name"":""Chrome"",""chrome"":true,""version"":""106.0"",""blink"":true,""mac"":true,""osname"":""macOS"",""osversion"":""10.15.7"",""a"":true}","9:17:2","1","3","Test_3","74","f","0","782.1000000014901","1440 x 900","1440 x 900","true","1","0","","","","",""
"null","<p style=""font-size: 80px;"">+ 10 points</p>","null","html-keyboard-response","133","604562","0.0-11.0-2.132","5d973ebf47985300199edb9b","88lbbu","HK","21","F","{""name"":""Chrome"",""chrome"":true,""version"":""106.0"",""blink"":true,""mac"":true,""osname"":""macOS"",""osversion"":""10.15.7"",""a"":true}","9:17:2","1","3","Test_2","74","j","1","1101.3999999985099","1440 x 900","1440 x 900","true","1","10","","","","",""
"null","<p style=""font-size: 80px;"">+ 10 points</p>","null","html-keyboard-response","134","607809","0.0-11.0-2.133","5d973ebf47985300199edb9b","88lbbu","HK","21","F","{""name"":""Chrome"",""chrome"":true,""version"":""106.0"",""blink"":true,""mac"":true,""osname"":""macOS"",""osversion"":""10.15.7"",""a"":true}","9:17:2","1","3","Test_1","70","f","1","1238.5","1440 x 900","1440 x 900","true","1","10","","","","",""
"null","<p style=""font-size: 80px;"">+ 0 points</p>","null","html-keyboard-response","135","610704","0.0-11.0-2.134","5d973ebf47985300199edb9b","88lbbu","HK","21","F","{""name"":""Chrome"",""chrome"":true,""version"":""106.0"",""blink"":true,""mac"":true,""osname"":""macOS"",""osversion"":""10.15.7"",""a"":true}","9:17:2","1","3","Test_3","74","f","0","881.3000000044703","1440 x 900","1440 x 900","true","1","0","","","","",""
"null","<p style=""font-size: 80px;"">+ 10 points</p>","null","html-keyboard-response","136","613349","0.0-11.0-2.135","5d973ebf47985300199edb9b","88lbbu","HK","21","F","{""name"":""Chrome"",""chrome"":true,""version"":""106.0"",""blink"":true,""mac"":true,""osname"":""macOS"",""osversion"":""10.15.7"",""a"":true}","9:17:2","1","3","Test_3","70","f","1","635.1999999955297","1440 x 900","1440 x 900","true","1","10","","","","",""
"null","<p style=""font-size: 80px;"">+ 10 points</p>","null","html-keyboard-response","137","616659","0.0-11.0-2.136","5d973ebf47985300199edb9b","88lbbu","HK","21","F","{""name"":""Chrome"",""chrome"":true,""version"":""106.0"",""blink"":true,""mac"":true,""osname"":""macOS"",""osversion"":""10.15.7"",""a"":true}","9:17:2","1","3","Test_2","74","j","1","1300.5","1440 x 900","1440 x 900","true","1","10","","","","",""
"null","<p style=""font-size: 80px;"">+ 10 points</p>","null","html-keyboard-response","138","619362","0.0-11.0-2.137","5d973ebf47985300199edb9b","88lbbu","HK","21","F","{""name"":""Chrome"",""chrome"":true,""version"":""106.0"",""blink"":true,""mac"":true,""osname"":""macOS"",""osversion"":""10.15.7"",""a"":true}","9:17:2","1","3","Test_3","70","f","1","695.3999999985099","1440 x 900","1440 x 900","true","1","10","","","","",""
"null","<p style=""font-size: 80px;"">+ 0 points</p>","null","html-keyboard-response","139","622158","0.0-11.0-2.138","5d973ebf47985300199edb9b","88lbbu","HK","21","F","{""name"":""Chrome"",""chrome"":true,""version"":""106.0"",""blink"":true,""mac"":true,""osname"":""macOS"",""osversion"":""10.15.7"",""a"":true}","9:17:2","1","4","Test_4","74","f","0","789.2000000029802","1440 x 900","1440 x 900","true","1","0","","","","",""
"null","<p style=""font-size: 80px;"">+ 10 points</p>","null","html-keyboard-response","140","625136","0.0-11.0-2.139","5d973ebf47985300199edb9b","88lbbu","HK","21","F","{""name"":""Chrome"",""chrome"":true,""version"":""106.0"",""blink"":true,""mac"":true,""osname"":""macOS"",""osversion"":""10.15.7"",""a"":true}","9:17:2","1","4","Test_1","74","j","1","970.1000000014901","1440 x 900","1440 x 900","true","1","10","","","","",""
"null","<p style=""font-size: 80px;"">+ 10 points</p>","null","html-keyboard-response","141","627937","0.0-11.0-2.140","5d973ebf47985300199edb9b","88lbbu","HK","21","F","{""name"":""Chrome"",""chrome"":true,""version"":""106.0"",""blink"":true,""mac"":true,""osname"":""macOS"",""osversion"":""10.15.7"",""a"":true}","9:17:2","1","4","Test_1","74","j","1","791.1999999955297","1440 x 900","1440 x 900","true","1","10","","","","",""
"null","<p style=""font-size: 80px;"">+ 0 points</p>","null","html-keyboard-response","142","630834","0.0-11.0-2.141","5d973ebf47985300199edb9b","88lbbu","HK","21","F","{""name"":""Chrome"",""chrome"":true,""version"":""106.0"",""blink"":true,""mac"":true,""osname"":""macOS"",""osversion"":""10.15.7"",""a"":true}","9:17:2","1","4","Test_3","70","j","0","884.7999999970198","1440 x 900","1440 x 900","true","1","0","","","","",""
"null","<p style=""font-size: 80px;"">+ 10 points</p>","null","html-keyboard-response","143","633430","0.0-11.0-2.142","5d973ebf47985300199edb9b","88lbbu","HK","21","F","{""name"":""Chrome"",""chrome"":true,""version"":""106.0"",""blink"":true,""mac"":true,""osname"":""macOS"",""osversion"":""10.15.7"",""a"":true}","9:17:2","1","4","Test_3","74","j","1","582.7999999970198","1440 x 900","1440 x 900","true","1","10","","","","",""
"null","<p style=""font-size: 80px;"">+ 10 points</p>","null","html-keyboard-response","144","636246","0.0-11.0-2.143","5d973ebf47985300199edb9b","88lbbu","HK","21","F","{""name"":""Chrome"",""chrome"":true,""version"":""106.0"",""blink"":true,""mac"":true,""osname"":""macOS"",""osversion"":""10.15.7"",""a"":true}","9:17:2","1","4","Test_2","70","f","1","802.2000000029802","1440 x 900","1440 x 900","true","1","10","","","","",""
"null","<p style=""font-size: 80px;"">+ 10 points</p>","null","html-keyboard-response","145","639014","0.0-11.0-2.144","5d973ebf47985300199edb9b","88lbbu","HK","21","F","{""name"":""Chrome"",""chrome"":true,""version"":""106.0"",""blink"":true,""mac"":true,""osname"":""macOS"",""osversion"":""10.15.7"",""a"":true}","9:17:2","1","4","Test_3","74","j","1","758.5","1440 x 900","1440 x 900","true","1","10","","","","",""
"null","<p style=""font-size: 80px;"">+ 10 points</p>","null","html-keyboard-response","146","643528","0.0-11.0-2.145","5d973ebf47985300199edb9b","88lbbu","HK","21","F","{""name"":""Chrome"",""chrome"":true,""version"":""106.0"",""blink"":true,""mac"":true,""osname"":""macOS"",""osversion"":""10.15.7"",""a"":true}","9:17:2","1","4","Test_2","70","f","1","2507.2000000029802","1440 x 900","1440 x 900","true","1","10","","","","",""
"null","<p style=""font-size: 80px;"">+ 0 points</p>","null","html-keyboard-response","147","647466","0.0-11.0-2.146","5d973ebf47985300199edb9b","88lbbu","HK","21","F","{""name"":""Chrome"",""chrome"":true,""version"":""106.0"",""blink"":true,""mac"":true,""osname"":""macOS"",""osversion"":""10.15.7"",""a"":true}","9:17:2","1","4","Test_1","70","j","0","1932.0999999940395","1440 x 900","1440 x 900","true","1","0","","","","",""
"null","<p style=""font-size: 80px;"">+ 10 points</p>","null","html-keyboard-response","148","650218","0.0-11.0-2.147","5d973ebf47985300199edb9b","88lbbu","HK","21","F","{""name"":""Chrome"",""chrome"":true,""version"":""106.0"",""blink"":true,""mac"":true,""osname"":""macOS"",""osversion"":""10.15.7"",""a"":true}","9:17:2","1","4","Test_1","74","j","1","741","1440 x 900","1440 x 900","true","1","10","","","","",""
"null","<p style=""font-size: 80px;"">+ 10 points</p>","null","html-keyboard-response","149","652911","0.0-11.0-2.148","5d973ebf47985300199edb9b","88lbbu","HK","21","F","{""name"":""Chrome"",""chrome"":true,""version"":""106.0"",""blink"":true,""mac"":true,""osname"":""macOS"",""osversion"":""10.15.7"",""a"":true}","9:17:2","1","4","Test_2","70","f","1","684.3000000044703","1440 x 900","1440 x 900","true","1","10","","","","",""
"null","<p style=""font-size: 80px;"">+ 10 points</p>","null","html-keyboard-response","150","655528","0.0-11.0-2.149","5d973ebf47985300199edb9b","88lbbu","HK","21","F","{""name"":""Chrome"",""chrome"":true,""version"":""106.0"",""blink"":true,""mac"":true,""osname"":""macOS"",""osversion"":""10.15.7"",""a"":true}","9:17:2","1","4","Test_2","70","f","1","605.1000000014901","1440 x 900","1440 x 900","true","1","10","","","","",""
"null","<p style=""font-size: 80px;"">+ 10 points</p>","null","html-keyboard-response","151","658228","0.0-11.0-2.150","5d973ebf47985300199edb9b","88lbbu","HK","21","F","{""name"":""Chrome"",""chrome"":true,""version"":""106.0"",""blink"":true,""mac"":true,""osname"":""macOS"",""osversion"":""10.15.7"",""a"":true}","9:17:2","1","4","Test_4","70","f","1","689.1000000014901","1440 x 900","1440 x 900","true","1","10","","","","",""
"null","<p style=""font-size: 80px;"">+ 10 points</p>","null","html-keyboard-response","152","661096","0.0-11.0-2.151","5d973ebf47985300199edb9b","88lbbu","HK","21","F","{""name"":""Chrome"",""chrome"":true,""version"":""106.0"",""blink"":true,""mac"":true,""osname"":""macOS"",""osversion"":""10.15.7"",""a"":true}","9:17:2","1","4","Test_2","70","f","1","859.3999999985099","1440 x 900","1440 x 900","true","1","10","","","","",""
"null","<p style=""font-size: 80px;"">+ 0 points</p>","null","html-keyboard-response","153","663772","0.0-11.0-2.152","5d973ebf47985300199edb9b","88lbbu","HK","21","F","{""name"":""Chrome"",""chrome"":true,""version"":""106.0"",""blink"":true,""mac"":true,""osname"":""macOS"",""osversion"":""10.15.7"",""a"":true}","9:17:2","1","4","Test_1","70","j","0","668.2000000029802","1440 x 900","1440 x 900","true","1","0","","","","",""
"null","<p style=""font-size: 80px;"">+ 0 points</p>","null","html-keyboard-response","154","666485","0.0-11.0-2.153","5d973ebf47985300199edb9b","88lbbu","HK","21","F","{""name"":""Chrome"",""chrome"":true,""version"":""106.0"",""blink"":true,""mac"":true,""osname"":""macOS"",""osversion"":""10.15.7"",""a"":true}","9:17:2","1","4","Test_4","74","f","0","702.2000000029802","1440 x 900","1440 x 900","true","1","0","","","","",""
"null","<p style=""font-size: 80px;"">+ 10 points</p>","null","html-keyboard-response","155","669419","0.0-11.0-2.154","5d973ebf47985300199edb9b","88lbbu","HK","21","F","{""name"":""Chrome"",""chrome"":true,""version"":""106.0"",""blink"":true,""mac"":true,""osname"":""macOS"",""osversion"":""10.15.7"",""a"":true}","9:17:2","1","4","Test_4","70","f","1","921.6999999955297","1440 x 900","1440 x 900","true","1","10","","","","",""
"null","<p style=""font-size: 80px;"">+ 10 points</p>","null","html-keyboard-response","156","672146","0.0-11.0-2.155","5d973ebf47985300199edb9b","88lbbu","HK","21","F","{""name"":""Chrome"",""chrome"":true,""version"":""106.0"",""blink"":true,""mac"":true,""osname"":""macOS"",""osversion"":""10.15.7"",""a"":true}","9:17:2","1","4","Test_3","74","j","1","718.1000000014901","1440 x 900","1440 x 900","true","1","10","","","","",""
"null","<p style=""font-size: 80px;"">+ 10 points</p>","null","html-keyboard-response","157","675443","0.0-11.0-2.156","5d973ebf47985300199edb9b","88lbbu","HK","21","F","{""name"":""Chrome"",""chrome"":true,""version"":""106.0"",""blink"":true,""mac"":true,""osname"":""macOS"",""osversion"":""10.15.7"",""a"":true}","9:17:2","1","3","Test_4","74","j","1","1286.5","1440 x 900","1440 x 900","true","1","10","","","","",""
"null","<p style=""font-size: 80px;"">+ 10 points</p>","null","html-keyboard-response","158","677950","0.0-11.0-2.157","5d973ebf47985300199edb9b","88lbbu","HK","21","F","{""name"":""Chrome"",""chrome"":true,""version"":""106.0"",""blink"":true,""mac"":true,""osname"":""macOS"",""osversion"":""10.15.7"",""a"":true}","9:17:2","1","3","Test_3","70","f","1","496.1000000014901","1440 x 900","1440 x 900","true","1","10","","","","",""
"null","<p style=""font-size: 80px;"">+ 10 points</p>","null","html-keyboard-response","159","680756","0.0-11.0-2.158","5d973ebf47985300199edb9b","88lbbu","HK","21","F","{""name"":""Chrome"",""chrome"":true,""version"":""106.0"",""blink"":true,""mac"":true,""osname"":""macOS"",""osversion"":""10.15.7"",""a"":true}","9:17:2","1","3","Test_4","74","j","1","794","1440 x 900","1440 x 900","true","1","10","","","","",""
"null","<p style=""font-size: 80px;"">+ 0 points</p>","null","html-keyboard-response","160","683322","0.0-11.0-2.159","5d973ebf47985300199edb9b","88lbbu","HK","21","F","{""name"":""Chrome"",""chrome"":true,""version"":""106.0"",""blink"":true,""mac"":true,""osname"":""macOS"",""osversion"":""10.15.7"",""a"":true}","9:17:2","1","3","Test_2","70","j","0","554.3999999985099","1440 x 900","1440 x 900","true","1","0","","","","",""
"null","<p style=""font-size: 80px;"">+ 10 points</p>","null","html-keyboard-response","161","685938","0.0-11.0-2.160","5d973ebf47985300199edb9b","88lbbu","HK","21","F","{""name"":""Chrome"",""chrome"":true,""version"":""106.0"",""blink"":true,""mac"":true,""osname"":""macOS"",""osversion"":""10.15.7"",""a"":true}","9:17:2","1","3","Test_2","74","j","1","605.6999999955297","1440 x 900","1440 x 900","true","1","10","","","","",""
"null","<p style=""font-size: 80px;"">+ 10 points</p>","null","html-keyboard-response","162","688686","0.0-11.0-2.161","5d973ebf47985300199edb9b","88lbbu","HK","21","F","{""name"":""Chrome"",""chrome"":true,""version"":""106.0"",""blink"":true,""mac"":true,""osname"":""macOS"",""osversion"":""10.15.7"",""a"":true}","9:17:2","1","3","Test_3","70","f","1","736.3000000044703","1440 x 900","1440 x 900","true","1","10","","","","",""
"null","<p style=""font-size: 80px;"">+ 10 points</p>","null","html-keyboard-response","163","691452","0.0-11.0-2.162","5d973ebf47985300199edb9b","88lbbu","HK","21","F","{""name"":""Chrome"",""chrome"":true,""version"":""106.0"",""blink"":true,""mac"":true,""osname"":""macOS"",""osversion"":""10.15.7"",""a"":true}","9:17:2","1","3","Test_1","70","f","1","756.1000000014901","1440 x 900","1440 x 900","true","1","10","","","","",""
"null","<p style=""font-size: 80px;"">+ 10 points</p>","null","html-keyboard-response","164","694582","0.0-11.0-2.163","5d973ebf47985300199edb9b","88lbbu","HK","21","F","{""name"":""Chrome"",""chrome"":true,""version"":""106.0"",""blink"":true,""mac"":true,""osname"":""macOS"",""osversion"":""10.15.7"",""a"":true}","9:17:2","1","3","Test_4","74","j","1","1123.3999999985099","1440 x 900","1440 x 900","true","1","10","","","","",""
"null","<p style=""font-size: 80px;"">+ 0 points</p>","null","html-keyboard-response","165","697335","0.0-11.0-2.164","5d973ebf47985300199edb9b","88lbbu","HK","21","F","{""name"":""Chrome"",""chrome"":true,""version"":""106.0"",""blink"":true,""mac"":true,""osname"":""macOS"",""osversion"":""10.15.7"",""a"":true}","9:17:2","1","3","Test_2","70","j","0","739.8999999985099","1440 x 900","1440 x 900","true","1","0","","","","",""
"null","<p style=""font-size: 80px;"">+ 10 points</p>","null","html-keyboard-response","166","700401","0.0-11.0-2.165","5d973ebf47985300199edb9b","88lbbu","HK","21","F","{""name"":""Chrome"",""chrome"":true,""version"":""106.0"",""blink"":true,""mac"":true,""osname"":""macOS"",""osversion"":""10.15.7"",""a"":true}","9:17:2","1","3","Test_1","70","f","1","1055.2999999970198","1440 x 900","1440 x 900","true","1","10","","","","",""
"null","<p style=""font-size: 80px;"">+ 10 points</p>","null","html-keyboard-response","167","703182","0.0-11.0-2.166","5d973ebf47985300199edb9b","88lbbu","HK","21","F","{""name"":""Chrome"",""chrome"":true,""version"":""106.0"",""blink"":true,""mac"":true,""osname"":""macOS"",""osversion"":""10.15.7"",""a"":true}","9:17:2","1","3","Test_4","74","j","1","771.2999999970198","1440 x 900","1440 x 900","true","1","10","","","","",""
"null","<p style=""font-size: 80px;"">+ 10 points</p>","null","html-keyboard-response","168","705961","0.0-11.0-2.167","5d973ebf47985300199edb9b","88lbbu","HK","21","F","{""name"":""Chrome"",""chrome"":true,""version"":""106.0"",""blink"":true,""mac"":true,""osname"":""macOS"",""osversion"":""10.15.7"",""a"":true}","9:17:2","1","3","Test_2","74","j","1","767.8000000044703","1440 x 900","1440 x 900","true","1","10","","","","",""
"null","<p style=""font-size: 80px;"">+ 10 points</p>","null","html-keyboard-response","169","708761","0.0-11.0-2.168","5d973ebf47985300199edb9b","88lbbu","HK","21","F","{""name"":""Chrome"",""chrome"":true,""version"":""106.0"",""blink"":true,""mac"":true,""osname"":""macOS"",""osversion"":""10.15.7"",""a"":true}","9:17:2","1","3","Test_3","70","f","1","785.5","1440 x 900","1440 x 900","true","1","10","","","","",""
"null","<p style=""font-size: 80px;"">+ 10 points</p>","null","html-keyboard-response","170","711530","0.0-11.0-2.169","5d973ebf47985300199edb9b","88lbbu","HK","21","F","{""name"":""Chrome"",""chrome"":true,""version"":""106.0"",""blink"":true,""mac"":true,""osname"":""macOS"",""osversion"":""10.15.7"",""a"":true}","9:17:2","1","3","Test_1","70","f","1","758.3000000044703","1440 x 900","1440 x 900","true","1","10","","","","",""
"null","<p style=""font-size: 80px;"">+ 10 points</p>","null","html-keyboard-response","171","714357","0.0-11.0-2.170","5d973ebf47985300199edb9b","88lbbu","HK","21","F","{""name"":""Chrome"",""chrome"":true,""version"":""106.0"",""blink"":true,""mac"":true,""osname"":""macOS"",""osversion"":""10.15.7"",""a"":true}","9:17:2","1","3","Test_1","70","f","1","813.8000000044703","1440 x 900","1440 x 900","true","1","10","","","","",""
"null","<p style=""font-size: 80px;"">+ 10 points</p>","null","html-keyboard-response","172","716904","0.0-11.0-2.171","5d973ebf47985300199edb9b","88lbbu","HK","21","F","{""name"":""Chrome"",""chrome"":true,""version"":""106.0"",""blink"":true,""mac"":true,""osname"":""macOS"",""osversion"":""10.15.7"",""a"":true}","9:17:2","1","3","Test_3","70","f","1","538.6000000014901","1440 x 900","1440 x 900","true","1","10","","","","",""
"null","<p style=""font-size: 80px;"">+ 0 points</p>","null","html-keyboard-response","173","719687","0.0-11.0-2.172","5d973ebf47985300199edb9b","88lbbu","HK","21","F","{""name"":""Chrome"",""chrome"":true,""version"":""106.0"",""blink"":true,""mac"":true,""osname"":""macOS"",""osversion"":""10.15.7"",""a"":true}","9:17:2","1","4","Test_2","74","f","0","773.3999999985099","1440 x 900","1440 x 900","true","1","0","","","","",""
"null","<p style=""font-size: 80px;"">+ 10 points</p>","null","html-keyboard-response","174","722302","0.0-11.0-2.173","5d973ebf47985300199edb9b","88lbbu","HK","21","F","{""name"":""Chrome"",""chrome"":true,""version"":""106.0"",""blink"":true,""mac"":true,""osname"":""macOS"",""osversion"":""10.15.7"",""a"":true}","9:17:2","1","4","Test_2","70","f","1","602.6999999955297","1440 x 900","1440 x 900","true","1","10","","","","",""
"null","<p style=""font-size: 80px;"">+ 10 points</p>","null","html-keyboard-response","175","725070","0.0-11.0-2.174","5d973ebf47985300199edb9b","88lbbu","HK","21","F","{""name"":""Chrome"",""chrome"":true,""version"":""106.0"",""blink"":true,""mac"":true,""osname"":""macOS"",""osversion"":""10.15.7"",""a"":true}","9:17:2","1","4","Test_1","74","j","1","754","1440 x 900","1440 x 900","true","1","10","","","","",""
"null","<p style=""font-size: 80px;"">+ 10 points</p>","null","html-keyboard-response","176","727814","0.0-11.0-2.175","5d973ebf47985300199edb9b","88lbbu","HK","21","F","{""name"":""Chrome"",""chrome"":true,""version"":""106.0"",""blink"":true,""mac"":true,""osname"":""macOS"",""osversion"":""10.15.7"",""a"":true}","9:17:2","1","4","Test_3","74","j","1","732.1000000014901","1440 x 900","1440 x 900","true","1","10","","","","",""
"null","<p style=""font-size: 80px;"">+ 10 points</p>","null","html-keyboard-response","177","730862","0.0-11.0-2.176","5d973ebf47985300199edb9b","88lbbu","HK","21","F","{""name"":""Chrome"",""chrome"":true,""version"":""106.0"",""blink"":true,""mac"":true,""osname"":""macOS"",""osversion"":""10.15.7"",""a"":true}","9:17:2","1","4","Test_4","70","f","1","1038.4000000059605","1440 x 900","1440 x 900","true","1","10","","","","",""
"null","<p style=""font-size: 80px;"">+ 10 points</p>","null","html-keyboard-response","178","733899","0.0-11.0-2.177","5d973ebf47985300199edb9b","88lbbu","HK","21","F","{""name"":""Chrome"",""chrome"":true,""version"":""106.0"",""blink"":true,""mac"":true,""osname"":""macOS"",""osversion"":""10.15.7"",""a"":true}","9:17:2","1","4","Test_2","70","f","1","1025.3999999985099","1440 x 900","1440 x 900","true","1","10","","","","",""
"null","<p style=""font-size: 80px;"">+ 0 points</p>","null","html-keyboard-response","179","736640","0.0-11.0-2.178","5d973ebf47985300199edb9b","88lbbu","HK","21","F","{""name"":""Chrome"",""chrome"":true,""version"":""106.0"",""blink"":true,""mac"":true,""osname"":""macOS"",""osversion"":""10.15.7"",""a"":true}","9:17:2","1","4","Test_4","74","f","0","730.3999999985099","1440 x 900","1440 x 900","true","1","0","","","","",""
"null","<p style=""font-size: 80px;"">+ 10 points</p>","null","html-keyboard-response","180","739885","0.0-11.0-2.179","5d973ebf47985300199edb9b","88lbbu","HK","21","F","{""name"":""Chrome"",""chrome"":true,""version"":""106.0"",""blink"":true,""mac"":true,""osname"":""macOS"",""osversion"":""10.15.7"",""a"":true}","9:17:2","1","4","Test_2","70","f","1","1235.1000000014901","1440 x 900","1440 x 900","true","1","10","","","","",""
"null","<p style=""font-size: 80px;"">+ 0 points</p>","null","html-keyboard-response","181","742108","0.0-11.0-2.180","5d973ebf47985300199edb9b","88lbbu","HK","21","F","{""name"":""Chrome"",""chrome"":true,""version"":""106.0"",""blink"":true,""mac"":true,""osname"":""macOS"",""osversion"":""10.15.7"",""a"":true}","9:17:2","1","4","Test_1","70","j","0","215.10000000149012","1440 x 900","1440 x 900","true","1","0","","","","",""
"null","<p style=""font-size: 80px;"">+ 10 points</p>","null","html-keyboard-response","182","744842","0.0-11.0-2.181","5d973ebf47985300199edb9b","88lbbu","HK","21","F","{""name"":""Chrome"",""chrome"":true,""version"":""106.0"",""blink"":true,""mac"":true,""osname"":""macOS"",""osversion"":""10.15.7"",""a"":true}","9:17:2","1","4","Test_3","74","j","1","720.1000000014901","1440 x 900","1440 x 900","true","1","10","","","","",""
"null","<p style=""font-size: 80px;"">+ 10 points</p>","null","html-keyboard-response","183","747693","0.0-11.0-2.182","5d973ebf47985300199edb9b","88lbbu","HK","21","F","{""name"":""Chrome"",""chrome"":true,""version"":""106.0"",""blink"":true,""mac"":true,""osname"":""macOS"",""osversion"":""10.15.7"",""a"":true}","9:17:2","1","4","Test_4","70","f","1","837.3999999985099","1440 x 900","1440 x 900","true","1","10","","","","",""
"null","<p style=""font-size: 80px;"">+ 0 points</p>","null","html-keyboard-response","184","750573","0.0-11.0-2.183","5d973ebf47985300199edb9b","88lbbu","HK","21","F","{""name"":""Chrome"",""chrome"":true,""version"":""106.0"",""blink"":true,""mac"":true,""osname"":""macOS"",""osversion"":""10.15.7"",""a"":true}","9:17:2","1","4","Test_4","74","f","0","870.3999999985099","1440 x 900","1440 x 900","true","1","0","","","","",""
"null","<p style=""font-size: 80px;"">+ 0 points</p>","null","html-keyboard-response","185","754061","0.0-11.0-2.184","5d973ebf47985300199edb9b","88lbbu","HK","21","F","{""name"":""Chrome"",""chrome"":true,""version"":""106.0"",""blink"":true,""mac"":true,""osname"":""macOS"",""osversion"":""10.15.7"",""a"":true}","9:17:2","1","4","Test_4","74","f","0","1482.6000000014901","1440 x 900","1440 x 900","true","1","0","","","","",""
"null","<p style=""font-size: 80px;"">+ 0 points</p>","null","html-keyboard-response","186","757226","0.0-11.0-2.185","5d973ebf47985300199edb9b","88lbbu","HK","21","F","{""name"":""Chrome"",""chrome"":true,""version"":""106.0"",""blink"":true,""mac"":true,""osname"":""macOS"",""osversion"":""10.15.7"",""a"":true}","9:17:2","1","4","Test_3","70","j","0","1153.7999999970198","1440 x 900","1440 x 900","true","1","0","","","","",""
"null","<p style=""font-size: 80px;"">+ 10 points</p>","null","html-keyboard-response","187","759926","0.0-11.0-2.186","5d973ebf47985300199edb9b","88lbbu","HK","21","F","{""name"":""Chrome"",""chrome"":true,""version"":""106.0"",""blink"":true,""mac"":true,""osname"":""macOS"",""osversion"":""10.15.7"",""a"":true}","9:17:2","1","4","Test_3","74","j","1","690.5","1440 x 900","1440 x 900","true","1","10","","","","",""
"null","<p style=""font-size: 80px;"">+ 10 points</p>","null","html-keyboard-response","188","762742","0.0-11.0-2.187","5d973ebf47985300199edb9b","88lbbu","HK","21","F","{""name"":""Chrome"",""chrome"":true,""version"":""106.0"",""blink"":true,""mac"":true,""osname"":""macOS"",""osversion"":""10.15.7"",""a"":true}","9:17:2","1","4","Test_3","74","j","1","811.2000000029802","1440 x 900","1440 x 900","true","1","10","","","","",""
"null","<p style=""font-size: 80px;"">+ 10 points</p>","null","html-keyboard-response","189","765784","0.0-11.0-2.188","5d973ebf47985300199edb9b","88lbbu","HK","21","F","{""name"":""Chrome"",""chrome"":true,""version"":""106.0"",""blink"":true,""mac"":true,""osname"":""macOS"",""osversion"":""10.15.7"",""a"":true}","9:17:2","1","4","Test_2","70","f","1","1031.6000000014901","1440 x 900","1440 x 900","true","1","10","","","","",""
"null","<p style=""font-size: 80px;"">+ 0 points</p>","null","html-keyboard-response","190","768714","0.0-11.0-2.189","5d973ebf47985300199edb9b","88lbbu","HK","21","F","{""name"":""Chrome"",""chrome"":true,""version"":""106.0"",""blink"":true,""mac"":true,""osname"":""macOS"",""osversion"":""10.15.7"",""a"":true}","9:17:2","1","4","Test_1","70","j","0","919.8000000044703","1440 x 900","1440 x 900","true","1","0","","","","",""
