"rt","stimulus","key_press","trial_type","trial_index","time_elapsed","internal_node_id","Prolific_ID","random_ID","initials","age","gender","pc_info","start_time","Phase","Rule","Stimulus","Response","CorrResp","Accuracy","ResponseTime","screen_resolution","window_resolution","focus","relevant","Points","responses","question_order","rev_check","butterfly_check","passed_practice"
"null","<p style=""font-size: 80px;"">+ 10 points</p>","null","html-keyboard-response","1","62741","0.0-7.0-2.0","603ac173f583af711762bc55","8xzkfm","SNK","22","F","{""name"":""Chrome"",""chrome"":true,""version"":""105.0"",""blink"":true,""windows"":true,""osname"":""Windows"",""osversion"":""10"",""a"":true}","9:15:50","0","1","Practice_1","70","f","1","1558.5","1536 x 864","1536 x 864","true","1","10","","","","",""
"null","<p style=""font-size: 80px;"">+ 0 points</p>","null","html-keyboard-response","2","65607","0.0-7.0-2.1","603ac173f583af711762bc55","8xzkfm","SNK","22","F","{""name"":""Chrome"",""chrome"":true,""version"":""105.0"",""blink"":true,""windows"":true,""osname"":""Windows"",""osversion"":""10"",""a"":true}","9:15:50","0","1","Practice_3","74","f","0","840.5999999046326","1536 x 864","1536 x 864","true","1","0","","","","",""
"null","<p style=""font-size: 80px;"">+ 0 points</p>","null","html-keyboard-response","3","69146","0.0-7.0-2.2","603ac173f583af711762bc55","8xzkfm","SNK","22","F","{""name"":""Chrome"",""chrome"":true,""version"":""105.0"",""blink"":true,""windows"":true,""osname"":""Windows"",""osversion"":""10"",""a"":true}","9:15:50","0","1","Practice_4","70","j","0","1517.5","1536 x 864","1536 x 864","true","1","0","","","","",""
"null","<p style=""font-size: 80px;"">+ 10 points</p>","null","html-keyboard-response","4","72643","0.0-7.0-2.3","603ac173f583af711762bc55","8xzkfm","SNK","22","F","{""name"":""Chrome"",""chrome"":true,""version"":""105.0"",""blink"":true,""windows"":true,""osname"":""Windows"",""osversion"":""10"",""a"":true}","9:15:50","0","1","Practice_2","74","j","1","1470.2999999523163","1536 x 864","1536 x 864","true","1","10","","","","",""
"null","<p style=""font-size: 80px;"">+ 10 points</p>","null","html-keyboard-response","5","75642","0.0-7.0-2.4","603ac173f583af711762bc55","8xzkfm","SNK","22","F","{""name"":""Chrome"",""chrome"":true,""version"":""105.0"",""blink"":true,""windows"":true,""osname"":""Windows"",""osversion"":""10"",""a"":true}","9:15:50","0","1","Practice_1","70","f","1","974.6000001430511","1536 x 864","1536 x 864","true","1","10","","","","",""
"null","<p style=""font-size: 80px;"">+ 10 points</p>","null","html-keyboard-response","6","78709","0.0-7.0-2.5","603ac173f583af711762bc55","8xzkfm","SNK","22","F","{""name"":""Chrome"",""chrome"":true,""version"":""105.0"",""blink"":true,""windows"":true,""osname"":""Windows"",""osversion"":""10"",""a"":true}","9:15:50","0","1","Practice_4","74","j","1","1044.2999999523163","1536 x 864","1536 x 864","true","1","10","","","","",""
"null","<p style=""font-size: 80px;"">+ 0 points</p>","null","html-keyboard-response","7","82162","0.0-7.0-2.6","603ac173f583af711762bc55","8xzkfm","SNK","22","F","{""name"":""Chrome"",""chrome"":true,""version"":""105.0"",""blink"":true,""windows"":true,""osname"":""Windows"",""osversion"":""10"",""a"":true}","9:15:50","0","1","Practice_1","74","f","0","1425","1536 x 864","1536 x 864","true","1","0","","","","",""
"null","<p style=""font-size: 80px;"">+ 10 points</p>","null","html-keyboard-response","8","85682","0.0-7.0-2.7","603ac173f583af711762bc55","8xzkfm","SNK","22","F","{""name"":""Chrome"",""chrome"":true,""version"":""105.0"",""blink"":true,""windows"":true,""osname"":""Windows"",""osversion"":""10"",""a"":true}","9:15:50","0","1","Practice_3","70","f","1","1499.5","1536 x 864","1536 x 864","true","1","10","","","","",""
"null","<p style=""font-size: 80px;"">+ 10 points</p>","null","html-keyboard-response","9","88589","0.0-7.0-2.8","603ac173f583af711762bc55","8xzkfm","SNK","22","F","{""name"":""Chrome"",""chrome"":true,""version"":""105.0"",""blink"":true,""windows"":true,""osname"":""Windows"",""osversion"":""10"",""a"":true}","9:15:50","0","1","Practice_1","70","f","1","881.2999999523163","1536 x 864","1536 x 864","true","1","10","","","","",""
"null","<p style=""font-size: 80px;"">+ 10 points</p>","null","html-keyboard-response","10","91870","0.0-7.0-2.9","603ac173f583af711762bc55","8xzkfm","SNK","22","F","{""name"":""Chrome"",""chrome"":true,""version"":""105.0"",""blink"":true,""windows"":true,""osname"":""Windows"",""osversion"":""10"",""a"":true}","9:15:50","0","1","Practice_2","74","j","1","1259.3999998569489","1536 x 864","1536 x 864","true","1","10","","","","",""
"null","<p style=""font-size: 80px;"">+ 10 points</p>","null","html-keyboard-response","11","95155","0.0-7.0-2.10","603ac173f583af711762bc55","8xzkfm","SNK","22","F","{""name"":""Chrome"",""chrome"":true,""version"":""105.0"",""blink"":true,""windows"":true,""osname"":""Windows"",""osversion"":""10"",""a"":true}","9:15:50","0","1","Practice_4","74","j","1","1258.4000000953674","1536 x 864","1536 x 864","true","1","10","","","","",""
"null","<p style=""font-size: 80px;"">+ 10 points</p>","null","html-keyboard-response","12","98109","0.0-7.0-2.11","603ac173f583af711762bc55","8xzkfm","SNK","22","F","{""name"":""Chrome"",""chrome"":true,""version"":""105.0"",""blink"":true,""windows"":true,""osname"":""Windows"",""osversion"":""10"",""a"":true}","9:15:50","0","1","Practice_2","74","j","1","929.4000000953674","1536 x 864","1536 x 864","true","1","10","","","","",""
"null","<p style=""font-size: 80px;"">+ 10 points</p>","null","html-keyboard-response","13","101173","0.0-7.0-2.12","603ac173f583af711762bc55","8xzkfm","SNK","22","F","{""name"":""Chrome"",""chrome"":true,""version"":""105.0"",""blink"":true,""windows"":true,""osname"":""Windows"",""osversion"":""10"",""a"":true}","9:15:50","0","1","Practice_4","74","j","1","1049.2999999523163","1536 x 864","1536 x 864","true","1","10","","","","",""
"null","<p style=""font-size: 80px;"">+ 10 points</p>","null","html-keyboard-response","14","104303","0.0-7.0-2.13","603ac173f583af711762bc55","8xzkfm","SNK","22","F","{""name"":""Chrome"",""chrome"":true,""version"":""105.0"",""blink"":true,""windows"":true,""osname"":""Windows"",""osversion"":""10"",""a"":true}","9:15:50","0","1","Practice_1","70","f","1","1111.9000000953674","1536 x 864","1536 x 864","true","1","10","","","","",""
"null","<p style=""font-size: 80px;"">+ 10 points</p>","null","html-keyboard-response","15","107069","0.0-7.0-2.14","603ac173f583af711762bc55","8xzkfm","SNK","22","F","{""name"":""Chrome"",""chrome"":true,""version"":""105.0"",""blink"":true,""windows"":true,""osname"":""Windows"",""osversion"":""10"",""a"":true}","9:15:50","0","1","Practice_2","74","j","1","746.5","1536 x 864","1536 x 864","true","1","10","","","","",""
"null","<p style=""font-size: 80px;"">+ 10 points</p>","null","html-keyboard-response","16","109963","0.0-7.0-2.15","603ac173f583af711762bc55","8xzkfm","SNK","22","F","{""name"":""Chrome"",""chrome"":true,""version"":""105.0"",""blink"":true,""windows"":true,""osname"":""Windows"",""osversion"":""10"",""a"":true}","9:15:50","0","1","Practice_3","70","f","1","878.5999999046326","1536 x 864","1536 x 864","true","1","10","","","","",""
"null","<p style=""font-size: 80px;"">+ 10 points</p>","null","html-keyboard-response","17","112602","0.0-7.0-2.16","603ac173f583af711762bc55","8xzkfm","SNK","22","F","{""name"":""Chrome"",""chrome"":true,""version"":""105.0"",""blink"":true,""windows"":true,""osname"":""Windows"",""osversion"":""10"",""a"":true}","9:15:50","0","1","Practice_4","74","j","1","623.8999998569489","1536 x 864","1536 x 864","true","1","10","","","","",""
"null","<p style=""font-size: 80px;"">+ 10 points</p>","null","html-keyboard-response","18","115609","0.0-7.0-2.17","603ac173f583af711762bc55","8xzkfm","SNK","22","F","{""name"":""Chrome"",""chrome"":true,""version"":""105.0"",""blink"":true,""windows"":true,""osname"":""Windows"",""osversion"":""10"",""a"":true}","9:15:50","0","1","Practice_3","70","f","1","977.6000001430511","1536 x 864","1536 x 864","true","1","10","","","","",""
"null","<p style=""font-size: 80px;"">+ 10 points</p>","null","html-keyboard-response","19","118642","0.0-7.0-2.18","603ac173f583af711762bc55","8xzkfm","SNK","22","F","{""name"":""Chrome"",""chrome"":true,""version"":""105.0"",""blink"":true,""windows"":true,""osname"":""Windows"",""osversion"":""10"",""a"":true}","9:15:50","0","1","Practice_3","70","f","1","1021","1536 x 864","1536 x 864","true","1","10","","","","",""
"null","<p style=""font-size: 80px;"">+ 10 points</p>","null","html-keyboard-response","20","121220","0.0-7.0-2.19","603ac173f583af711762bc55","8xzkfm","SNK","22","F","{""name"":""Chrome"",""chrome"":true,""version"":""105.0"",""blink"":true,""windows"":true,""osname"":""Windows"",""osversion"":""10"",""a"":true}","9:15:50","0","1","Practice_2","74","j","1","555.5","1536 x 864","1536 x 864","true","1","10","","","","",""
"null","<p style=""font-size: 80px;"">+ 0 points</p>","null","html-keyboard-response","21","124272","0.0-7.0-2.20","603ac173f583af711762bc55","8xzkfm","SNK","22","F","{""name"":""Chrome"",""chrome"":true,""version"":""105.0"",""blink"":true,""windows"":true,""osname"":""Windows"",""osversion"":""10"",""a"":true}","9:15:50","0","2","Practice_4","74","f","0","1038.0999999046326","1536 x 864","1536 x 864","true","1","0","","","","",""
"null","<p style=""font-size: 80px;"">+ 0 points</p>","null","html-keyboard-response","22","127749","0.0-7.0-2.21","603ac173f583af711762bc55","8xzkfm","SNK","22","F","{""name"":""Chrome"",""chrome"":true,""version"":""105.0"",""blink"":true,""windows"":true,""osname"":""Windows"",""osversion"":""10"",""a"":true}","9:15:50","0","2","Practice_1","70","j","0","1461.0999999046326","1536 x 864","1536 x 864","true","1","0","","","","",""
"null","<p style=""font-size: 80px;"">+ 0 points</p>","null","html-keyboard-response","23","130594","0.0-7.0-2.22","603ac173f583af711762bc55","8xzkfm","SNK","22","F","{""name"":""Chrome"",""chrome"":true,""version"":""105.0"",""blink"":true,""windows"":true,""osname"":""Windows"",""osversion"":""10"",""a"":true}","9:15:50","0","2","Practice_2","74","f","0","830.4000000953674","1536 x 864","1536 x 864","true","1","0","","","","",""
"null","<p style=""font-size: 80px;"">+ 10 points</p>","null","html-keyboard-response","24","133318","0.0-7.0-2.23","603ac173f583af711762bc55","8xzkfm","SNK","22","F","{""name"":""Chrome"",""chrome"":true,""version"":""105.0"",""blink"":true,""windows"":true,""osname"":""Windows"",""osversion"":""10"",""a"":true}","9:15:50","0","2","Practice_3","74","j","1","706.9000000953674","1536 x 864","1536 x 864","true","1","10","","","","",""
"null","<p style=""font-size: 80px;"">+ 10 points</p>","null","html-keyboard-response","25","136384","0.0-7.0-2.24","603ac173f583af711762bc55","8xzkfm","SNK","22","F","{""name"":""Chrome"",""chrome"":true,""version"":""105.0"",""blink"":true,""windows"":true,""osname"":""Windows"",""osversion"":""10"",""a"":true}","9:15:50","0","2","Practice_2","70","f","1","1035.5","1536 x 864","1536 x 864","true","1","10","","","","",""
"null","<p style=""font-size: 80px;"">+ 10 points</p>","null","html-keyboard-response","26","139057","0.0-7.0-2.25","603ac173f583af711762bc55","8xzkfm","SNK","22","F","{""name"":""Chrome"",""chrome"":true,""version"":""105.0"",""blink"":true,""windows"":true,""osname"":""Windows"",""osversion"":""10"",""a"":true}","9:15:50","0","2","Practice_4","70","f","1","656.7999999523163","1536 x 864","1536 x 864","true","1","10","","","","",""
"null","<p style=""font-size: 80px;"">+ 10 points</p>","null","html-keyboard-response","27","141831","0.0-7.0-2.26","603ac173f583af711762bc55","8xzkfm","SNK","22","F","{""name"":""Chrome"",""chrome"":true,""version"":""105.0"",""blink"":true,""windows"":true,""osname"":""Windows"",""osversion"":""10"",""a"":true}","9:15:50","0","2","Practice_1","74","j","1","753.4000000953674","1536 x 864","1536 x 864","true","1","10","","","","",""
"null","<p style=""font-size: 80px;"">+ 10 points</p>","null","html-keyboard-response","28","145799","0.0-7.0-2.27","603ac173f583af711762bc55","8xzkfm","SNK","22","F","{""name"":""Chrome"",""chrome"":true,""version"":""105.0"",""blink"":true,""windows"":true,""osname"":""Windows"",""osversion"":""10"",""a"":true}","9:15:50","0","2","Practice_1","74","j","1","1950.0999999046326","1536 x 864","1536 x 864","true","1","10","","","","",""
"null","<p style=""font-size: 80px;"">+ 0 points</p>","null","html-keyboard-response","29","148816","0.0-7.0-2.28","603ac173f583af711762bc55","8xzkfm","SNK","22","F","{""name"":""Chrome"",""chrome"":true,""version"":""105.0"",""blink"":true,""windows"":true,""osname"":""Windows"",""osversion"":""10"",""a"":true}","9:15:50","0","2","Practice_3","70","j","0","1002.6999998092651","1536 x 864","1536 x 864","true","1","0","","","","",""
"null","<p style=""font-size: 80px;"">+ 10 points</p>","null","html-keyboard-response","30","152606","0.0-7.0-2.29","603ac173f583af711762bc55","8xzkfm","SNK","22","F","{""name"":""Chrome"",""chrome"":true,""version"":""105.0"",""blink"":true,""windows"":true,""osname"":""Windows"",""osversion"":""10"",""a"":true}","9:15:50","0","2","Practice_1","74","j","1","1775.2999999523163","1536 x 864","1536 x 864","true","1","10","","","","",""
"null","<p style=""font-size: 80px;"">+ 10 points</p>","null","html-keyboard-response","31","155407","0.0-7.0-2.30","603ac173f583af711762bc55","8xzkfm","SNK","22","F","{""name"":""Chrome"",""chrome"":true,""version"":""105.0"",""blink"":true,""windows"":true,""osname"":""Windows"",""osversion"":""10"",""a"":true}","9:15:50","0","2","Practice_4","70","f","1","788.1000001430511","1536 x 864","1536 x 864","true","1","10","","","","",""
"null","<p style=""font-size: 80px;"">+ 10 points</p>","null","html-keyboard-response","32","158096","0.0-7.0-2.31","603ac173f583af711762bc55","8xzkfm","SNK","22","F","{""name"":""Chrome"",""chrome"":true,""version"":""105.0"",""blink"":true,""windows"":true,""osname"":""Windows"",""osversion"":""10"",""a"":true}","9:15:50","0","2","Practice_1","74","j","1","665.8999998569489","1536 x 864","1536 x 864","true","1","10","","","","",""
"null","<p style=""font-size: 80px;"">+ 0 points</p>","null","html-keyboard-response","33","161111","0.0-7.0-2.32","603ac173f583af711762bc55","8xzkfm","SNK","22","F","{""name"":""Chrome"",""chrome"":true,""version"":""105.0"",""blink"":true,""windows"":true,""osname"":""Windows"",""osversion"":""10"",""a"":true}","9:15:50","0","2","Practice_2","74","f","0","992","1536 x 864","1536 x 864","true","1","0","","","","",""
"null","<p style=""font-size: 80px;"">+ 10 points</p>","null","html-keyboard-response","34","164019","0.0-7.0-2.33","603ac173f583af711762bc55","8xzkfm","SNK","22","F","{""name"":""Chrome"",""chrome"":true,""version"":""105.0"",""blink"":true,""windows"":true,""osname"":""Windows"",""osversion"":""10"",""a"":true}","9:15:50","0","2","Practice_3","74","j","1","887.9000000953674","1536 x 864","1536 x 864","true","1","10","","","","",""
"null","<p style=""font-size: 80px;"">+ 10 points</p>","null","html-keyboard-response","35","166941","0.0-7.0-2.34","603ac173f583af711762bc55","8xzkfm","SNK","22","F","{""name"":""Chrome"",""chrome"":true,""version"":""105.0"",""blink"":true,""windows"":true,""osname"":""Windows"",""osversion"":""10"",""a"":true}","9:15:50","0","2","Practice_3","74","j","1","906.1999998092651","1536 x 864","1536 x 864","true","1","10","","","","",""
"null","<p style=""font-size: 80px;"">+ 10 points</p>","null","html-keyboard-response","36","169653","0.0-7.0-2.35","603ac173f583af711762bc55","8xzkfm","SNK","22","F","{""name"":""Chrome"",""chrome"":true,""version"":""105.0"",""blink"":true,""windows"":true,""osname"":""Windows"",""osversion"":""10"",""a"":true}","9:15:50","0","2","Practice_2","70","f","1","683.9000000953674","1536 x 864","1536 x 864","true","1","10","","","","",""
"null","<p style=""font-size: 80px;"">+ 10 points</p>","null","html-keyboard-response","37","173057","0.0-7.0-2.36","603ac173f583af711762bc55","8xzkfm","SNK","22","F","{""name"":""Chrome"",""chrome"":true,""version"":""105.0"",""blink"":true,""windows"":true,""osname"":""Windows"",""osversion"":""10"",""a"":true}","9:15:50","0","2","Practice_2","70","f","1","1376.1000001430511","1536 x 864","1536 x 864","true","1","10","","","","",""
"null","<p style=""font-size: 80px;"">+ 10 points</p>","null","html-keyboard-response","38","176882","0.0-7.0-2.37","603ac173f583af711762bc55","8xzkfm","SNK","22","F","{""name"":""Chrome"",""chrome"":true,""version"":""105.0"",""blink"":true,""windows"":true,""osname"":""Windows"",""osversion"":""10"",""a"":true}","9:15:50","0","2","Practice_4","70","f","1","1797.2999999523163","1536 x 864","1536 x 864","true","1","10","","","","",""
"null","<p style=""font-size: 80px;"">+ 10 points</p>","null","html-keyboard-response","39","180018","0.0-7.0-2.38","603ac173f583af711762bc55","8xzkfm","SNK","22","F","{""name"":""Chrome"",""chrome"":true,""version"":""105.0"",""blink"":true,""windows"":true,""osname"":""Windows"",""osversion"":""10"",""a"":true}","9:15:50","0","2","Practice_3","74","j","1","1113.2000000476837","1536 x 864","1536 x 864","true","1","10","","","","",""
"null","<p style=""font-size: 80px;"">+ 10 points</p>","null","html-keyboard-response","40","183284","0.0-7.0-2.39","603ac173f583af711762bc55","8xzkfm","SNK","22","F","{""name"":""Chrome"",""chrome"":true,""version"":""105.0"",""blink"":true,""windows"":true,""osname"":""Windows"",""osversion"":""10"",""a"":true}","9:15:50","0","2","Practice_4","70","f","1","1249.4000000953674","1536 x 864","1536 x 864","true","1","10","","","","",""
"9033","","","survey-multi-choice","127","192320","0.0-8.0","603ac173f583af711762bc55","8xzkfm","SNK","22","F","{""name"":""Chrome"",""chrome"":true,""version"":""105.0"",""blink"":true,""windows"":true,""osname"":""Windows"",""osversion"":""10"",""a"":true}","9:15:50","","","","","","","","","","","1","","{""Q0"":""The red one"",""Q1"":""1""}","[0,1]","1","The red one","2"
"null","<p style=""font-size: 80px;"">+ 10 points</p>","null","html-keyboard-response","1","204303","0.0-11.0-2.0","603ac173f583af711762bc55","8xzkfm","SNK","22","F","{""name"":""Chrome"",""chrome"":true,""version"":""105.0"",""blink"":true,""windows"":true,""osname"":""Windows"",""osversion"":""10"",""a"":true}","9:15:50","1","3","Test_3","70","f","1","1144.4000000953674","1536 x 864","1536 x 864","true","1","10","","","","",""
"null","<p style=""font-size: 80px;"">+ 10 points</p>","null","html-keyboard-response","2","207476","0.0-11.0-2.1","603ac173f583af711762bc55","8xzkfm","SNK","22","F","{""name"":""Chrome"",""chrome"":true,""version"":""105.0"",""blink"":true,""windows"":true,""osname"":""Windows"",""osversion"":""10"",""a"":true}","9:15:50","1","3","Test_4","74","j","1","1149","1536 x 864","1536 x 864","true","1","10","","","","",""
"null","<p style=""font-size: 80px;"">+ 10 points</p>","null","html-keyboard-response","3","210619","0.0-11.0-2.2","603ac173f583af711762bc55","8xzkfm","SNK","22","F","{""name"":""Chrome"",""chrome"":true,""version"":""105.0"",""blink"":true,""windows"":true,""osname"":""Windows"",""osversion"":""10"",""a"":true}","9:15:50","1","3","Test_1","70","f","1","1123","1536 x 864","1536 x 864","true","1","10","","","","",""
"null","<p style=""font-size: 80px;"">+ 10 points</p>","null","html-keyboard-response","4","213947","0.0-11.0-2.3","603ac173f583af711762bc55","8xzkfm","SNK","22","F","{""name"":""Chrome"",""chrome"":true,""version"":""105.0"",""blink"":true,""windows"":true,""osname"":""Windows"",""osversion"":""10"",""a"":true}","9:15:50","1","3","Test_4","74","j","1","1300.4000000953674","1536 x 864","1536 x 864","true","1","10","","","","",""
"null","<p style=""font-size: 80px;"">+ 10 points</p>","null","html-keyboard-response","5","216750","0.0-11.0-2.4","603ac173f583af711762bc55","8xzkfm","SNK","22","F","{""name"":""Chrome"",""chrome"":true,""version"":""105.0"",""blink"":true,""windows"":true,""osname"":""Windows"",""osversion"":""10"",""a"":true}","9:15:50","1","3","Test_4","74","j","1","775.1000001430511","1536 x 864","1536 x 864","true","1","10","","","","",""
"null","<p style=""font-size: 80px;"">+ 10 points</p>","null","html-keyboard-response","6","219641","0.0-11.0-2.5","603ac173f583af711762bc55","8xzkfm","SNK","22","F","{""name"":""Chrome"",""chrome"":true,""version"":""105.0"",""blink"":true,""windows"":true,""osname"":""Windows"",""osversion"":""10"",""a"":true}","9:15:50","1","3","Test_1","70","f","1","876.7000000476837","1536 x 864","1536 x 864","true","1","10","","","","",""
"null","<p style=""font-size: 80px;"">+ 10 points</p>","null","html-keyboard-response","7","222329","0.0-11.0-2.6","603ac173f583af711762bc55","8xzkfm","SNK","22","F","{""name"":""Chrome"",""chrome"":true,""version"":""105.0"",""blink"":true,""windows"":true,""osname"":""Windows"",""osversion"":""10"",""a"":true}","9:15:50","1","3","Test_1","70","f","1","664.2000000476837","1536 x 864","1536 x 864","true","1","10","","","","",""
"null","<p style=""font-size: 80px;"">+ 10 points</p>","null","html-keyboard-response","8","224965","0.0-11.0-2.7","603ac173f583af711762bc55","8xzkfm","SNK","22","F","{""name"":""Chrome"",""chrome"":true,""version"":""105.0"",""blink"":true,""windows"":true,""osname"":""Windows"",""osversion"":""10"",""a"":true}","9:15:50","1","3","Test_1","70","f","1","612.7000000476837","1536 x 864","1536 x 864","true","1","10","","","","",""
"null","<p style=""font-size: 80px;"">+ 10 points</p>","null","html-keyboard-response","9","227917","0.0-11.0-2.8","603ac173f583af711762bc55","8xzkfm","SNK","22","F","{""name"":""Chrome"",""chrome"":true,""version"":""105.0"",""blink"":true,""windows"":true,""osname"":""Windows"",""osversion"":""10"",""a"":true}","9:15:50","1","3","Test_3","70","f","1","944","1536 x 864","1536 x 864","true","1","10","","","","",""
"null","<p style=""font-size: 80px;"">+ 10 points</p>","null","html-keyboard-response","10","230724","0.0-11.0-2.9","603ac173f583af711762bc55","8xzkfm","SNK","22","F","{""name"":""Chrome"",""chrome"":true,""version"":""105.0"",""blink"":true,""windows"":true,""osname"":""Windows"",""osversion"":""10"",""a"":true}","9:15:50","1","3","Test_3","70","f","1","781.8000001907349","1536 x 864","1536 x 864","true","1","10","","","","",""
"null","<p style=""font-size: 80px;"">+ 10 points</p>","null","html-keyboard-response","11","234423","0.0-11.0-2.10","603ac173f583af711762bc55","8xzkfm","SNK","22","F","{""name"":""Chrome"",""chrome"":true,""version"":""105.0"",""blink"":true,""windows"":true,""osname"":""Windows"",""osversion"":""10"",""a"":true}","9:15:50","1","3","Test_2","74","j","1","1677.5999999046326","1536 x 864","1536 x 864","true","1","10","","","","",""
"null","<p style=""font-size: 80px;"">+ 10 points</p>","null","html-keyboard-response","12","237197","0.0-11.0-2.11","603ac173f583af711762bc55","8xzkfm","SNK","22","F","{""name"":""Chrome"",""chrome"":true,""version"":""105.0"",""blink"":true,""windows"":true,""osname"":""Windows"",""osversion"":""10"",""a"":true}","9:15:50","1","3","Test_2","74","j","1","760","1536 x 864","1536 x 864","true","1","10","","","","",""
"null","<p style=""font-size: 80px; line-height: 1.4em;"">Too late</br> Speed up!</p>","null","html-keyboard-response","13","244219","0.0-11.0-2.12","603ac173f583af711762bc55","8xzkfm","SNK","22","F","{""name"":""Chrome"",""chrome"":true,""version"":""105.0"",""blink"":true,""windows"":true,""osname"":""Windows"",""osversion"":""10"",""a"":true}","9:15:50","1","3","Test_2","null","j","0","null","1536 x 864","1536 x 864","true","1","0","","","","",""
"null","<p style=""font-size: 80px; line-height: 1.4em;"">Too late</br> Speed up!</p>","null","html-keyboard-response","14","251238","0.0-11.0-2.13","603ac173f583af711762bc55","8xzkfm","SNK","22","F","{""name"":""Chrome"",""chrome"":true,""version"":""105.0"",""blink"":true,""windows"":true,""osname"":""Windows"",""osversion"":""10"",""a"":true}","9:15:50","1","3","Test_2","null","j","0","null","1536 x 864","1536 x 864","true","1","0","","","","",""
"null","<p style=""font-size: 80px; line-height: 1.4em;"">Too late</br> Speed up!</p>","null","html-keyboard-response","15","258263","0.0-11.0-2.14","603ac173f583af711762bc55","8xzkfm","SNK","22","F","{""name"":""Chrome"",""chrome"":true,""version"":""105.0"",""blink"":true,""windows"":true,""osname"":""Windows"",""osversion"":""10"",""a"":true}","9:15:50","1","3","Test_4","null","j","0","null","1536 x 864","1536 x 864","true","1","0","","","","",""
"null","<p style=""font-size: 80px; line-height: 1.4em;"">Too late</br> Speed up!</p>","null","html-keyboard-response","16","265295","0.0-11.0-2.15","603ac173f583af711762bc55","8xzkfm","SNK","22","F","{""name"":""Chrome"",""chrome"":true,""version"":""105.0"",""blink"":true,""windows"":true,""osname"":""Windows"",""osversion"":""10"",""a"":true}","9:15:50","1","3","Test_3","null","f","0","null","1536 x 864","1536 x 864","true","1","0","","","","",""
"null","<p style=""font-size: 80px;"">+ 0 points</p>","null","html-keyboard-response","17","270051","0.0-11.0-2.16","603ac173f583af711762bc55","8xzkfm","SNK","22","F","{""name"":""Chrome"",""chrome"":true,""version"":""105.0"",""blink"":true,""windows"":true,""osname"":""Windows"",""osversion"":""10"",""a"":true}","9:15:50","1","4","Test_3","70","j","0","2731.0999999046326","1536 x 864","1536 x 864","true","1","0","","","","",""
"null","<p style=""font-size: 80px;"">+ 10 points</p>","null","html-keyboard-response","18","272609","0.0-11.0-2.17","603ac173f583af711762bc55","8xzkfm","SNK","22","F","{""name"":""Chrome"",""chrome"":true,""version"":""105.0"",""blink"":true,""windows"":true,""osname"":""Windows"",""osversion"":""10"",""a"":true}","9:15:50","1","4","Test_3","74","j","1","535.0999999046326","1536 x 864","1536 x 864","true","1","10","","","","",""
"null","<p style=""font-size: 80px;"">+ 10 points</p>","null","html-keyboard-response","19","275351","0.0-11.0-2.18","603ac173f583af711762bc55","8xzkfm","SNK","22","F","{""name"":""Chrome"",""chrome"":true,""version"":""105.0"",""blink"":true,""windows"":true,""osname"":""Windows"",""osversion"":""10"",""a"":true}","9:15:50","1","4","Test_3","74","j","1","717.5","1536 x 864","1536 x 864","true","1","10","","","","",""
"null","<p style=""font-size: 80px;"">+ 10 points</p>","null","html-keyboard-response","20","278246","0.0-11.0-2.19","603ac173f583af711762bc55","8xzkfm","SNK","22","F","{""name"":""Chrome"",""chrome"":true,""version"":""105.0"",""blink"":true,""windows"":true,""osname"":""Windows"",""osversion"":""10"",""a"":true}","9:15:50","1","4","Test_2","70","f","1","869.8999998569489","1536 x 864","1536 x 864","true","1","10","","","","",""
"null","<p style=""font-size: 80px;"">+ 10 points</p>","null","html-keyboard-response","21","281545","0.0-11.0-2.20","603ac173f583af711762bc55","8xzkfm","SNK","22","F","{""name"":""Chrome"",""chrome"":true,""version"":""105.0"",""blink"":true,""windows"":true,""osname"":""Windows"",""osversion"":""10"",""a"":true}","9:15:50","1","4","Test_4","70","f","1","1276.2999999523163","1536 x 864","1536 x 864","true","1","10","","","","",""
"null","<p style=""font-size: 80px;"">+ 10 points</p>","null","html-keyboard-response","22","284301","0.0-11.0-2.21","603ac173f583af711762bc55","8xzkfm","SNK","22","F","{""name"":""Chrome"",""chrome"":true,""version"":""105.0"",""blink"":true,""windows"":true,""osname"":""Windows"",""osversion"":""10"",""a"":true}","9:15:50","1","4","Test_4","70","f","1","734","1536 x 864","1536 x 864","true","1","10","","","","",""
"null","<p style=""font-size: 80px;"">+ 0 points</p>","null","html-keyboard-response","23","287226","0.0-11.0-2.22","603ac173f583af711762bc55","8xzkfm","SNK","22","F","{""name"":""Chrome"",""chrome"":true,""version"":""105.0"",""blink"":true,""windows"":true,""osname"":""Windows"",""osversion"":""10"",""a"":true}","9:15:50","1","4","Test_1","70","j","0","900.3999998569489","1536 x 864","1536 x 864","true","1","0","","","","",""
"null","<p style=""font-size: 80px;"">+ 0 points</p>","null","html-keyboard-response","24","289756","0.0-11.0-2.23","603ac173f583af711762bc55","8xzkfm","SNK","22","F","{""name"":""Chrome"",""chrome"":true,""version"":""105.0"",""blink"":true,""windows"":true,""osname"":""Windows"",""osversion"":""10"",""a"":true}","9:15:50","1","4","Test_4","74","f","0","506.7000000476837","1536 x 864","1536 x 864","true","1","0","","","","",""
"null","<p style=""font-size: 80px;"">+ 10 points</p>","null","html-keyboard-response","25","292722","0.0-11.0-2.24","603ac173f583af711762bc55","8xzkfm","SNK","22","F","{""name"":""Chrome"",""chrome"":true,""version"":""105.0"",""blink"":true,""windows"":true,""osname"":""Windows"",""osversion"":""10"",""a"":true}","9:15:50","1","4","Test_3","74","j","1","948.2999999523163","1536 x 864","1536 x 864","true","1","10","","","","",""
"null","<p style=""font-size: 80px;"">+ 10 points</p>","null","html-keyboard-response","26","295353","0.0-11.0-2.25","603ac173f583af711762bc55","8xzkfm","SNK","22","F","{""name"":""Chrome"",""chrome"":true,""version"":""105.0"",""blink"":true,""windows"":true,""osname"":""Windows"",""osversion"":""10"",""a"":true}","9:15:50","1","4","Test_2","70","f","1","598.2000000476837","1536 x 864","1536 x 864","true","1","10","","","","",""
"null","<p style=""font-size: 80px;"">+ 10 points</p>","null","html-keyboard-response","27","298038","0.0-11.0-2.26","603ac173f583af711762bc55","8xzkfm","SNK","22","F","{""name"":""Chrome"",""chrome"":true,""version"":""105.0"",""blink"":true,""windows"":true,""osname"":""Windows"",""osversion"":""10"",""a"":true}","9:15:50","1","4","Test_2","70","f","1","668.5999999046326","1536 x 864","1536 x 864","true","1","10","","","","",""
"null","<p style=""font-size: 80px;"">+ 0 points</p>","null","html-keyboard-response","28","300948","0.0-11.0-2.27","603ac173f583af711762bc55","8xzkfm","SNK","22","F","{""name"":""Chrome"",""chrome"":true,""version"":""105.0"",""blink"":true,""windows"":true,""osname"":""Windows"",""osversion"":""10"",""a"":true}","9:15:50","1","4","Test_1","70","j","0","893.5999999046326","1536 x 864","1536 x 864","true","1","0","","","","",""
"null","<p style=""font-size: 80px;"">+ 10 points</p>","null","html-keyboard-response","29","303468","0.0-11.0-2.28","603ac173f583af711762bc55","8xzkfm","SNK","22","F","{""name"":""Chrome"",""chrome"":true,""version"":""105.0"",""blink"":true,""windows"":true,""osname"":""Windows"",""osversion"":""10"",""a"":true}","9:15:50","1","4","Test_1","74","j","1","498.60000014305115","1536 x 864","1536 x 864","true","1","10","","","","",""
"null","<p style=""font-size: 80px;"">+ 0 points</p>","null","html-keyboard-response","30","306184","0.0-11.0-2.29","603ac173f583af711762bc55","8xzkfm","SNK","22","F","{""name"":""Chrome"",""chrome"":true,""version"":""105.0"",""blink"":true,""windows"":true,""osname"":""Windows"",""osversion"":""10"",""a"":true}","9:15:50","1","4","Test_3","70","j","0","699.4000000953674","1536 x 864","1536 x 864","true","1","0","","","","",""
"null","<p style=""font-size: 80px;"">+ 0 points</p>","null","html-keyboard-response","31","308702","0.0-11.0-2.30","603ac173f583af711762bc55","8xzkfm","SNK","22","F","{""name"":""Chrome"",""chrome"":true,""version"":""105.0"",""blink"":true,""windows"":true,""osname"":""Windows"",""osversion"":""10"",""a"":true}","9:15:50","1","4","Test_4","74","f","0","498.60000014305115","1536 x 864","1536 x 864","true","1","0","","","","",""
"null","<p style=""font-size: 80px;"">+ 10 points</p>","null","html-keyboard-response","32","311249","0.0-11.0-2.31","603ac173f583af711762bc55","8xzkfm","SNK","22","F","{""name"":""Chrome"",""chrome"":true,""version"":""105.0"",""blink"":true,""windows"":true,""osname"":""Windows"",""osversion"":""10"",""a"":true}","9:15:50","1","4","Test_1","74","j","1","534","1536 x 864","1536 x 864","true","1","10","","","","",""
"null","<p style=""font-size: 80px;"">+ 10 points</p>","null","html-keyboard-response","33","314158","0.0-11.0-2.32","603ac173f583af711762bc55","8xzkfm","SNK","22","F","{""name"":""Chrome"",""chrome"":true,""version"":""105.0"",""blink"":true,""windows"":true,""osname"":""Windows"",""osversion"":""10"",""a"":true}","9:15:50","1","4","Test_2","70","f","1","890.3000001907349","1536 x 864","1536 x 864","true","1","10","","","","",""
"null","<p style=""font-size: 80px;"">+ 10 points</p>","null","html-keyboard-response","34","316876","0.0-11.0-2.33","603ac173f583af711762bc55","8xzkfm","SNK","22","F","{""name"":""Chrome"",""chrome"":true,""version"":""105.0"",""blink"":true,""windows"":true,""osname"":""Windows"",""osversion"":""10"",""a"":true}","9:15:50","1","4","Test_4","70","f","1","697","1536 x 864","1536 x 864","true","1","10","","","","",""
"null","<p style=""font-size: 80px;"">+ 10 points</p>","null","html-keyboard-response","35","319722","0.0-11.0-2.34","603ac173f583af711762bc55","8xzkfm","SNK","22","F","{""name"":""Chrome"",""chrome"":true,""version"":""105.0"",""blink"":true,""windows"":true,""osname"":""Windows"",""osversion"":""10"",""a"":true}","9:15:50","1","4","Test_1","74","j","1","828.8000001907349","1536 x 864","1536 x 864","true","1","10","","","","",""
"null","<p style=""font-size: 80px;"">+ 0 points</p>","null","html-keyboard-response","36","322459","0.0-11.0-2.35","603ac173f583af711762bc55","8xzkfm","SNK","22","F","{""name"":""Chrome"",""chrome"":true,""version"":""105.0"",""blink"":true,""windows"":true,""osname"":""Windows"",""osversion"":""10"",""a"":true}","9:15:50","1","4","Test_3","70","j","0","722.4000000953674","1536 x 864","1536 x 864","true","1","0","","","","",""
"null","<p style=""font-size: 80px;"">+ 10 points</p>","null","html-keyboard-response","37","325101","0.0-11.0-2.36","603ac173f583af711762bc55","8xzkfm","SNK","22","F","{""name"":""Chrome"",""chrome"":true,""version"":""105.0"",""blink"":true,""windows"":true,""osname"":""Windows"",""osversion"":""10"",""a"":true}","9:15:50","1","4","Test_4","70","f","1","616.0999999046326","1536 x 864","1536 x 864","true","1","10","","","","",""
"null","<p style=""font-size: 80px;"">+ 10 points</p>","null","html-keyboard-response","38","327781","0.0-11.0-2.37","603ac173f583af711762bc55","8xzkfm","SNK","22","F","{""name"":""Chrome"",""chrome"":true,""version"":""105.0"",""blink"":true,""windows"":true,""osname"":""Windows"",""osversion"":""10"",""a"":true}","9:15:50","1","4","Test_2","70","f","1","663.7999999523163","1536 x 864","1536 x 864","true","1","10","","","","",""
"null","<p style=""font-size: 80px;"">+ 10 points</p>","null","html-keyboard-response","39","330798","0.0-11.0-2.38","603ac173f583af711762bc55","8xzkfm","SNK","22","F","{""name"":""Chrome"",""chrome"":true,""version"":""105.0"",""blink"":true,""windows"":true,""osname"":""Windows"",""osversion"":""10"",""a"":true}","9:15:50","1","4","Test_2","70","f","1","991.9000000953674","1536 x 864","1536 x 864","true","1","10","","","","",""
"null","<p style=""font-size: 80px;"">+ 10 points</p>","null","html-keyboard-response","40","333598","0.0-11.0-2.39","603ac173f583af711762bc55","8xzkfm","SNK","22","F","{""name"":""Chrome"",""chrome"":true,""version"":""105.0"",""blink"":true,""windows"":true,""osname"":""Windows"",""osversion"":""10"",""a"":true}","9:15:50","1","4","Test_1","74","j","1","774","1536 x 864","1536 x 864","true","1","10","","","","",""
"null","<p style=""font-size: 80px;"">+ 0 points</p>","null","html-keyboard-response","41","336603","0.0-11.0-2.40","603ac173f583af711762bc55","8xzkfm","SNK","22","F","{""name"":""Chrome"",""chrome"":true,""version"":""105.0"",""blink"":true,""windows"":true,""osname"":""Windows"",""osversion"":""10"",""a"":true}","9:15:50","1","3","Test_4","70","j","0","999.4000000953674","1536 x 864","1536 x 864","true","1","0","","","","",""
"null","<p style=""font-size: 80px;"">+ 10 points</p>","null","html-keyboard-response","42","339337","0.0-11.0-2.41","603ac173f583af711762bc55","8xzkfm","SNK","22","F","{""name"":""Chrome"",""chrome"":true,""version"":""105.0"",""blink"":true,""windows"":true,""osname"":""Windows"",""osversion"":""10"",""a"":true}","9:15:50","1","3","Test_4","74","j","1","709.2000000476837","1536 x 864","1536 x 864","true","1","10","","","","",""
"null","<p style=""font-size: 80px;"">+ 10 points</p>","null","html-keyboard-response","43","342293","0.0-11.0-2.42","603ac173f583af711762bc55","8xzkfm","SNK","22","F","{""name"":""Chrome"",""chrome"":true,""version"":""105.0"",""blink"":true,""windows"":true,""osname"":""Windows"",""osversion"":""10"",""a"":true}","9:15:50","1","3","Test_4","74","j","1","927.7000000476837","1536 x 864","1536 x 864","true","1","10","","","","",""
"null","<p style=""font-size: 80px;"">+ 0 points</p>","null","html-keyboard-response","44","345262","0.0-11.0-2.43","603ac173f583af711762bc55","8xzkfm","SNK","22","F","{""name"":""Chrome"",""chrome"":true,""version"":""105.0"",""blink"":true,""windows"":true,""osname"":""Windows"",""osversion"":""10"",""a"":true}","9:15:50","1","3","Test_2","70","j","0","948.7999999523163","1536 x 864","1536 x 864","true","1","0","","","","",""
"null","<p style=""font-size: 80px;"">+ 10 points</p>","null","html-keyboard-response","45","347767","0.0-11.0-2.44","603ac173f583af711762bc55","8xzkfm","SNK","22","F","{""name"":""Chrome"",""chrome"":true,""version"":""105.0"",""blink"":true,""windows"":true,""osname"":""Windows"",""osversion"":""10"",""a"":true}","9:15:50","1","3","Test_3","70","f","1","478.40000009536743","1536 x 864","1536 x 864","true","1","10","","","","",""
"null","<p style=""font-size: 80px;"">+ 10 points</p>","null","html-keyboard-response","46","350893","0.0-11.0-2.45","603ac173f583af711762bc55","8xzkfm","SNK","22","F","{""name"":""Chrome"",""chrome"":true,""version"":""105.0"",""blink"":true,""windows"":true,""osname"":""Windows"",""osversion"":""10"",""a"":true}","9:15:50","1","3","Test_1","70","f","1","1111.1999998092651","1536 x 864","1536 x 864","true","1","10","","","","",""
"null","<p style=""font-size: 80px;"">+ 10 points</p>","null","html-keyboard-response","47","354943","0.0-11.0-2.46","603ac173f583af711762bc55","8xzkfm","SNK","22","F","{""name"":""Chrome"",""chrome"":true,""version"":""105.0"",""blink"":true,""windows"":true,""osname"":""Windows"",""osversion"":""10"",""a"":true}","9:15:50","1","3","Test_1","70","f","1","2031.1000001430511","1536 x 864","1536 x 864","true","1","10","","","","",""
"null","<p style=""font-size: 80px;"">+ 10 points</p>","null","html-keyboard-response","48","357926","0.0-11.0-2.47","603ac173f583af711762bc55","8xzkfm","SNK","22","F","{""name"":""Chrome"",""chrome"":true,""version"":""105.0"",""blink"":true,""windows"":true,""osname"":""Windows"",""osversion"":""10"",""a"":true}","9:15:50","1","3","Test_3","70","f","1","955","1536 x 864","1536 x 864","true","1","10","","","","",""
"null","<p style=""font-size: 80px;"">+ 10 points</p>","null","html-keyboard-response","49","361332","0.0-11.0-2.48","603ac173f583af711762bc55","8xzkfm","SNK","22","F","{""name"":""Chrome"",""chrome"":true,""version"":""105.0"",""blink"":true,""windows"":true,""osname"":""Windows"",""osversion"":""10"",""a"":true}","9:15:50","1","3","Test_3","70","f","1","1386.2999999523163","1536 x 864","1536 x 864","true","1","10","","","","",""
"null","<p style=""font-size: 80px;"">+ 10 points</p>","null","html-keyboard-response","50","364600","0.0-11.0-2.49","603ac173f583af711762bc55","8xzkfm","SNK","22","F","{""name"":""Chrome"",""chrome"":true,""version"":""105.0"",""blink"":true,""windows"":true,""osname"":""Windows"",""osversion"":""10"",""a"":true}","9:15:50","1","3","Test_2","74","j","1","1240.7999999523163","1536 x 864","1536 x 864","true","1","10","","","","",""
"null","<p style=""font-size: 80px;"">+ 10 points</p>","null","html-keyboard-response","51","367355","0.0-11.0-2.50","603ac173f583af711762bc55","8xzkfm","SNK","22","F","{""name"":""Chrome"",""chrome"":true,""version"":""105.0"",""blink"":true,""windows"":true,""osname"":""Windows"",""osversion"":""10"",""a"":true}","9:15:50","1","3","Test_2","74","j","1","733.7999999523163","1536 x 864","1536 x 864","true","1","10","","","","",""
"null","<p style=""font-size: 80px;"">+ 10 points</p>","null","html-keyboard-response","52","370485","0.0-11.0-2.51","603ac173f583af711762bc55","8xzkfm","SNK","22","F","{""name"":""Chrome"",""chrome"":true,""version"":""105.0"",""blink"":true,""windows"":true,""osname"":""Windows"",""osversion"":""10"",""a"":true}","9:15:50","1","3","Test_1","70","f","1","1106.6000001430511","1536 x 864","1536 x 864","true","1","10","","","","",""
"null","<p style=""font-size: 80px;"">+ 10 points</p>","null","html-keyboard-response","53","374290","0.0-11.0-2.52","603ac173f583af711762bc55","8xzkfm","SNK","22","F","{""name"":""Chrome"",""chrome"":true,""version"":""105.0"",""blink"":true,""windows"":true,""osname"":""Windows"",""osversion"":""10"",""a"":true}","9:15:50","1","3","Test_4","74","j","1","1789.2999999523163","1536 x 864","1536 x 864","true","1","10","","","","",""
"null","<p style=""font-size: 80px;"">+ 10 points</p>","null","html-keyboard-response","54","377703","0.0-11.0-2.53","603ac173f583af711762bc55","8xzkfm","SNK","22","F","{""name"":""Chrome"",""chrome"":true,""version"":""105.0"",""blink"":true,""windows"":true,""osname"":""Windows"",""osversion"":""10"",""a"":true}","9:15:50","1","3","Test_3","70","f","1","1400.1000001430511","1536 x 864","1536 x 864","true","1","10","","","","",""
"null","<p style=""font-size: 80px;"">+ 0 points</p>","null","html-keyboard-response","55","380550","0.0-11.0-2.54","603ac173f583af711762bc55","8xzkfm","SNK","22","F","{""name"":""Chrome"",""chrome"":true,""version"":""105.0"",""blink"":true,""windows"":true,""osname"":""Windows"",""osversion"":""10"",""a"":true}","9:15:50","1","3","Test_1","74","f","0","821.7000000476837","1536 x 864","1536 x 864","true","1","0","","","","",""
"null","<p style=""font-size: 80px;"">+ 0 points</p>","null","html-keyboard-response","56","383100","0.0-11.0-2.55","603ac173f583af711762bc55","8xzkfm","SNK","22","F","{""name"":""Chrome"",""chrome"":true,""version"":""105.0"",""blink"":true,""windows"":true,""osname"":""Windows"",""osversion"":""10"",""a"":true}","9:15:50","1","3","Test_2","70","j","0","525.6000001430511","1536 x 864","1536 x 864","true","1","0","","","","",""
"null","<p style=""font-size: 80px;"">+ 0 points</p>","null","html-keyboard-response","57","385888","0.0-11.0-2.56","603ac173f583af711762bc55","8xzkfm","SNK","22","F","{""name"":""Chrome"",""chrome"":true,""version"":""105.0"",""blink"":true,""windows"":true,""osname"":""Windows"",""osversion"":""10"",""a"":true}","9:15:50","1","4","Test_2","74","f","0","765.2999999523163","1536 x 864","1536 x 864","true","1","0","","","","",""
"null","<p style=""font-size: 80px;"">+ 10 points</p>","null","html-keyboard-response","58","388550","0.0-11.0-2.57","603ac173f583af711762bc55","8xzkfm","SNK","22","F","{""name"":""Chrome"",""chrome"":true,""version"":""105.0"",""blink"":true,""windows"":true,""osname"":""Windows"",""osversion"":""10"",""a"":true}","9:15:50","1","4","Test_3","74","j","1","634","1536 x 864","1536 x 864","true","1","10","","","","",""
"null","<p style=""font-size: 80px;"">+ 0 points</p>","null","html-keyboard-response","59","391617","0.0-11.0-2.58","603ac173f583af711762bc55","8xzkfm","SNK","22","F","{""name"":""Chrome"",""chrome"":true,""version"":""105.0"",""blink"":true,""windows"":true,""osname"":""Windows"",""osversion"":""10"",""a"":true}","9:15:50","1","4","Test_1","70","j","0","1041.2000000476837","1536 x 864","1536 x 864","true","1","0","","","","",""
"null","<p style=""font-size: 80px;"">+ 10 points</p>","null","html-keyboard-response","60","394073","0.0-11.0-2.59","603ac173f583af711762bc55","8xzkfm","SNK","22","F","{""name"":""Chrome"",""chrome"":true,""version"":""105.0"",""blink"":true,""windows"":true,""osname"":""Windows"",""osversion"":""10"",""a"":true}","9:15:50","1","4","Test_4","70","f","1","445.2999999523163","1536 x 864","1536 x 864","true","1","10","","","","",""
"null","<p style=""font-size: 80px;"">+ 0 points</p>","null","html-keyboard-response","61","397417","0.0-11.0-2.60","603ac173f583af711762bc55","8xzkfm","SNK","22","F","{""name"":""Chrome"",""chrome"":true,""version"":""105.0"",""blink"":true,""windows"":true,""osname"":""Windows"",""osversion"":""10"",""a"":true}","9:15:50","1","4","Test_2","74","f","0","1323.8000001907349","1536 x 864","1536 x 864","true","1","0","","","","",""
"null","<p style=""font-size: 80px;"">+ 10 points</p>","null","html-keyboard-response","62","400146","0.0-11.0-2.61","603ac173f583af711762bc55","8xzkfm","SNK","22","F","{""name"":""Chrome"",""chrome"":true,""version"":""105.0"",""blink"":true,""windows"":true,""osname"":""Windows"",""osversion"":""10"",""a"":true}","9:15:50","1","4","Test_3","74","j","1","701.9000000953674","1536 x 864","1536 x 864","true","1","10","","","","",""
"null","<p style=""font-size: 80px;"">+ 10 points</p>","null","html-keyboard-response","63","404470","0.0-11.0-2.62","603ac173f583af711762bc55","8xzkfm","SNK","22","F","{""name"":""Chrome"",""chrome"":true,""version"":""105.0"",""blink"":true,""windows"":true,""osname"":""Windows"",""osversion"":""10"",""a"":true}","9:15:50","1","4","Test_4","70","f","1","2307","1536 x 864","1536 x 864","true","1","10","","","","",""
"null","<p style=""font-size: 80px;"">+ 10 points</p>","null","html-keyboard-response","64","407464","0.0-11.0-2.63","603ac173f583af711762bc55","8xzkfm","SNK","22","F","{""name"":""Chrome"",""chrome"":true,""version"":""105.0"",""blink"":true,""windows"":true,""osname"":""Windows"",""osversion"":""10"",""a"":true}","9:15:50","1","4","Test_3","74","j","1","972.2999999523163","1536 x 864","1536 x 864","true","1","10","","","","",""
"null","<p style=""font-size: 80px;"">+ 10 points</p>","null","html-keyboard-response","65","410636","0.0-11.0-2.64","603ac173f583af711762bc55","8xzkfm","SNK","22","F","{""name"":""Chrome"",""chrome"":true,""version"":""105.0"",""blink"":true,""windows"":true,""osname"":""Windows"",""osversion"":""10"",""a"":true}","9:15:50","1","4","Test_2","70","f","1","1148.7000000476837","1536 x 864","1536 x 864","true","1","10","","","","",""
"null","<p style=""font-size: 80px;"">+ 10 points</p>","null","html-keyboard-response","66","413288","0.0-11.0-2.65","603ac173f583af711762bc55","8xzkfm","SNK","22","F","{""name"":""Chrome"",""chrome"":true,""version"":""105.0"",""blink"":true,""windows"":true,""osname"":""Windows"",""osversion"":""10"",""a"":true}","9:15:50","1","4","Test_3","74","j","1","628.4000000953674","1536 x 864","1536 x 864","true","1","10","","","","",""
"null","<p style=""font-size: 80px;"">+ 10 points</p>","null","html-keyboard-response","67","416556","0.0-11.0-2.66","603ac173f583af711762bc55","8xzkfm","SNK","22","F","{""name"":""Chrome"",""chrome"":true,""version"":""105.0"",""blink"":true,""windows"":true,""osname"":""Windows"",""osversion"":""10"",""a"":true}","9:15:50","1","4","Test_1","74","j","1","1251.3000001907349","1536 x 864","1536 x 864","true","1","10","","","","",""
"null","<p style=""font-size: 80px;"">+ 0 points</p>","null","html-keyboard-response","68","419337","0.0-11.0-2.67","603ac173f583af711762bc55","8xzkfm","SNK","22","F","{""name"":""Chrome"",""chrome"":true,""version"":""105.0"",""blink"":true,""windows"":true,""osname"":""Windows"",""osversion"":""10"",""a"":true}","9:15:50","1","4","Test_2","74","f","0","761.2000000476837","1536 x 864","1536 x 864","true","1","0","","","","",""
"null","<p style=""font-size: 80px;"">+ 10 points</p>","null","html-keyboard-response","69","422799","0.0-11.0-2.68","603ac173f583af711762bc55","8xzkfm","SNK","22","F","{""name"":""Chrome"",""chrome"":true,""version"":""105.0"",""blink"":true,""windows"":true,""osname"":""Windows"",""osversion"":""10"",""a"":true}","9:15:50","1","4","Test_4","70","f","1","1446.3999998569489","1536 x 864","1536 x 864","true","1","10","","","","",""
"null","<p style=""font-size: 80px;"">+ 0 points</p>","null","html-keyboard-response","70","425843","0.0-11.0-2.69","603ac173f583af711762bc55","8xzkfm","SNK","22","F","{""name"":""Chrome"",""chrome"":true,""version"":""105.0"",""blink"":true,""windows"":true,""osname"":""Windows"",""osversion"":""10"",""a"":true}","9:15:50","1","4","Test_2","74","f","0","1018.5","1536 x 864","1536 x 864","true","1","0","","","","",""
"null","<p style=""font-size: 80px;"">+ 10 points</p>","null","html-keyboard-response","71","428682","0.0-11.0-2.70","603ac173f583af711762bc55","8xzkfm","SNK","22","F","{""name"":""Chrome"",""chrome"":true,""version"":""105.0"",""blink"":true,""windows"":true,""osname"":""Windows"",""osversion"":""10"",""a"":true}","9:15:50","1","4","Test_1","74","j","1","827.2999999523163","1536 x 864","1536 x 864","true","1","10","","","","",""
"null","<p style=""font-size: 80px;"">+ 10 points</p>","null","html-keyboard-response","72","431283","0.0-11.0-2.71","603ac173f583af711762bc55","8xzkfm","SNK","22","F","{""name"":""Chrome"",""chrome"":true,""version"":""105.0"",""blink"":true,""windows"":true,""osname"":""Windows"",""osversion"":""10"",""a"":true}","9:15:50","1","4","Test_2","70","f","1","580.2999999523163","1536 x 864","1536 x 864","true","1","10","","","","",""
"null","<p style=""font-size: 80px;"">+ 0 points</p>","null","html-keyboard-response","73","434643","0.0-11.0-2.72","603ac173f583af711762bc55","8xzkfm","SNK","22","F","{""name"":""Chrome"",""chrome"":true,""version"":""105.0"",""blink"":true,""windows"":true,""osname"":""Windows"",""osversion"":""10"",""a"":true}","9:15:50","1","4","Test_3","70","j","0","1343.1999998092651","1536 x 864","1536 x 864","true","1","0","","","","",""
"null","<p style=""font-size: 80px;"">+ 10 points</p>","null","html-keyboard-response","74","437459","0.0-11.0-2.73","603ac173f583af711762bc55","8xzkfm","SNK","22","F","{""name"":""Chrome"",""chrome"":true,""version"":""105.0"",""blink"":true,""windows"":true,""osname"":""Windows"",""osversion"":""10"",""a"":true}","9:15:50","1","4","Test_4","70","f","1","795.5","1536 x 864","1536 x 864","true","1","10","","","","",""
"null","<p style=""font-size: 80px;"">+ 10 points</p>","null","html-keyboard-response","75","440250","0.0-11.0-2.74","603ac173f583af711762bc55","8xzkfm","SNK","22","F","{""name"":""Chrome"",""chrome"":true,""version"":""105.0"",""blink"":true,""windows"":true,""osname"":""Windows"",""osversion"":""10"",""a"":true}","9:15:50","1","4","Test_1","74","j","1","766.3999998569489","1536 x 864","1536 x 864","true","1","10","","","","",""
"null","<p style=""font-size: 80px;"">+ 0 points</p>","null","html-keyboard-response","76","443105","0.0-11.0-2.75","603ac173f583af711762bc55","8xzkfm","SNK","22","F","{""name"":""Chrome"",""chrome"":true,""version"":""105.0"",""blink"":true,""windows"":true,""osname"":""Windows"",""osversion"":""10"",""a"":true}","9:15:50","1","4","Test_3","70","j","0","835.2000000476837","1536 x 864","1536 x 864","true","1","0","","","","",""
"null","<p style=""font-size: 80px;"">+ 0 points</p>","null","html-keyboard-response","77","446035","0.0-11.0-2.76","603ac173f583af711762bc55","8xzkfm","SNK","22","F","{""name"":""Chrome"",""chrome"":true,""version"":""105.0"",""blink"":true,""windows"":true,""osname"":""Windows"",""osversion"":""10"",""a"":true}","9:15:50","1","4","Test_1","70","j","0","908.6000001430511","1536 x 864","1536 x 864","true","1","0","","","","",""
"null","<p style=""font-size: 80px;"">+ 0 points</p>","null","html-keyboard-response","78","448569","0.0-11.0-2.77","603ac173f583af711762bc55","8xzkfm","SNK","22","F","{""name"":""Chrome"",""chrome"":true,""version"":""105.0"",""blink"":true,""windows"":true,""osname"":""Windows"",""osversion"":""10"",""a"":true}","9:15:50","1","3","Test_1","74","f","0","509.2000000476837","1536 x 864","1536 x 864","true","1","0","","","","",""
"null","<p style=""font-size: 80px;"">+ 10 points</p>","null","html-keyboard-response","79","451078","0.0-11.0-2.78","603ac173f583af711762bc55","8xzkfm","SNK","22","F","{""name"":""Chrome"",""chrome"":true,""version"":""105.0"",""blink"":true,""windows"":true,""osname"":""Windows"",""osversion"":""10"",""a"":true}","9:15:50","1","3","Test_4","74","j","1","486.7999999523163","1536 x 864","1536 x 864","true","1","10","","","","",""
"null","<p style=""font-size: 80px;"">+ 10 points</p>","null","html-keyboard-response","80","454027","0.0-11.0-2.79","603ac173f583af711762bc55","8xzkfm","SNK","22","F","{""name"":""Chrome"",""chrome"":true,""version"":""105.0"",""blink"":true,""windows"":true,""osname"":""Windows"",""osversion"":""10"",""a"":true}","9:15:50","1","3","Test_2","74","j","1","929.5999999046326","1536 x 864","1536 x 864","true","1","10","","","","",""
"null","<p style=""font-size: 80px;"">+ 10 points</p>","null","html-keyboard-response","81","457021","0.0-11.0-2.80","603ac173f583af711762bc55","8xzkfm","SNK","22","F","{""name"":""Chrome"",""chrome"":true,""version"":""105.0"",""blink"":true,""windows"":true,""osname"":""Windows"",""osversion"":""10"",""a"":true}","9:15:50","1","3","Test_1","70","f","1","971.6999998092651","1536 x 864","1536 x 864","true","1","10","","","","",""
"null","<p style=""font-size: 80px;"">+ 10 points</p>","null","html-keyboard-response","82","460136","0.0-11.0-2.81","603ac173f583af711762bc55","8xzkfm","SNK","22","F","{""name"":""Chrome"",""chrome"":true,""version"":""105.0"",""blink"":true,""windows"":true,""osname"":""Windows"",""osversion"":""10"",""a"":true}","9:15:50","1","3","Test_3","70","f","1","1099.4000000953674","1536 x 864","1536 x 864","true","1","10","","","","",""
"null","<p style=""font-size: 80px;"">+ 10 points</p>","null","html-keyboard-response","83","462751","0.0-11.0-2.82","603ac173f583af711762bc55","8xzkfm","SNK","22","F","{""name"":""Chrome"",""chrome"":true,""version"":""105.0"",""blink"":true,""windows"":true,""osname"":""Windows"",""osversion"":""10"",""a"":true}","9:15:50","1","3","Test_4","74","j","1","586.4000000953674","1536 x 864","1536 x 864","true","1","10","","","","",""
"null","<p style=""font-size: 80px;"">+ 10 points</p>","null","html-keyboard-response","84","465690","0.0-11.0-2.83","603ac173f583af711762bc55","8xzkfm","SNK","22","F","{""name"":""Chrome"",""chrome"":true,""version"":""105.0"",""blink"":true,""windows"":true,""osname"":""Windows"",""osversion"":""10"",""a"":true}","9:15:50","1","3","Test_1","70","f","1","913.3999998569489","1536 x 864","1536 x 864","true","1","10","","","","",""
"null","<p style=""font-size: 80px;"">+ 10 points</p>","null","html-keyboard-response","85","468297","0.0-11.0-2.84","603ac173f583af711762bc55","8xzkfm","SNK","22","F","{""name"":""Chrome"",""chrome"":true,""version"":""105.0"",""blink"":true,""windows"":true,""osname"":""Windows"",""osversion"":""10"",""a"":true}","9:15:50","1","3","Test_1","70","f","1","585.7999999523163","1536 x 864","1536 x 864","true","1","10","","","","",""
"null","<p style=""font-size: 80px;"">+ 10 points</p>","null","html-keyboard-response","86","471330","0.0-11.0-2.85","603ac173f583af711762bc55","8xzkfm","SNK","22","F","{""name"":""Chrome"",""chrome"":true,""version"":""105.0"",""blink"":true,""windows"":true,""osname"":""Windows"",""osversion"":""10"",""a"":true}","9:15:50","1","3","Test_4","74","j","1","1001.2999999523163","1536 x 864","1536 x 864","true","1","10","","","","",""
"null","<p style=""font-size: 80px;"">+ 10 points</p>","null","html-keyboard-response","87","474123","0.0-11.0-2.86","603ac173f583af711762bc55","8xzkfm","SNK","22","F","{""name"":""Chrome"",""chrome"":true,""version"":""105.0"",""blink"":true,""windows"":true,""osname"":""Windows"",""osversion"":""10"",""a"":true}","9:15:50","1","3","Test_2","74","j","1","782.0999999046326","1536 x 864","1536 x 864","true","1","10","","","","",""
"null","<p style=""font-size: 80px;"">+ 10 points</p>","null","html-keyboard-response","88","477042","0.0-11.0-2.87","603ac173f583af711762bc55","8xzkfm","SNK","22","F","{""name"":""Chrome"",""chrome"":true,""version"":""105.0"",""blink"":true,""windows"":true,""osname"":""Windows"",""osversion"":""10"",""a"":true}","9:15:50","1","3","Test_3","70","f","1","899.7000000476837","1536 x 864","1536 x 864","true","1","10","","","","",""
"null","<p style=""font-size: 80px;"">+ 10 points</p>","null","html-keyboard-response","89","479962","0.0-11.0-2.88","603ac173f583af711762bc55","8xzkfm","SNK","22","F","{""name"":""Chrome"",""chrome"":true,""version"":""105.0"",""blink"":true,""windows"":true,""osname"":""Windows"",""osversion"":""10"",""a"":true}","9:15:50","1","3","Test_2","74","j","1","906.6000001430511","1536 x 864","1536 x 864","true","1","10","","","","",""
"null","<p style=""font-size: 80px;"">+ 0 points</p>","null","html-keyboard-response","90","482802","0.0-11.0-2.89","603ac173f583af711762bc55","8xzkfm","SNK","22","F","{""name"":""Chrome"",""chrome"":true,""version"":""105.0"",""blink"":true,""windows"":true,""osname"":""Windows"",""osversion"":""10"",""a"":true}","9:15:50","1","3","Test_3","74","f","0","815","1536 x 864","1536 x 864","true","1","0","","","","",""
"null","<p style=""font-size: 80px;"">+ 10 points</p>","null","html-keyboard-response","91","485551","0.0-11.0-2.90","603ac173f583af711762bc55","8xzkfm","SNK","22","F","{""name"":""Chrome"",""chrome"":true,""version"":""105.0"",""blink"":true,""windows"":true,""osname"":""Windows"",""osversion"":""10"",""a"":true}","9:15:50","1","3","Test_4","74","j","1","727","1536 x 864","1536 x 864","true","1","10","","","","",""
"null","<p style=""font-size: 80px;"">+ 10 points</p>","null","html-keyboard-response","92","488537","0.0-11.0-2.91","603ac173f583af711762bc55","8xzkfm","SNK","22","F","{""name"":""Chrome"",""chrome"":true,""version"":""105.0"",""blink"":true,""windows"":true,""osname"":""Windows"",""osversion"":""10"",""a"":true}","9:15:50","1","3","Test_2","74","j","1","957.3999998569489","1536 x 864","1536 x 864","true","1","10","","","","",""
"null","<p style=""font-size: 80px;"">+ 10 points</p>","null","html-keyboard-response","93","491585","0.0-11.0-2.92","603ac173f583af711762bc55","8xzkfm","SNK","22","F","{""name"":""Chrome"",""chrome"":true,""version"":""105.0"",""blink"":true,""windows"":true,""osname"":""Windows"",""osversion"":""10"",""a"":true}","9:15:50","1","3","Test_1","70","f","1","1029.5999999046326","1536 x 864","1536 x 864","true","1","10","","","","",""
"null","<p style=""font-size: 80px;"">+ 10 points</p>","null","html-keyboard-response","94","494803","0.0-11.0-2.93","603ac173f583af711762bc55","8xzkfm","SNK","22","F","{""name"":""Chrome"",""chrome"":true,""version"":""105.0"",""blink"":true,""windows"":true,""osname"":""Windows"",""osversion"":""10"",""a"":true}","9:15:50","1","3","Test_1","70","f","1","1191.7000000476837","1536 x 864","1536 x 864","true","1","10","","","","",""
"null","<p style=""font-size: 80px;"">+ 10 points</p>","null","html-keyboard-response","95","497774","0.0-11.0-2.94","603ac173f583af711762bc55","8xzkfm","SNK","22","F","{""name"":""Chrome"",""chrome"":true,""version"":""105.0"",""blink"":true,""windows"":true,""osname"":""Windows"",""osversion"":""10"",""a"":true}","9:15:50","1","3","Test_4","74","j","1","948.2999999523163","1536 x 864","1536 x 864","true","1","10","","","","",""
"null","<p style=""font-size: 80px;"">+ 10 points</p>","null","html-keyboard-response","96","500902","0.0-11.0-2.95","603ac173f583af711762bc55","8xzkfm","SNK","22","F","{""name"":""Chrome"",""chrome"":true,""version"":""105.0"",""blink"":true,""windows"":true,""osname"":""Windows"",""osversion"":""10"",""a"":true}","9:15:50","1","3","Test_3","70","f","1","1093","1536 x 864","1536 x 864","true","1","10","","","","",""
"null","<p style=""font-size: 80px;"">+ 10 points</p>","null","html-keyboard-response","97","503855","0.0-11.0-2.96","603ac173f583af711762bc55","8xzkfm","SNK","22","F","{""name"":""Chrome"",""chrome"":true,""version"":""105.0"",""blink"":true,""windows"":true,""osname"":""Windows"",""osversion"":""10"",""a"":true}","9:15:50","1","3","Test_3","70","f","1","930.5999999046326","1536 x 864","1536 x 864","true","1","10","","","","",""
"null","<p style=""font-size: 80px;"">+ 10 points</p>","null","html-keyboard-response","98","506655","0.0-11.0-2.97","603ac173f583af711762bc55","8xzkfm","SNK","22","F","{""name"":""Chrome"",""chrome"":true,""version"":""105.0"",""blink"":true,""windows"":true,""osname"":""Windows"",""osversion"":""10"",""a"":true}","9:15:50","1","3","Test_2","74","j","1","772.6999998092651","1536 x 864","1536 x 864","true","1","10","","","","",""
"null","<p style=""font-size: 80px;"">+ 10 points</p>","null","html-keyboard-response","99","509548","0.0-11.0-2.98","603ac173f583af711762bc55","8xzkfm","SNK","22","F","{""name"":""Chrome"",""chrome"":true,""version"":""105.0"",""blink"":true,""windows"":true,""osname"":""Windows"",""osversion"":""10"",""a"":true}","9:15:50","1","3","Test_2","74","j","1","868.6000001430511","1536 x 864","1536 x 864","true","1","10","","","","",""
"null","<p style=""font-size: 80px;"">+ 0 points</p>","null","html-keyboard-response","100","512110","0.0-11.0-2.99","603ac173f583af711762bc55","8xzkfm","SNK","22","F","{""name"":""Chrome"",""chrome"":true,""version"":""105.0"",""blink"":true,""windows"":true,""osname"":""Windows"",""osversion"":""10"",""a"":true}","9:15:50","1","4","Test_1","70","j","0","544.2000000476837","1536 x 864","1536 x 864","true","1","0","","","","",""
"null","<p style=""font-size: 80px;"">+ 10 points</p>","null","html-keyboard-response","101","514910","0.0-11.0-2.100","603ac173f583af711762bc55","8xzkfm","SNK","22","F","{""name"":""Chrome"",""chrome"":true,""version"":""105.0"",""blink"":true,""windows"":true,""osname"":""Windows"",""osversion"":""10"",""a"":true}","9:15:50","1","4","Test_4","70","f","1","776.4000000953674","1536 x 864","1536 x 864","true","1","10","","","","",""
"null","<p style=""font-size: 80px;"">+ 10 points</p>","null","html-keyboard-response","102","518317","0.0-11.0-2.101","603ac173f583af711762bc55","8xzkfm","SNK","22","F","{""name"":""Chrome"",""chrome"":true,""version"":""105.0"",""blink"":true,""windows"":true,""osname"":""Windows"",""osversion"":""10"",""a"":true}","9:15:50","1","4","Test_3","74","j","1","1382.7999999523163","1536 x 864","1536 x 864","true","1","10","","","","",""
"null","<p style=""font-size: 80px;"">+ 10 points</p>","null","html-keyboard-response","103","520963","0.0-11.0-2.102","603ac173f583af711762bc55","8xzkfm","SNK","22","F","{""name"":""Chrome"",""chrome"":true,""version"":""105.0"",""blink"":true,""windows"":true,""osname"":""Windows"",""osversion"":""10"",""a"":true}","9:15:50","1","4","Test_4","70","f","1","622.4000000953674","1536 x 864","1536 x 864","true","1","10","","","","",""
"null","<p style=""font-size: 80px;"">+ 0 points</p>","null","html-keyboard-response","104","523904","0.0-11.0-2.103","603ac173f583af711762bc55","8xzkfm","SNK","22","F","{""name"":""Chrome"",""chrome"":true,""version"":""105.0"",""blink"":true,""windows"":true,""osname"":""Windows"",""osversion"":""10"",""a"":true}","9:15:50","1","4","Test_3","70","j","0","919.2000000476837","1536 x 864","1536 x 864","true","1","0","","","","",""
"null","<p style=""font-size: 80px;"">+ 10 points</p>","null","html-keyboard-response","105","526458","0.0-11.0-2.104","603ac173f583af711762bc55","8xzkfm","SNK","22","F","{""name"":""Chrome"",""chrome"":true,""version"":""105.0"",""blink"":true,""windows"":true,""osname"":""Windows"",""osversion"":""10"",""a"":true}","9:15:50","1","4","Test_2","70","f","1","535.5999999046326","1536 x 864","1536 x 864","true","1","10","","","","",""
"null","<p style=""font-size: 80px;"">+ 10 points</p>","null","html-keyboard-response","106","529208","0.0-11.0-2.105","603ac173f583af711762bc55","8xzkfm","SNK","22","F","{""name"":""Chrome"",""chrome"":true,""version"":""105.0"",""blink"":true,""windows"":true,""osname"":""Windows"",""osversion"":""10"",""a"":true}","9:15:50","1","4","Test_1","74","j","1","731.2000000476837","1536 x 864","1536 x 864","true","1","10","","","","",""
"null","<p style=""font-size: 80px;"">+ 10 points</p>","null","html-keyboard-response","107","532689","0.0-11.0-2.106","603ac173f583af711762bc55","8xzkfm","SNK","22","F","{""name"":""Chrome"",""chrome"":true,""version"":""105.0"",""blink"":true,""windows"":true,""osname"":""Windows"",""osversion"":""10"",""a"":true}","9:15:50","1","4","Test_4","70","f","1","1450","1536 x 864","1536 x 864","true","1","10","","","","",""
"null","<p style=""font-size: 80px;"">+ 10 points</p>","null","html-keyboard-response","108","535677","0.0-11.0-2.107","603ac173f583af711762bc55","8xzkfm","SNK","22","F","{""name"":""Chrome"",""chrome"":true,""version"":""105.0"",""blink"":true,""windows"":true,""osname"":""Windows"",""osversion"":""10"",""a"":true}","9:15:50","1","4","Test_1","74","j","1","965.7000000476837","1536 x 864","1536 x 864","true","1","10","","","","",""
"null","<p style=""font-size: 80px;"">+ 10 points</p>","null","html-keyboard-response","109","538955","0.0-11.0-2.108","603ac173f583af711762bc55","8xzkfm","SNK","22","F","{""name"":""Chrome"",""chrome"":true,""version"":""105.0"",""blink"":true,""windows"":true,""osname"":""Windows"",""osversion"":""10"",""a"":true}","9:15:50","1","4","Test_2","70","f","1","1249","1536 x 864","1536 x 864","true","1","10","","","","",""
"null","<p style=""font-size: 80px;"">+ 0 points</p>","null","html-keyboard-response","110","544774","0.0-11.0-2.109","603ac173f583af711762bc55","8xzkfm","SNK","22","F","{""name"":""Chrome"",""chrome"":true,""version"":""105.0"",""blink"":true,""windows"":true,""osname"":""Windows"",""osversion"":""10"",""a"":true}","9:15:50","1","4","Test_4","74","f","0","1035.4000000953674","1536 x 864","1536 x 864","true","1","0","","","","",""
"null","<p style=""font-size: 80px;"">+ 10 points</p>","null","html-keyboard-response","111","547474","0.0-11.0-2.110","603ac173f583af711762bc55","8xzkfm","SNK","22","F","{""name"":""Chrome"",""chrome"":true,""version"":""105.0"",""blink"":true,""windows"":true,""osname"":""Windows"",""osversion"":""10"",""a"":true}","9:15:50","1","4","Test_2","70","f","1","675.2000000476837","1536 x 864","1536 x 864","true","1","10","","","","",""
"null","<p style=""font-size: 80px;"">+ 10 points</p>","null","html-keyboard-response","112","551143","0.0-11.0-2.111","603ac173f583af711762bc55","8xzkfm","SNK","22","F","{""name"":""Chrome"",""chrome"":true,""version"":""105.0"",""blink"":true,""windows"":true,""osname"":""Windows"",""osversion"":""10"",""a"":true}","9:15:50","1","4","Test_3","74","j","1","1645.5999999046326","1536 x 864","1536 x 864","true","1","10","","","","",""
"null","<p style=""font-size: 80px;"">+ 10 points</p>","null","html-keyboard-response","113","554019","0.0-11.0-2.112","603ac173f583af711762bc55","8xzkfm","SNK","22","F","{""name"":""Chrome"",""chrome"":true,""version"":""105.0"",""blink"":true,""windows"":true,""osname"":""Windows"",""osversion"":""10"",""a"":true}","9:15:50","1","4","Test_2","70","f","1","845","1536 x 864","1536 x 864","true","1","10","","","","",""
"null","<p style=""font-size: 80px;"">+ 10 points</p>","null","html-keyboard-response","114","557552","0.0-11.0-2.113","603ac173f583af711762bc55","8xzkfm","SNK","22","F","{""name"":""Chrome"",""chrome"":true,""version"":""105.0"",""blink"":true,""windows"":true,""osname"":""Windows"",""osversion"":""10"",""a"":true}","9:15:50","1","4","Test_2","70","f","1","1513.7000000476837","1536 x 864","1536 x 864","true","1","10","","","","",""
"null","<p style=""font-size: 80px;"">+ 10 points</p>","null","html-keyboard-response","115","560497","0.0-11.0-2.114","603ac173f583af711762bc55","8xzkfm","SNK","22","F","{""name"":""Chrome"",""chrome"":true,""version"":""105.0"",""blink"":true,""windows"":true,""osname"":""Windows"",""osversion"":""10"",""a"":true}","9:15:50","1","4","Test_3","74","j","1","921.8999998569489","1536 x 864","1536 x 864","true","1","10","","","","",""
"null","<p style=""font-size: 80px;"">+ 10 points</p>","null","html-keyboard-response","116","564289","0.0-11.0-2.115","603ac173f583af711762bc55","8xzkfm","SNK","22","F","{""name"":""Chrome"",""chrome"":true,""version"":""105.0"",""blink"":true,""windows"":true,""osname"":""Windows"",""osversion"":""10"",""a"":true}","9:15:50","1","4","Test_4","70","f","1","1766.5","1536 x 864","1536 x 864","true","1","10","","","","",""
"null","<p style=""font-size: 80px;"">+ 0 points</p>","null","html-keyboard-response","117","567362","0.0-11.0-2.116","603ac173f583af711762bc55","8xzkfm","SNK","22","F","{""name"":""Chrome"",""chrome"":true,""version"":""105.0"",""blink"":true,""windows"":true,""osname"":""Windows"",""osversion"":""10"",""a"":true}","9:15:50","1","4","Test_3","70","j","0","1060.7999999523163","1536 x 864","1536 x 864","true","1","0","","","","",""
"null","<p style=""font-size: 80px;"">+ 10 points</p>","null","html-keyboard-response","118","570141","0.0-11.0-2.117","603ac173f583af711762bc55","8xzkfm","SNK","22","F","{""name"":""Chrome"",""chrome"":true,""version"":""105.0"",""blink"":true,""windows"":true,""osname"":""Windows"",""osversion"":""10"",""a"":true}","9:15:50","1","4","Test_1","74","j","1","749.9000000953674","1536 x 864","1536 x 864","true","1","10","","","","",""
"null","<p style=""font-size: 80px;"">+ 10 points</p>","null","html-keyboard-response","119","572862","0.0-11.0-2.118","603ac173f583af711762bc55","8xzkfm","SNK","22","F","{""name"":""Chrome"",""chrome"":true,""version"":""105.0"",""blink"":true,""windows"":true,""osname"":""Windows"",""osversion"":""10"",""a"":true}","9:15:50","1","4","Test_1","74","j","1","698.5","1536 x 864","1536 x 864","true","1","10","","","","",""
"null","<p style=""font-size: 80px;"">+ 0 points</p>","null","html-keyboard-response","120","575987","0.0-11.0-2.119","603ac173f583af711762bc55","8xzkfm","SNK","22","F","{""name"":""Chrome"",""chrome"":true,""version"":""105.0"",""blink"":true,""windows"":true,""osname"":""Windows"",""osversion"":""10"",""a"":true}","9:15:50","1","3","Test_4","70","j","0","1102.6999998092651","1536 x 864","1536 x 864","true","1","0","","","","",""
"null","<p style=""font-size: 80px;"">+ 0 points</p>","null","html-keyboard-response","121","579162","0.0-11.0-2.120","603ac173f583af711762bc55","8xzkfm","SNK","22","F","{""name"":""Chrome"",""chrome"":true,""version"":""105.0"",""blink"":true,""windows"":true,""osname"":""Windows"",""osversion"":""10"",""a"":true}","9:15:50","1","3","Test_2","70","j","0","1157.5","1536 x 864","1536 x 864","true","1","0","","","","",""
"null","<p style=""font-size: 80px;"">+ 0 points</p>","null","html-keyboard-response","122","581808","0.0-11.0-2.121","603ac173f583af711762bc55","8xzkfm","SNK","22","F","{""name"":""Chrome"",""chrome"":true,""version"":""105.0"",""blink"":true,""windows"":true,""osname"":""Windows"",""osversion"":""10"",""a"":true}","9:15:50","1","3","Test_3","74","f","0","623.9000000953674","1536 x 864","1536 x 864","true","1","0","","","","",""
"null","<p style=""font-size: 80px;"">+ 10 points</p>","null","html-keyboard-response","123","584350","0.0-11.0-2.122","603ac173f583af711762bc55","8xzkfm","SNK","22","F","{""name"":""Chrome"",""chrome"":true,""version"":""105.0"",""blink"":true,""windows"":true,""osname"":""Windows"",""osversion"":""10"",""a"":true}","9:15:50","1","3","Test_2","74","j","1","530.1000001430511","1536 x 864","1536 x 864","true","1","10","","","","",""
"null","<p style=""font-size: 80px;"">+ 10 points</p>","null","html-keyboard-response","124","587190","0.0-11.0-2.123","603ac173f583af711762bc55","8xzkfm","SNK","22","F","{""name"":""Chrome"",""chrome"":true,""version"":""105.0"",""blink"":true,""windows"":true,""osname"":""Windows"",""osversion"":""10"",""a"":true}","9:15:50","1","3","Test_1","70","f","1","820","1536 x 864","1536 x 864","true","1","10","","","","",""
"null","<p style=""font-size: 80px;"">+ 10 points</p>","null","html-keyboard-response","125","590835","0.0-11.0-2.124","603ac173f583af711762bc55","8xzkfm","SNK","22","F","{""name"":""Chrome"",""chrome"":true,""version"":""105.0"",""blink"":true,""windows"":true,""osname"":""Windows"",""osversion"":""10"",""a"":true}","9:15:50","1","3","Test_3","70","f","1","1612.6000001430511","1536 x 864","1536 x 864","true","1","10","","","","",""
"null","<p style=""font-size: 80px;"">+ 10 points</p>","null","html-keyboard-response","126","593622","0.0-11.0-2.125","603ac173f583af711762bc55","8xzkfm","SNK","22","F","{""name"":""Chrome"",""chrome"":true,""version"":""105.0"",""blink"":true,""windows"":true,""osname"":""Windows"",""osversion"":""10"",""a"":true}","9:15:50","1","3","Test_4","74","j","1","758","1536 x 864","1536 x 864","true","1","10","","","","",""
"null","<p style=""font-size: 80px;"">+ 0 points</p>","null","html-keyboard-response","127","596501","0.0-11.0-2.126","603ac173f583af711762bc55","8xzkfm","SNK","22","F","{""name"":""Chrome"",""chrome"":true,""version"":""105.0"",""blink"":true,""windows"":true,""osname"":""Windows"",""osversion"":""10"",""a"":true}","9:15:50","1","3","Test_4","70","j","0","851.5999999046326","1536 x 864","1536 x 864","true","1","0","","","","",""
"null","<p style=""font-size: 80px;"">+ 10 points</p>","null","html-keyboard-response","128","599109","0.0-11.0-2.127","603ac173f583af711762bc55","8xzkfm","SNK","22","F","{""name"":""Chrome"",""chrome"":true,""version"":""105.0"",""blink"":true,""windows"":true,""osname"":""Windows"",""osversion"":""10"",""a"":true}","9:15:50","1","3","Test_3","70","f","1","587.0999999046326","1536 x 864","1536 x 864","true","1","10","","","","",""
"null","<p style=""font-size: 80px;"">+ 0 points</p>","null","html-keyboard-response","129","602136","0.0-11.0-2.128","603ac173f583af711762bc55","8xzkfm","SNK","22","F","{""name"":""Chrome"",""chrome"":true,""version"":""105.0"",""blink"":true,""windows"":true,""osname"":""Windows"",""osversion"":""10"",""a"":true}","9:15:50","1","3","Test_2","70","j","0","1014.1999998092651","1536 x 864","1536 x 864","true","1","0","","","","",""
"null","<p style=""font-size: 80px;"">+ 10 points</p>","null","html-keyboard-response","130","604813","0.0-11.0-2.129","603ac173f583af711762bc55","8xzkfm","SNK","22","F","{""name"":""Chrome"",""chrome"":true,""version"":""105.0"",""blink"":true,""windows"":true,""osname"":""Windows"",""osversion"":""10"",""a"":true}","9:15:50","1","3","Test_4","74","j","1","651.3000001907349","1536 x 864","1536 x 864","true","1","10","","","","",""
"null","<p style=""font-size: 80px;"">+ 10 points</p>","null","html-keyboard-response","131","607467","0.0-11.0-2.130","603ac173f583af711762bc55","8xzkfm","SNK","22","F","{""name"":""Chrome"",""chrome"":true,""version"":""105.0"",""blink"":true,""windows"":true,""osname"":""Windows"",""osversion"":""10"",""a"":true}","9:15:50","1","3","Test_1","70","f","1","628.8999998569489","1536 x 864","1536 x 864","true","1","10","","","","",""
"null","<p style=""font-size: 80px;"">+ 0 points</p>","null","html-keyboard-response","132","610090","0.0-11.0-2.131","603ac173f583af711762bc55","8xzkfm","SNK","22","F","{""name"":""Chrome"",""chrome"":true,""version"":""105.0"",""blink"":true,""windows"":true,""osname"":""Windows"",""osversion"":""10"",""a"":true}","9:15:50","1","3","Test_1","74","f","0","599.2999999523163","1536 x 864","1536 x 864","true","1","0","","","","",""
"null","<p style=""font-size: 80px;"">+ 10 points</p>","null","html-keyboard-response","133","612938","0.0-11.0-2.132","603ac173f583af711762bc55","8xzkfm","SNK","22","F","{""name"":""Chrome"",""chrome"":true,""version"":""105.0"",""blink"":true,""windows"":true,""osname"":""Windows"",""osversion"":""10"",""a"":true}","9:15:50","1","3","Test_2","74","j","1","824.3999998569489","1536 x 864","1536 x 864","true","1","10","","","","",""
"null","<p style=""font-size: 80px;"">+ 10 points</p>","null","html-keyboard-response","134","616026","0.0-11.0-2.133","603ac173f583af711762bc55","8xzkfm","SNK","22","F","{""name"":""Chrome"",""chrome"":true,""version"":""105.0"",""blink"":true,""windows"":true,""osname"":""Windows"",""osversion"":""10"",""a"":true}","9:15:50","1","3","Test_3","70","f","1","1072.7000000476837","1536 x 864","1536 x 864","true","1","10","","","","",""
"null","<p style=""font-size: 80px;"">+ 10 points</p>","null","html-keyboard-response","135","619285","0.0-11.0-2.134","603ac173f583af711762bc55","8xzkfm","SNK","22","F","{""name"":""Chrome"",""chrome"":true,""version"":""105.0"",""blink"":true,""windows"":true,""osname"":""Windows"",""osversion"":""10"",""a"":true}","9:15:50","1","3","Test_1","70","f","1","1235.1999998092651","1536 x 864","1536 x 864","true","1","10","","","","",""
"null","<p style=""font-size: 80px;"">+ 0 points</p>","null","html-keyboard-response","136","622178","0.0-11.0-2.135","603ac173f583af711762bc55","8xzkfm","SNK","22","F","{""name"":""Chrome"",""chrome"":true,""version"":""105.0"",""blink"":true,""windows"":true,""osname"":""Windows"",""osversion"":""10"",""a"":true}","9:15:50","1","4","Test_4","74","f","0","863.1000001430511","1536 x 864","1536 x 864","true","1","0","","","","",""
"null","<p style=""font-size: 80px;"">+ 10 points</p>","null","html-keyboard-response","137","625360","0.0-11.0-2.136","603ac173f583af711762bc55","8xzkfm","SNK","22","F","{""name"":""Chrome"",""chrome"":true,""version"":""105.0"",""blink"":true,""windows"":true,""osname"":""Windows"",""osversion"":""10"",""a"":true}","9:15:50","1","4","Test_4","70","f","1","1160.2999999523163","1536 x 864","1536 x 864","true","1","10","","","","",""
"null","<p style=""font-size: 80px;"">+ 10 points</p>","null","html-keyboard-response","138","628297","0.0-11.0-2.137","603ac173f583af711762bc55","8xzkfm","SNK","22","F","{""name"":""Chrome"",""chrome"":true,""version"":""105.0"",""blink"":true,""windows"":true,""osname"":""Windows"",""osversion"":""10"",""a"":true}","9:15:50","1","4","Test_1","74","j","1","916.2000000476837","1536 x 864","1536 x 864","true","1","10","","","","",""
"null","<p style=""font-size: 80px;"">+ 10 points</p>","null","html-keyboard-response","139","630912","0.0-11.0-2.138","603ac173f583af711762bc55","8xzkfm","SNK","22","F","{""name"":""Chrome"",""chrome"":true,""version"":""105.0"",""blink"":true,""windows"":true,""osname"":""Windows"",""osversion"":""10"",""a"":true}","9:15:50","1","4","Test_2","70","f","1","581.0999999046326","1536 x 864","1536 x 864","true","1","10","","","","",""
"null","<p style=""font-size: 80px;"">+ 10 points</p>","null","html-keyboard-response","140","633861","0.0-11.0-2.139","603ac173f583af711762bc55","8xzkfm","SNK","22","F","{""name"":""Chrome"",""chrome"":true,""version"":""105.0"",""blink"":true,""windows"":true,""osname"":""Windows"",""osversion"":""10"",""a"":true}","9:15:50","1","4","Test_4","70","f","1","923.2000000476837","1536 x 864","1536 x 864","true","1","10","","","","",""
"null","<p style=""font-size: 80px;"">+ 10 points</p>","null","html-keyboard-response","141","636917","0.0-11.0-2.140","603ac173f583af711762bc55","8xzkfm","SNK","22","F","{""name"":""Chrome"",""chrome"":true,""version"":""105.0"",""blink"":true,""windows"":true,""osname"":""Windows"",""osversion"":""10"",""a"":true}","9:15:50","1","4","Test_4","70","f","1","1026.2000000476837","1536 x 864","1536 x 864","true","1","10","","","","",""
"null","<p style=""font-size: 80px;"">+ 10 points</p>","null","html-keyboard-response","142","639867","0.0-11.0-2.141","603ac173f583af711762bc55","8xzkfm","SNK","22","F","{""name"":""Chrome"",""chrome"":true,""version"":""105.0"",""blink"":true,""windows"":true,""osname"":""Windows"",""osversion"":""10"",""a"":true}","9:15:50","1","4","Test_3","74","j","1","937.1000001430511","1536 x 864","1536 x 864","true","1","10","","","","",""
"null","<p style=""font-size: 80px;"">+ 10 points</p>","null","html-keyboard-response","143","643165","0.0-11.0-2.142","603ac173f583af711762bc55","8xzkfm","SNK","22","F","{""name"":""Chrome"",""chrome"":true,""version"":""105.0"",""blink"":true,""windows"":true,""osname"":""Windows"",""osversion"":""10"",""a"":true}","9:15:50","1","4","Test_3","74","j","1","1270.7000000476837","1536 x 864","1536 x 864","true","1","10","","","","",""
"null","<p style=""font-size: 80px;"">+ 10 points</p>","null","html-keyboard-response","144","645931","0.0-11.0-2.143","603ac173f583af711762bc55","8xzkfm","SNK","22","F","{""name"":""Chrome"",""chrome"":true,""version"":""105.0"",""blink"":true,""windows"":true,""osname"":""Windows"",""osversion"":""10"",""a"":true}","9:15:50","1","4","Test_2","70","f","1","740.8999998569489","1536 x 864","1536 x 864","true","1","10","","","","",""
"null","<p style=""font-size: 80px;"">+ 10 points</p>","null","html-keyboard-response","145","648676","0.0-11.0-2.144","603ac173f583af711762bc55","8xzkfm","SNK","22","F","{""name"":""Chrome"",""chrome"":true,""version"":""105.0"",""blink"":true,""windows"":true,""osname"":""Windows"",""osversion"":""10"",""a"":true}","9:15:50","1","4","Test_2","70","f","1","731.6000001430511","1536 x 864","1536 x 864","true","1","10","","","","",""
"null","<p style=""font-size: 80px;"">+ 10 points</p>","null","html-keyboard-response","146","651794","0.0-11.0-2.145","603ac173f583af711762bc55","8xzkfm","SNK","22","F","{""name"":""Chrome"",""chrome"":true,""version"":""105.0"",""blink"":true,""windows"":true,""osname"":""Windows"",""osversion"":""10"",""a"":true}","9:15:50","1","4","Test_1","74","j","1","1104.5999999046326","1536 x 864","1536 x 864","true","1","10","","","","",""
"null","<p style=""font-size: 80px;"">+ 0 points</p>","null","html-keyboard-response","147","654857","0.0-11.0-2.146","603ac173f583af711762bc55","8xzkfm","SNK","22","F","{""name"":""Chrome"",""chrome"":true,""version"":""105.0"",""blink"":true,""windows"":true,""osname"":""Windows"",""osversion"":""10"",""a"":true}","9:15:50","1","4","Test_1","70","j","0","1043.2000000476837","1536 x 864","1536 x 864","true","1","0","","","","",""
"null","<p style=""font-size: 80px;"">+ 10 points</p>","null","html-keyboard-response","148","657837","0.0-11.0-2.147","603ac173f583af711762bc55","8xzkfm","SNK","22","F","{""name"":""Chrome"",""chrome"":true,""version"":""105.0"",""blink"":true,""windows"":true,""osname"":""Windows"",""osversion"":""10"",""a"":true}","9:15:50","1","4","Test_3","74","j","1","955.5999999046326","1536 x 864","1536 x 864","true","1","10","","","","",""
"null","<p style=""font-size: 80px;"">+ 0 points</p>","null","html-keyboard-response","149","660690","0.0-11.0-2.148","603ac173f583af711762bc55","8xzkfm","SNK","22","F","{""name"":""Chrome"",""chrome"":true,""version"":""105.0"",""blink"":true,""windows"":true,""osname"":""Windows"",""osversion"":""10"",""a"":true}","9:15:50","1","4","Test_3","70","j","0","829.9000000953674","1536 x 864","1536 x 864","true","1","0","","","","",""
"null","<p style=""font-size: 80px;"">+ 10 points</p>","null","html-keyboard-response","150","663284","0.0-11.0-2.149","603ac173f583af711762bc55","8xzkfm","SNK","22","F","{""name"":""Chrome"",""chrome"":true,""version"":""105.0"",""blink"":true,""windows"":true,""osname"":""Windows"",""osversion"":""10"",""a"":true}","9:15:50","1","4","Test_3","74","j","1","570.2999999523163","1536 x 864","1536 x 864","true","1","10","","","","",""
"null","<p style=""font-size: 80px;"">+ 10 points</p>","null","html-keyboard-response","151","666403","0.0-11.0-2.150","603ac173f583af711762bc55","8xzkfm","SNK","22","F","{""name"":""Chrome"",""chrome"":true,""version"":""105.0"",""blink"":true,""windows"":true,""osname"":""Windows"",""osversion"":""10"",""a"":true}","9:15:50","1","4","Test_1","74","j","1","1102.5","1536 x 864","1536 x 864","true","1","10","","","","",""
"null","<p style=""font-size: 80px;"">+ 10 points</p>","null","html-keyboard-response","152","669181","0.0-11.0-2.151","603ac173f583af711762bc55","8xzkfm","SNK","22","F","{""name"":""Chrome"",""chrome"":true,""version"":""105.0"",""blink"":true,""windows"":true,""osname"":""Windows"",""osversion"":""10"",""a"":true}","9:15:50","1","4","Test_2","70","f","1","754.4000000953674","1536 x 864","1536 x 864","true","1","10","","","","",""
"null","<p style=""font-size: 80px;"">+ 10 points</p>","null","html-keyboard-response","153","671817","0.0-11.0-2.152","603ac173f583af711762bc55","8xzkfm","SNK","22","F","{""name"":""Chrome"",""chrome"":true,""version"":""105.0"",""blink"":true,""windows"":true,""osname"":""Windows"",""osversion"":""10"",""a"":true}","9:15:50","1","4","Test_1","74","j","1","611","1536 x 864","1536 x 864","true","1","10","","","","",""
"null","<p style=""font-size: 80px;"">+ 10 points</p>","null","html-keyboard-response","154","674491","0.0-11.0-2.153","603ac173f583af711762bc55","8xzkfm","SNK","22","F","{""name"":""Chrome"",""chrome"":true,""version"":""105.0"",""blink"":true,""windows"":true,""osname"":""Windows"",""osversion"":""10"",""a"":true}","9:15:50","1","4","Test_2","70","f","1","662.5","1536 x 864","1536 x 864","true","1","10","","","","",""
"null","<p style=""font-size: 80px;"">+ 0 points</p>","null","html-keyboard-response","155","677081","0.0-11.0-2.154","603ac173f583af711762bc55","8xzkfm","SNK","22","F","{""name"":""Chrome"",""chrome"":true,""version"":""105.0"",""blink"":true,""windows"":true,""osname"":""Windows"",""osversion"":""10"",""a"":true}","9:15:50","1","4","Test_3","70","j","0","564.8999998569489","1536 x 864","1536 x 864","true","1","0","","","","",""
"null","<p style=""font-size: 80px;"">+ 0 points</p>","null","html-keyboard-response","156","679712","0.0-11.0-2.155","603ac173f583af711762bc55","8xzkfm","SNK","22","F","{""name"":""Chrome"",""chrome"":true,""version"":""105.0"",""blink"":true,""windows"":true,""osname"":""Windows"",""osversion"":""10"",""a"":true}","9:15:50","1","4","Test_4","74","f","0","605.2000000476837","1536 x 864","1536 x 864","true","1","0","","","","",""
"null","<p style=""font-size: 80px;"">+ 0 points</p>","null","html-keyboard-response","157","682170","0.0-11.0-2.156","603ac173f583af711762bc55","8xzkfm","SNK","22","F","{""name"":""Chrome"",""chrome"":true,""version"":""105.0"",""blink"":true,""windows"":true,""osname"":""Windows"",""osversion"":""10"",""a"":true}","9:15:50","1","4","Test_4","74","f","0","439.5","1536 x 864","1536 x 864","true","1","0","","","","",""
"null","<p style=""font-size: 80px;"">+ 10 points</p>","null","html-keyboard-response","158","684855","0.0-11.0-2.157","603ac173f583af711762bc55","8xzkfm","SNK","22","F","{""name"":""Chrome"",""chrome"":true,""version"":""105.0"",""blink"":true,""windows"":true,""osname"":""Windows"",""osversion"":""10"",""a"":true}","9:15:50","1","4","Test_2","70","f","1","669.1000001430511","1536 x 864","1536 x 864","true","1","10","","","","",""
"null","<p style=""font-size: 80px;"">+ 10 points</p>","null","html-keyboard-response","159","687435","0.0-11.0-2.158","603ac173f583af711762bc55","8xzkfm","SNK","22","F","{""name"":""Chrome"",""chrome"":true,""version"":""105.0"",""blink"":true,""windows"":true,""osname"":""Windows"",""osversion"":""10"",""a"":true}","9:15:50","1","3","Test_1","70","f","1","560.8999998569489","1536 x 864","1536 x 864","true","1","10","","","","",""
"null","<p style=""font-size: 80px;"">+ 0 points</p>","null","html-keyboard-response","160","689968","0.0-11.0-2.159","603ac173f583af711762bc55","8xzkfm","SNK","22","F","{""name"":""Chrome"",""chrome"":true,""version"":""105.0"",""blink"":true,""windows"":true,""osname"":""Windows"",""osversion"":""10"",""a"":true}","9:15:50","1","3","Test_3","74","f","0","516.2000000476837","1536 x 864","1536 x 864","true","1","0","","","","",""
"null","<p style=""font-size: 80px;"">+ 0 points</p>","null","html-keyboard-response","161","692421","0.0-11.0-2.160","603ac173f583af711762bc55","8xzkfm","SNK","22","F","{""name"":""Chrome"",""chrome"":true,""version"":""105.0"",""blink"":true,""windows"":true,""osname"":""Windows"",""osversion"":""10"",""a"":true}","9:15:50","1","3","Test_4","70","j","0","436.89999985694885","1536 x 864","1536 x 864","true","1","0","","","","",""
"null","<p style=""font-size: 80px;"">+ 0 points</p>","null","html-keyboard-response","162","695268","0.0-11.0-2.161","603ac173f583af711762bc55","8xzkfm","SNK","22","F","{""name"":""Chrome"",""chrome"":true,""version"":""105.0"",""blink"":true,""windows"":true,""osname"":""Windows"",""osversion"":""10"",""a"":true}","9:15:50","1","3","Test_3","74","f","0","827.9000000953674","1536 x 864","1536 x 864","true","1","0","","","","",""
"null","<p style=""font-size: 80px;"">+ 10 points</p>","null","html-keyboard-response","163","697883","0.0-11.0-2.162","603ac173f583af711762bc55","8xzkfm","SNK","22","F","{""name"":""Chrome"",""chrome"":true,""version"":""105.0"",""blink"":true,""windows"":true,""osname"":""Windows"",""osversion"":""10"",""a"":true}","9:15:50","1","3","Test_1","70","f","1","591.7000000476837","1536 x 864","1536 x 864","true","1","10","","","","",""
"null","<p style=""font-size: 80px;"">+ 10 points</p>","null","html-keyboard-response","164","700527","0.0-11.0-2.163","603ac173f583af711762bc55","8xzkfm","SNK","22","F","{""name"":""Chrome"",""chrome"":true,""version"":""105.0"",""blink"":true,""windows"":true,""osname"":""Windows"",""osversion"":""10"",""a"":true}","9:15:50","1","3","Test_2","74","j","1","619.7000000476837","1536 x 864","1536 x 864","true","1","10","","","","",""
"null","<p style=""font-size: 80px;"">+ 0 points</p>","null","html-keyboard-response","165","703089","0.0-11.0-2.164","603ac173f583af711762bc55","8xzkfm","SNK","22","F","{""name"":""Chrome"",""chrome"":true,""version"":""105.0"",""blink"":true,""windows"":true,""osname"":""Windows"",""osversion"":""10"",""a"":true}","9:15:50","1","3","Test_2","70","j","0","532.6000001430511","1536 x 864","1536 x 864","true","1","0","","","","",""
"null","<p style=""font-size: 80px;"">+ 10 points</p>","null","html-keyboard-response","166","705889","0.0-11.0-2.165","603ac173f583af711762bc55","8xzkfm","SNK","22","F","{""name"":""Chrome"",""chrome"":true,""version"":""105.0"",""blink"":true,""windows"":true,""osname"":""Windows"",""osversion"":""10"",""a"":true}","9:15:50","1","3","Test_4","74","j","1","783.6000001430511","1536 x 864","1536 x 864","true","1","10","","","","",""
"null","<p style=""font-size: 80px;"">+ 10 points</p>","null","html-keyboard-response","167","709002","0.0-11.0-2.166","603ac173f583af711762bc55","8xzkfm","SNK","22","F","{""name"":""Chrome"",""chrome"":true,""version"":""105.0"",""blink"":true,""windows"":true,""osname"":""Windows"",""osversion"":""10"",""a"":true}","9:15:50","1","3","Test_1","70","f","1","1085.7999999523163","1536 x 864","1536 x 864","true","1","10","","","","",""
"null","<p style=""font-size: 80px;"">+ 10 points</p>","null","html-keyboard-response","168","711848","0.0-11.0-2.167","603ac173f583af711762bc55","8xzkfm","SNK","22","F","{""name"":""Chrome"",""chrome"":true,""version"":""105.0"",""blink"":true,""windows"":true,""osname"":""Windows"",""osversion"":""10"",""a"":true}","9:15:50","1","3","Test_3","70","f","1","819.1000001430511","1536 x 864","1536 x 864","true","1","10","","","","",""
"null","<p style=""font-size: 80px;"">+ 10 points</p>","null","html-keyboard-response","169","714641","0.0-11.0-2.168","603ac173f583af711762bc55","8xzkfm","SNK","22","F","{""name"":""Chrome"",""chrome"":true,""version"":""105.0"",""blink"":true,""windows"":true,""osname"":""Windows"",""osversion"":""10"",""a"":true}","9:15:50","1","3","Test_4","74","j","1","772.6999998092651","1536 x 864","1536 x 864","true","1","10","","","","",""
"null","<p style=""font-size: 80px;"">+ 0 points</p>","null","html-keyboard-response","170","717224","0.0-11.0-2.169","603ac173f583af711762bc55","8xzkfm","SNK","22","F","{""name"":""Chrome"",""chrome"":true,""version"":""105.0"",""blink"":true,""windows"":true,""osname"":""Windows"",""osversion"":""10"",""a"":true}","9:15:50","1","3","Test_4","70","j","0","563.3999998569489","1536 x 864","1536 x 864","true","1","0","","","","",""
"null","<p style=""font-size: 80px;"">+ 10 points</p>","null","html-keyboard-response","171","720223","0.0-11.0-2.170","603ac173f583af711762bc55","8xzkfm","SNK","22","F","{""name"":""Chrome"",""chrome"":true,""version"":""105.0"",""blink"":true,""windows"":true,""osname"":""Windows"",""osversion"":""10"",""a"":true}","9:15:50","1","3","Test_3","70","f","1","980.4000000953674","1536 x 864","1536 x 864","true","1","10","","","","",""
"null","<p style=""font-size: 80px;"">+ 10 points</p>","null","html-keyboard-response","172","723330","0.0-11.0-2.171","603ac173f583af711762bc55","8xzkfm","SNK","22","F","{""name"":""Chrome"",""chrome"":true,""version"":""105.0"",""blink"":true,""windows"":true,""osname"":""Windows"",""osversion"":""10"",""a"":true}","9:15:50","1","3","Test_2","74","j","1","1093.5","1536 x 864","1536 x 864","true","1","10","","","","",""
"null","<p style=""font-size: 80px;"">+ 10 points</p>","null","html-keyboard-response","173","726084","0.0-11.0-2.172","603ac173f583af711762bc55","8xzkfm","SNK","22","F","{""name"":""Chrome"",""chrome"":true,""version"":""105.0"",""blink"":true,""windows"":true,""osname"":""Windows"",""osversion"":""10"",""a"":true}","9:15:50","1","3","Test_3","70","f","1","732.9000000953674","1536 x 864","1536 x 864","true","1","10","","","","",""
"null","<p style=""font-size: 80px;"">+ 10 points</p>","null","html-keyboard-response","174","729153","0.0-11.0-2.173","603ac173f583af711762bc55","8xzkfm","SNK","22","F","{""name"":""Chrome"",""chrome"":true,""version"":""105.0"",""blink"":true,""windows"":true,""osname"":""Windows"",""osversion"":""10"",""a"":true}","9:15:50","1","3","Test_2","74","j","1","1043.2000000476837","1536 x 864","1536 x 864","true","1","10","","","","",""
"null","<p style=""font-size: 80px;"">+ 10 points</p>","null","html-keyboard-response","175","731668","0.0-11.0-2.174","603ac173f583af711762bc55","8xzkfm","SNK","22","F","{""name"":""Chrome"",""chrome"":true,""version"":""105.0"",""blink"":true,""windows"":true,""osname"":""Windows"",""osversion"":""10"",""a"":true}","9:15:50","1","3","Test_1","70","f","1","490","1536 x 864","1536 x 864","true","1","10","","","","",""
"null","<p style=""font-size: 80px;"">+ 10 points</p>","null","html-keyboard-response","176","734590","0.0-11.0-2.175","603ac173f583af711762bc55","8xzkfm","SNK","22","F","{""name"":""Chrome"",""chrome"":true,""version"":""105.0"",""blink"":true,""windows"":true,""osname"":""Windows"",""osversion"":""10"",""a"":true}","9:15:50","1","3","Test_4","74","j","1","906.6000001430511","1536 x 864","1536 x 864","true","1","10","","","","",""
"null","<p style=""font-size: 80px;"">+ 0 points</p>","null","html-keyboard-response","177","737368","0.0-11.0-2.176","603ac173f583af711762bc55","8xzkfm","SNK","22","F","{""name"":""Chrome"",""chrome"":true,""version"":""105.0"",""blink"":true,""windows"":true,""osname"":""Windows"",""osversion"":""10"",""a"":true}","9:15:50","1","4","Test_4","74","f","0","755.7999999523163","1536 x 864","1536 x 864","true","1","0","","","","",""
"null","<p style=""font-size: 80px;"">+ 0 points</p>","null","html-keyboard-response","178","740008","0.0-11.0-2.177","603ac173f583af711762bc55","8xzkfm","SNK","22","F","{""name"":""Chrome"",""chrome"":true,""version"":""105.0"",""blink"":true,""windows"":true,""osname"":""Windows"",""osversion"":""10"",""a"":true}","9:15:50","1","4","Test_1","70","j","0","623.5999999046326","1536 x 864","1536 x 864","true","1","0","","","","",""
"null","<p style=""font-size: 80px;"">+ 0 points</p>","null","html-keyboard-response","179","742675","0.0-11.0-2.178","603ac173f583af711762bc55","8xzkfm","SNK","22","F","{""name"":""Chrome"",""chrome"":true,""version"":""105.0"",""blink"":true,""windows"":true,""osname"":""Windows"",""osversion"":""10"",""a"":true}","9:15:50","1","4","Test_3","70","j","0","645.9000000953674","1536 x 864","1536 x 864","true","1","0","","","","",""
"null","<p style=""font-size: 80px;"">+ 0 points</p>","null","html-keyboard-response","180","745236","0.0-11.0-2.179","603ac173f583af711762bc55","8xzkfm","SNK","22","F","{""name"":""Chrome"",""chrome"":true,""version"":""105.0"",""blink"":true,""windows"":true,""osname"":""Windows"",""osversion"":""10"",""a"":true}","9:15:50","1","4","Test_2","74","f","0","542.5999999046326","1536 x 864","1536 x 864","true","1","0","","","","",""
"null","<p style=""font-size: 80px;"">+ 10 points</p>","null","html-keyboard-response","181","747770","0.0-11.0-2.180","603ac173f583af711762bc55","8xzkfm","SNK","22","F","{""name"":""Chrome"",""chrome"":true,""version"":""105.0"",""blink"":true,""windows"":true,""osname"":""Windows"",""osversion"":""10"",""a"":true}","9:15:50","1","4","Test_3","74","j","1","521.7999999523163","1536 x 864","1536 x 864","true","1","10","","","","",""
"null","<p style=""font-size: 80px;"">+ 10 points</p>","null","html-keyboard-response","182","750326","0.0-11.0-2.181","603ac173f583af711762bc55","8xzkfm","SNK","22","F","{""name"":""Chrome"",""chrome"":true,""version"":""105.0"",""blink"":true,""windows"":true,""osname"":""Windows"",""osversion"":""10"",""a"":true}","9:15:50","1","4","Test_3","74","j","1","543.4000000953674","1536 x 864","1536 x 864","true","1","10","","","","",""
"null","<p style=""font-size: 80px;"">+ 0 points</p>","null","html-keyboard-response","183","752853","0.0-11.0-2.182","603ac173f583af711762bc55","8xzkfm","SNK","22","F","{""name"":""Chrome"",""chrome"":true,""version"":""105.0"",""blink"":true,""windows"":true,""osname"":""Windows"",""osversion"":""10"",""a"":true}","9:15:50","1","4","Test_1","70","j","0","514.2999999523163","1536 x 864","1536 x 864","true","1","0","","","","",""
"null","<p style=""font-size: 80px;"">+ 10 points</p>","null","html-keyboard-response","184","755403","0.0-11.0-2.183","603ac173f583af711762bc55","8xzkfm","SNK","22","F","{""name"":""Chrome"",""chrome"":true,""version"":""105.0"",""blink"":true,""windows"":true,""osname"":""Windows"",""osversion"":""10"",""a"":true}","9:15:50","1","4","Test_4","70","f","1","520.1000001430511","1536 x 864","1536 x 864","true","1","10","","","","",""
"null","<p style=""font-size: 80px;"">+ 0 points</p>","null","html-keyboard-response","185","758447","0.0-11.0-2.184","603ac173f583af711762bc55","8xzkfm","SNK","22","F","{""name"":""Chrome"",""chrome"":true,""version"":""105.0"",""blink"":true,""windows"":true,""osname"":""Windows"",""osversion"":""10"",""a"":true}","9:15:50","1","4","Test_4","74","f","0","1022.3999998569489","1536 x 864","1536 x 864","true","1","0","","","","",""
"null","<p style=""font-size: 80px;"">+ 10 points</p>","null","html-keyboard-response","186","761353","0.0-11.0-2.185","603ac173f583af711762bc55","8xzkfm","SNK","22","F","{""name"":""Chrome"",""chrome"":true,""version"":""105.0"",""blink"":true,""windows"":true,""osname"":""Windows"",""osversion"":""10"",""a"":true}","9:15:50","1","4","Test_1","74","j","1","881.4000000953674","1536 x 864","1536 x 864","true","1","10","","","","",""
"null","<p style=""font-size: 80px;"">+ 10 points</p>","null","html-keyboard-response","187","764327","0.0-11.0-2.186","603ac173f583af711762bc55","8xzkfm","SNK","22","F","{""name"":""Chrome"",""chrome"":true,""version"":""105.0"",""blink"":true,""windows"":true,""osname"":""Windows"",""osversion"":""10"",""a"":true}","9:15:50","1","4","Test_2","70","f","1","951.5999999046326","1536 x 864","1536 x 864","true","1","10","","","","",""
"null","<p style=""font-size: 80px;"">+ 0 points</p>","null","html-keyboard-response","188","767088","0.0-11.0-2.187","603ac173f583af711762bc55","8xzkfm","SNK","22","F","{""name"":""Chrome"",""chrome"":true,""version"":""105.0"",""blink"":true,""windows"":true,""osname"":""Windows"",""osversion"":""10"",""a"":true}","9:15:50","1","4","Test_3","70","j","0","749.2999999523163","1536 x 864","1536 x 864","true","1","0","","","","",""
