"rt","stimulus","key_press","trial_type","trial_index","time_elapsed","internal_node_id","Prolific_ID","random_ID","initials","age","gender","pc_info","start_time","Phase","Rule","Stimulus","Response","CorrResp","Accuracy","ResponseTime","screen_resolution","window_resolution","focus","relevant","Points","responses","question_order","rev_check","butterfly_check","passed_practice"
"null","<p style=""font-size: 80px;"">+ 0 points</p>","null","html-keyboard-response","1","69187","0.0-7.0-2.0","5f68c08cf9c15f0333c6d281","m7g001","LS","27","F","{""name"":""Chrome"",""chrome"":true,""version"":""106.0"",""blink"":true,""windows"":true,""osname"":""Windows"",""osversion"":""10"",""a"":true}","9:18:3","0","1","Practice_4","70","j","0","715.5","1536 x 864","1536 x 864","true","1","0","","","","",""
"null","<p style=""font-size: 80px;"">+ 0 points</p>","null","html-keyboard-response","2","71885","0.0-7.0-2.1","5f68c08cf9c15f0333c6d281","m7g001","LS","27","F","{""name"":""Chrome"",""chrome"":true,""version"":""106.0"",""blink"":true,""windows"":true,""osname"":""Windows"",""osversion"":""10"",""a"":true}","9:18:3","0","1","Practice_1","74","f","0","677.8999999910593","1536 x 864","1536 x 864","true","1","0","","","","",""
"null","<p style=""font-size: 80px;"">+ 0 points</p>","null","html-keyboard-response","3","74683","0.0-7.0-2.2","5f68c08cf9c15f0333c6d281","m7g001","LS","27","F","{""name"":""Chrome"",""chrome"":true,""version"":""106.0"",""blink"":true,""windows"":true,""osname"":""Windows"",""osversion"":""10"",""a"":true}","9:18:3","0","1","Practice_2","70","j","0","786.1999999880791","1536 x 864","1536 x 864","true","1","0","","","","",""
"null","<p style=""font-size: 80px;"">+ 10 points</p>","null","html-keyboard-response","4","77441","0.0-7.0-2.3","5f68c08cf9c15f0333c6d281","m7g001","LS","27","F","{""name"":""Chrome"",""chrome"":true,""version"":""106.0"",""blink"":true,""windows"":true,""osname"":""Windows"",""osversion"":""10"",""a"":true}","9:18:3","0","1","Practice_2","74","j","1","733.3000000119209","1536 x 864","1536 x 864","true","1","10","","","","",""
"null","<p style=""font-size: 80px;"">+ 10 points</p>","null","html-keyboard-response","5","80508","0.0-7.0-2.4","5f68c08cf9c15f0333c6d281","m7g001","LS","27","F","{""name"":""Chrome"",""chrome"":true,""version"":""106.0"",""blink"":true,""windows"":true,""osname"":""Windows"",""osversion"":""10"",""a"":true}","9:18:3","0","1","Practice_3","70","f","1","1052.2999999970198","1536 x 864","1536 x 864","true","1","10","","","","",""
"null","<p style=""font-size: 80px;"">+ 10 points</p>","null","html-keyboard-response","6","83471","0.0-7.0-2.5","5f68c08cf9c15f0333c6d281","m7g001","LS","27","F","{""name"":""Chrome"",""chrome"":true,""version"":""106.0"",""blink"":true,""windows"":true,""osname"":""Windows"",""osversion"":""10"",""a"":true}","9:18:3","0","1","Practice_2","74","j","1","940.7000000029802","1536 x 864","1536 x 864","true","1","10","","","","",""
"null","<p style=""font-size: 80px;"">+ 10 points</p>","null","html-keyboard-response","7","86168","0.0-7.0-2.6","5f68c08cf9c15f0333c6d281","m7g001","LS","27","F","{""name"":""Chrome"",""chrome"":true,""version"":""106.0"",""blink"":true,""windows"":true,""osname"":""Windows"",""osversion"":""10"",""a"":true}","9:18:3","0","1","Practice_2","74","j","1","685.5","1536 x 864","1536 x 864","true","1","10","","","","",""
"null","<p style=""font-size: 80px;"">+ 10 points</p>","null","html-keyboard-response","8","88753","0.0-7.0-2.7","5f68c08cf9c15f0333c6d281","m7g001","LS","27","F","{""name"":""Chrome"",""chrome"":true,""version"":""106.0"",""blink"":true,""windows"":true,""osname"":""Windows"",""osversion"":""10"",""a"":true}","9:18:3","0","1","Practice_1","70","f","1","563.6000000089407","1536 x 864","1536 x 864","true","1","10","","","","",""
"null","<p style=""font-size: 80px;"">+ 10 points</p>","null","html-keyboard-response","9","91935","0.0-7.0-2.8","5f68c08cf9c15f0333c6d281","m7g001","LS","27","F","{""name"":""Chrome"",""chrome"":true,""version"":""106.0"",""blink"":true,""windows"":true,""osname"":""Windows"",""osversion"":""10"",""a"":true}","9:18:3","0","1","Practice_3","70","f","1","1163.5","1536 x 864","1536 x 864","true","1","10","","","","",""
"null","<p style=""font-size: 80px;"">+ 10 points</p>","null","html-keyboard-response","10","94477","0.0-7.0-2.9","5f68c08cf9c15f0333c6d281","m7g001","LS","27","F","{""name"":""Chrome"",""chrome"":true,""version"":""106.0"",""blink"":true,""windows"":true,""osname"":""Windows"",""osversion"":""10"",""a"":true}","9:18:3","0","1","Practice_1","70","f","1","525.7999999970198","1536 x 864","1536 x 864","true","1","10","","","","",""
"null","<p style=""font-size: 80px;"">+ 10 points</p>","null","html-keyboard-response","11","97117","0.0-7.0-2.10","5f68c08cf9c15f0333c6d281","m7g001","LS","27","F","{""name"":""Chrome"",""chrome"":true,""version"":""106.0"",""blink"":true,""windows"":true,""osname"":""Windows"",""osversion"":""10"",""a"":true}","9:18:3","0","1","Practice_4","74","j","1","617.6000000089407","1536 x 864","1536 x 864","true","1","10","","","","",""
"null","<p style=""font-size: 80px;"">+ 10 points</p>","null","html-keyboard-response","12","99718","0.0-7.0-2.11","5f68c08cf9c15f0333c6d281","m7g001","LS","27","F","{""name"":""Chrome"",""chrome"":true,""version"":""106.0"",""blink"":true,""windows"":true,""osname"":""Windows"",""osversion"":""10"",""a"":true}","9:18:3","0","1","Practice_1","70","f","1","586.2999999970198","1536 x 864","1536 x 864","true","1","10","","","","",""
"null","<p style=""font-size: 80px;"">+ 10 points</p>","null","html-keyboard-response","13","102555","0.0-7.0-2.12","5f68c08cf9c15f0333c6d281","m7g001","LS","27","F","{""name"":""Chrome"",""chrome"":true,""version"":""106.0"",""blink"":true,""windows"":true,""osname"":""Windows"",""osversion"":""10"",""a"":true}","9:18:3","0","1","Practice_3","70","f","1","822.1000000089407","1536 x 864","1536 x 864","true","1","10","","","","",""
"null","<p style=""font-size: 80px;"">+ 10 points</p>","null","html-keyboard-response","14","104980","0.0-7.0-2.13","5f68c08cf9c15f0333c6d281","m7g001","LS","27","F","{""name"":""Chrome"",""chrome"":true,""version"":""106.0"",""blink"":true,""windows"":true,""osname"":""Windows"",""osversion"":""10"",""a"":true}","9:18:3","0","1","Practice_3","70","f","1","408.90000000596046","1536 x 864","1536 x 864","true","1","10","","","","",""
"null","<p style=""font-size: 80px;"">+ 10 points</p>","null","html-keyboard-response","15","107779","0.0-7.0-2.14","5f68c08cf9c15f0333c6d281","m7g001","LS","27","F","{""name"":""Chrome"",""chrome"":true,""version"":""106.0"",""blink"":true,""windows"":true,""osname"":""Windows"",""osversion"":""10"",""a"":true}","9:18:3","0","1","Practice_3","70","f","1","776.9000000059605","1536 x 864","1536 x 864","true","1","10","","","","",""
"null","<p style=""font-size: 80px;"">+ 10 points</p>","null","html-keyboard-response","16","110262","0.0-7.0-2.15","5f68c08cf9c15f0333c6d281","m7g001","LS","27","F","{""name"":""Chrome"",""chrome"":true,""version"":""106.0"",""blink"":true,""windows"":true,""osname"":""Windows"",""osversion"":""10"",""a"":true}","9:18:3","0","1","Practice_4","74","j","1","470.40000000596046","1536 x 864","1536 x 864","true","1","10","","","","",""
"null","<p style=""font-size: 80px;"">+ 10 points</p>","null","html-keyboard-response","17","112787","0.0-7.0-2.16","5f68c08cf9c15f0333c6d281","m7g001","LS","27","F","{""name"":""Chrome"",""chrome"":true,""version"":""106.0"",""blink"":true,""windows"":true,""osname"":""Windows"",""osversion"":""10"",""a"":true}","9:18:3","0","1","Practice_4","74","j","1","510.70000000298023","1536 x 864","1536 x 864","true","1","10","","","","",""
"null","<p style=""font-size: 80px;"">+ 10 points</p>","null","html-keyboard-response","18","115376","0.0-7.0-2.17","5f68c08cf9c15f0333c6d281","m7g001","LS","27","F","{""name"":""Chrome"",""chrome"":true,""version"":""106.0"",""blink"":true,""windows"":true,""osname"":""Windows"",""osversion"":""10"",""a"":true}","9:18:3","0","1","Practice_2","74","j","1","571.5","1536 x 864","1536 x 864","true","1","10","","","","",""
"null","<p style=""font-size: 80px;"">+ 10 points</p>","null","html-keyboard-response","19","117905","0.0-7.0-2.18","5f68c08cf9c15f0333c6d281","m7g001","LS","27","F","{""name"":""Chrome"",""chrome"":true,""version"":""106.0"",""blink"":true,""windows"":true,""osname"":""Windows"",""osversion"":""10"",""a"":true}","9:18:3","0","1","Practice_1","70","f","1","484.3999999910593","1536 x 864","1536 x 864","true","1","10","","","","",""
"null","<p style=""font-size: 80px;"">+ 0 points</p>","null","html-keyboard-response","20","120672","0.0-7.0-2.19","5f68c08cf9c15f0333c6d281","m7g001","LS","27","F","{""name"":""Chrome"",""chrome"":true,""version"":""106.0"",""blink"":true,""windows"":true,""osname"":""Windows"",""osversion"":""10"",""a"":true}","9:18:3","0","1","Practice_4","70","j","0","753.3999999910593","1536 x 864","1536 x 864","true","1","0","","","","",""
"null","<p style=""font-size: 80px;"">+ 0 points</p>","null","html-keyboard-response","21","123229","0.0-7.0-2.20","5f68c08cf9c15f0333c6d281","m7g001","LS","27","F","{""name"":""Chrome"",""chrome"":true,""version"":""106.0"",""blink"":true,""windows"":true,""osname"":""Windows"",""osversion"":""10"",""a"":true}","9:18:3","0","2","Practice_4","74","f","0","535.2999999970198","1536 x 864","1536 x 864","true","1","0","","","","",""
"null","<p style=""font-size: 80px;"">+ 0 points</p>","null","html-keyboard-response","22","125874","0.0-7.0-2.21","5f68c08cf9c15f0333c6d281","m7g001","LS","27","F","{""name"":""Chrome"",""chrome"":true,""version"":""106.0"",""blink"":true,""windows"":true,""osname"":""Windows"",""osversion"":""10"",""a"":true}","9:18:3","0","2","Practice_2","74","f","0","634.2000000029802","1536 x 864","1536 x 864","true","1","0","","","","",""
"null","<p style=""font-size: 80px;"">+ 10 points</p>","null","html-keyboard-response","23","128878","0.0-7.0-2.22","5f68c08cf9c15f0333c6d281","m7g001","LS","27","F","{""name"":""Chrome"",""chrome"":true,""version"":""106.0"",""blink"":true,""windows"":true,""osname"":""Windows"",""osversion"":""10"",""a"":true}","9:18:3","0","2","Practice_3","74","j","1","989.7999999970198","1536 x 864","1536 x 864","true","1","10","","","","",""
"null","<p style=""font-size: 80px;"">+ 10 points</p>","null","html-keyboard-response","24","131991","0.0-7.0-2.23","5f68c08cf9c15f0333c6d281","m7g001","LS","27","F","{""name"":""Chrome"",""chrome"":true,""version"":""106.0"",""blink"":true,""windows"":true,""osname"":""Windows"",""osversion"":""10"",""a"":true}","9:18:3","0","2","Practice_2","70","f","1","1088.2999999970198","1536 x 864","1536 x 864","true","1","10","","","","",""
"null","<p style=""font-size: 80px;"">+ 10 points</p>","null","html-keyboard-response","25","134972","0.0-7.0-2.24","5f68c08cf9c15f0333c6d281","m7g001","LS","27","F","{""name"":""Chrome"",""chrome"":true,""version"":""106.0"",""blink"":true,""windows"":true,""osname"":""Windows"",""osversion"":""10"",""a"":true}","9:18:3","0","2","Practice_3","74","j","1","968.6000000089407","1536 x 864","1536 x 864","true","1","10","","","","",""
"null","<p style=""font-size: 80px;"">+ 0 points</p>","null","html-keyboard-response","26","137688","0.0-7.0-2.25","5f68c08cf9c15f0333c6d281","m7g001","LS","27","F","{""name"":""Chrome"",""chrome"":true,""version"":""106.0"",""blink"":true,""windows"":true,""osname"":""Windows"",""osversion"":""10"",""a"":true}","9:18:3","0","2","Practice_3","70","j","0","700.4000000059605","1536 x 864","1536 x 864","true","1","0","","","","",""
"null","<p style=""font-size: 80px;"">+ 10 points</p>","null","html-keyboard-response","27","140571","0.0-7.0-2.26","5f68c08cf9c15f0333c6d281","m7g001","LS","27","F","{""name"":""Chrome"",""chrome"":true,""version"":""106.0"",""blink"":true,""windows"":true,""osname"":""Windows"",""osversion"":""10"",""a"":true}","9:18:3","0","2","Practice_1","74","j","1","872","1536 x 864","1536 x 864","true","1","10","","","","",""
"null","<p style=""font-size: 80px;"">+ 10 points</p>","null","html-keyboard-response","28","143417","0.0-7.0-2.27","5f68c08cf9c15f0333c6d281","m7g001","LS","27","F","{""name"":""Chrome"",""chrome"":true,""version"":""106.0"",""blink"":true,""windows"":true,""osname"":""Windows"",""osversion"":""10"",""a"":true}","9:18:3","0","2","Practice_1","74","j","1","825.7000000029802","1536 x 864","1536 x 864","true","1","10","","","","",""
"null","<p style=""font-size: 80px;"">+ 10 points</p>","null","html-keyboard-response","29","146372","0.0-7.0-2.28","5f68c08cf9c15f0333c6d281","m7g001","LS","27","F","{""name"":""Chrome"",""chrome"":true,""version"":""106.0"",""blink"":true,""windows"":true,""osname"":""Windows"",""osversion"":""10"",""a"":true}","9:18:3","0","2","Practice_2","70","f","1","933.9000000059605","1536 x 864","1536 x 864","true","1","10","","","","",""
"null","<p style=""font-size: 80px;"">+ 10 points</p>","null","html-keyboard-response","30","149149","0.0-7.0-2.29","5f68c08cf9c15f0333c6d281","m7g001","LS","27","F","{""name"":""Chrome"",""chrome"":true,""version"":""106.0"",""blink"":true,""windows"":true,""osname"":""Windows"",""osversion"":""10"",""a"":true}","9:18:3","0","2","Practice_3","74","j","1","753.6000000089407","1536 x 864","1536 x 864","true","1","10","","","","",""
"null","<p style=""font-size: 80px;"">+ 10 points</p>","null","html-keyboard-response","31","152032","0.0-7.0-2.30","5f68c08cf9c15f0333c6d281","m7g001","LS","27","F","{""name"":""Chrome"",""chrome"":true,""version"":""106.0"",""blink"":true,""windows"":true,""osname"":""Windows"",""osversion"":""10"",""a"":true}","9:18:3","0","2","Practice_1","74","j","1","866.7999999970198","1536 x 864","1536 x 864","true","1","10","","","","",""
"null","<p style=""font-size: 80px;"">+ 10 points</p>","null","html-keyboard-response","32","154976","0.0-7.0-2.31","5f68c08cf9c15f0333c6d281","m7g001","LS","27","F","{""name"":""Chrome"",""chrome"":true,""version"":""106.0"",""blink"":true,""windows"":true,""osname"":""Windows"",""osversion"":""10"",""a"":true}","9:18:3","0","2","Practice_4","70","f","1","934.8999999910593","1536 x 864","1536 x 864","true","1","10","","","","",""
"null","<p style=""font-size: 80px;"">+ 10 points</p>","null","html-keyboard-response","33","157758","0.0-7.0-2.32","5f68c08cf9c15f0333c6d281","m7g001","LS","27","F","{""name"":""Chrome"",""chrome"":true,""version"":""106.0"",""blink"":true,""windows"":true,""osname"":""Windows"",""osversion"":""10"",""a"":true}","9:18:3","0","2","Practice_3","74","j","1","761.2000000029802","1536 x 864","1536 x 864","true","1","10","","","","",""
"null","<p style=""font-size: 80px;"">+ 10 points</p>","null","html-keyboard-response","34","160690","0.0-7.0-2.33","5f68c08cf9c15f0333c6d281","m7g001","LS","27","F","{""name"":""Chrome"",""chrome"":true,""version"":""106.0"",""blink"":true,""windows"":true,""osname"":""Windows"",""osversion"":""10"",""a"":true}","9:18:3","0","2","Practice_4","70","f","1","918.7000000029802","1536 x 864","1536 x 864","true","1","10","","","","",""
"null","<p style=""font-size: 80px;"">+ 10 points</p>","null","html-keyboard-response","35","163635","0.0-7.0-2.34","5f68c08cf9c15f0333c6d281","m7g001","LS","27","F","{""name"":""Chrome"",""chrome"":true,""version"":""106.0"",""blink"":true,""windows"":true,""osname"":""Windows"",""osversion"":""10"",""a"":true}","9:18:3","0","2","Practice_1","74","j","1","920.7999999970198","1536 x 864","1536 x 864","true","1","10","","","","",""
"null","<p style=""font-size: 80px;"">+ 10 points</p>","null","html-keyboard-response","36","166407","0.0-7.0-2.35","5f68c08cf9c15f0333c6d281","m7g001","LS","27","F","{""name"":""Chrome"",""chrome"":true,""version"":""106.0"",""blink"":true,""windows"":true,""osname"":""Windows"",""osversion"":""10"",""a"":true}","9:18:3","0","2","Practice_1","74","j","1","758.7000000029802","1536 x 864","1536 x 864","true","1","10","","","","",""
"null","<p style=""font-size: 80px;"">+ 10 points</p>","null","html-keyboard-response","37","168937","0.0-7.0-2.36","5f68c08cf9c15f0333c6d281","m7g001","LS","27","F","{""name"":""Chrome"",""chrome"":true,""version"":""106.0"",""blink"":true,""windows"":true,""osname"":""Windows"",""osversion"":""10"",""a"":true}","9:18:3","0","2","Practice_2","70","f","1","516.7000000029802","1536 x 864","1536 x 864","true","1","10","","","","",""
"null","<p style=""font-size: 80px;"">+ 10 points</p>","null","html-keyboard-response","38","171936","0.0-7.0-2.37","5f68c08cf9c15f0333c6d281","m7g001","LS","27","F","{""name"":""Chrome"",""chrome"":true,""version"":""106.0"",""blink"":true,""windows"":true,""osname"":""Windows"",""osversion"":""10"",""a"":true}","9:18:3","0","2","Practice_4","70","f","1","979.5","1536 x 864","1536 x 864","true","1","10","","","","",""
"null","<p style=""font-size: 80px;"">+ 0 points</p>","null","html-keyboard-response","39","177931","0.0-7.0-2.38","5f68c08cf9c15f0333c6d281","m7g001","LS","27","F","{""name"":""Chrome"",""chrome"":true,""version"":""106.0"",""blink"":true,""windows"":true,""osname"":""Windows"",""osversion"":""10"",""a"":true}","9:18:3","0","2","Practice_4","74","f","0","3980.0999999940395","1536 x 864","1536 x 864","true","1","0","","","","",""
"null","<p style=""font-size: 80px;"">+ 10 points</p>","null","html-keyboard-response","40","180544","0.0-7.0-2.39","5f68c08cf9c15f0333c6d281","m7g001","LS","27","F","{""name"":""Chrome"",""chrome"":true,""version"":""106.0"",""blink"":true,""windows"":true,""osname"":""Windows"",""osversion"":""10"",""a"":true}","9:18:3","0","2","Practice_2","70","f","1","600.4000000059605","1536 x 864","1536 x 864","true","1","10","","","","",""
"7892.0999999940395","","","survey-multi-choice","127","188438","0.0-8.0","5f68c08cf9c15f0333c6d281","m7g001","LS","27","F","{""name"":""Chrome"",""chrome"":true,""version"":""106.0"",""blink"":true,""windows"":true,""osname"":""Windows"",""osversion"":""10"",""a"":true}","9:18:3","","","","","","","","","","","1","","{""Q0"":""The red one"",""Q1"":""1""}","[0,1]","1","The red one","2"
"null","<p style=""font-size: 80px;"">+ 10 points</p>","null","html-keyboard-response","1","204903","0.0-11.0-2.0","5f68c08cf9c15f0333c6d281","m7g001","LS","27","F","{""name"":""Chrome"",""chrome"":true,""version"":""106.0"",""blink"":true,""windows"":true,""osname"":""Windows"",""osversion"":""10"",""a"":true}","9:18:3","1","3","Test_3","70","f","1","900.2999999970198","1536 x 864","1536 x 864","true","1","10","","","","",""
"null","<p style=""font-size: 80px;"">+ 10 points</p>","null","html-keyboard-response","2","207657","0.0-11.0-2.1","5f68c08cf9c15f0333c6d281","m7g001","LS","27","F","{""name"":""Chrome"",""chrome"":true,""version"":""106.0"",""blink"":true,""windows"":true,""osname"":""Windows"",""osversion"":""10"",""a"":true}","9:18:3","1","3","Test_4","74","j","1","738.1000000089407","1536 x 864","1536 x 864","true","1","10","","","","",""
"null","<p style=""font-size: 80px;"">+ 10 points</p>","null","html-keyboard-response","3","211053","0.0-11.0-2.2","5f68c08cf9c15f0333c6d281","m7g001","LS","27","F","{""name"":""Chrome"",""chrome"":true,""version"":""106.0"",""blink"":true,""windows"":true,""osname"":""Windows"",""osversion"":""10"",""a"":true}","9:18:3","1","3","Test_2","74","j","1","1372.2000000029802","1536 x 864","1536 x 864","true","1","10","","","","",""
"null","<p style=""font-size: 80px;"">+ 10 points</p>","null","html-keyboard-response","4","214301","0.0-11.0-2.3","5f68c08cf9c15f0333c6d281","m7g001","LS","27","F","{""name"":""Chrome"",""chrome"":true,""version"":""106.0"",""blink"":true,""windows"":true,""osname"":""Windows"",""osversion"":""10"",""a"":true}","9:18:3","1","3","Test_3","70","f","1","1226","1536 x 864","1536 x 864","true","1","10","","","","",""
"null","<p style=""font-size: 80px;"">+ 10 points</p>","null","html-keyboard-response","5","217010","0.0-11.0-2.4","5f68c08cf9c15f0333c6d281","m7g001","LS","27","F","{""name"":""Chrome"",""chrome"":true,""version"":""106.0"",""blink"":true,""windows"":true,""osname"":""Windows"",""osversion"":""10"",""a"":true}","9:18:3","1","3","Test_4","74","j","1","686.2000000029802","1536 x 864","1536 x 864","true","1","10","","","","",""
"null","<p style=""font-size: 80px;"">+ 10 points</p>","null","html-keyboard-response","6","220150","0.0-11.0-2.5","5f68c08cf9c15f0333c6d281","m7g001","LS","27","F","{""name"":""Chrome"",""chrome"":true,""version"":""106.0"",""blink"":true,""windows"":true,""osname"":""Windows"",""osversion"":""10"",""a"":true}","9:18:3","1","3","Test_1","70","f","1","1109.7999999970198","1536 x 864","1536 x 864","true","1","10","","","","",""
"null","<p style=""font-size: 80px;"">+ 10 points</p>","null","html-keyboard-response","7","223056","0.0-11.0-2.6","5f68c08cf9c15f0333c6d281","m7g001","LS","27","F","{""name"":""Chrome"",""chrome"":true,""version"":""106.0"",""blink"":true,""windows"":true,""osname"":""Windows"",""osversion"":""10"",""a"":true}","9:18:3","1","3","Test_4","74","j","1","888.0999999940395","1536 x 864","1536 x 864","true","1","10","","","","",""
"null","<p style=""font-size: 80px;"">+ 10 points</p>","null","html-keyboard-response","8","225637","0.0-11.0-2.7","5f68c08cf9c15f0333c6d281","m7g001","LS","27","F","{""name"":""Chrome"",""chrome"":true,""version"":""106.0"",""blink"":true,""windows"":true,""osname"":""Windows"",""osversion"":""10"",""a"":true}","9:18:3","1","3","Test_4","74","j","1","554.9000000059605","1536 x 864","1536 x 864","true","1","10","","","","",""
"null","<p style=""font-size: 80px;"">+ 10 points</p>","null","html-keyboard-response","9","228365","0.0-11.0-2.8","5f68c08cf9c15f0333c6d281","m7g001","LS","27","F","{""name"":""Chrome"",""chrome"":true,""version"":""106.0"",""blink"":true,""windows"":true,""osname"":""Windows"",""osversion"":""10"",""a"":true}","9:18:3","1","3","Test_3","70","f","1","707.1999999880791","1536 x 864","1536 x 864","true","1","10","","","","",""
"null","<p style=""font-size: 80px;"">+ 10 points</p>","null","html-keyboard-response","10","231419","0.0-11.0-2.9","5f68c08cf9c15f0333c6d281","m7g001","LS","27","F","{""name"":""Chrome"",""chrome"":true,""version"":""106.0"",""blink"":true,""windows"":true,""osname"":""Windows"",""osversion"":""10"",""a"":true}","9:18:3","1","3","Test_2","74","j","1","1041","1536 x 864","1536 x 864","true","1","10","","","","",""
"null","<p style=""font-size: 80px;"">+ 10 points</p>","null","html-keyboard-response","11","233984","0.0-11.0-2.10","5f68c08cf9c15f0333c6d281","m7g001","LS","27","F","{""name"":""Chrome"",""chrome"":true,""version"":""106.0"",""blink"":true,""windows"":true,""osname"":""Windows"",""osversion"":""10"",""a"":true}","9:18:3","1","3","Test_2","74","j","1","540.2000000029802","1536 x 864","1536 x 864","true","1","10","","","","",""
"null","<p style=""font-size: 80px;"">+ 10 points</p>","null","html-keyboard-response","12","236538","0.0-11.0-2.11","5f68c08cf9c15f0333c6d281","m7g001","LS","27","F","{""name"":""Chrome"",""chrome"":true,""version"":""106.0"",""blink"":true,""windows"":true,""osname"":""Windows"",""osversion"":""10"",""a"":true}","9:18:3","1","3","Test_1","70","f","1","531.2000000029802","1536 x 864","1536 x 864","true","1","10","","","","",""
"null","<p style=""font-size: 80px;"">+ 10 points</p>","null","html-keyboard-response","13","239247","0.0-11.0-2.12","5f68c08cf9c15f0333c6d281","m7g001","LS","27","F","{""name"":""Chrome"",""chrome"":true,""version"":""106.0"",""blink"":true,""windows"":true,""osname"":""Windows"",""osversion"":""10"",""a"":true}","9:18:3","1","3","Test_1","70","f","1","689.5","1536 x 864","1536 x 864","true","1","10","","","","",""
"null","<p style=""font-size: 80px;"">+ 10 points</p>","null","html-keyboard-response","14","241877","0.0-11.0-2.13","5f68c08cf9c15f0333c6d281","m7g001","LS","27","F","{""name"":""Chrome"",""chrome"":true,""version"":""106.0"",""blink"":true,""windows"":true,""osname"":""Windows"",""osversion"":""10"",""a"":true}","9:18:3","1","3","Test_1","70","f","1","611.4000000059605","1536 x 864","1536 x 864","true","1","10","","","","",""
"null","<p style=""font-size: 80px;"">+ 10 points</p>","null","html-keyboard-response","15","244268","0.0-11.0-2.14","5f68c08cf9c15f0333c6d281","m7g001","LS","27","F","{""name"":""Chrome"",""chrome"":true,""version"":""106.0"",""blink"":true,""windows"":true,""osname"":""Windows"",""osversion"":""10"",""a"":true}","9:18:3","1","3","Test_2","74","j","1","361.5","1536 x 864","1536 x 864","true","1","10","","","","",""
"null","<p style=""font-size: 80px;"">+ 10 points</p>","null","html-keyboard-response","16","246844","0.0-11.0-2.15","5f68c08cf9c15f0333c6d281","m7g001","LS","27","F","{""name"":""Chrome"",""chrome"":true,""version"":""106.0"",""blink"":true,""windows"":true,""osname"":""Windows"",""osversion"":""10"",""a"":true}","9:18:3","1","3","Test_2","74","j","1","556","1536 x 864","1536 x 864","true","1","10","","","","",""
"null","<p style=""font-size: 80px;"">+ 10 points</p>","null","html-keyboard-response","17","249650","0.0-11.0-2.16","5f68c08cf9c15f0333c6d281","m7g001","LS","27","F","{""name"":""Chrome"",""chrome"":true,""version"":""106.0"",""blink"":true,""windows"":true,""osname"":""Windows"",""osversion"":""10"",""a"":true}","9:18:3","1","3","Test_3","70","f","1","787.5","1536 x 864","1536 x 864","true","1","10","","","","",""
"null","<p style=""font-size: 80px;"">+ 10 points</p>","null","html-keyboard-response","18","252244","0.0-11.0-2.17","5f68c08cf9c15f0333c6d281","m7g001","LS","27","F","{""name"":""Chrome"",""chrome"":true,""version"":""106.0"",""blink"":true,""windows"":true,""osname"":""Windows"",""osversion"":""10"",""a"":true}","9:18:3","1","3","Test_4","74","j","1","589","1536 x 864","1536 x 864","true","1","10","","","","",""
"null","<p style=""font-size: 80px;"">+ 10 points</p>","null","html-keyboard-response","19","254902","0.0-11.0-2.18","5f68c08cf9c15f0333c6d281","m7g001","LS","27","F","{""name"":""Chrome"",""chrome"":true,""version"":""106.0"",""blink"":true,""windows"":true,""osname"":""Windows"",""osversion"":""10"",""a"":true}","9:18:3","1","3","Test_3","70","f","1","636.2999999970198","1536 x 864","1536 x 864","true","1","10","","","","",""
"null","<p style=""font-size: 80px;"">+ 10 points</p>","null","html-keyboard-response","20","257639","0.0-11.0-2.19","5f68c08cf9c15f0333c6d281","m7g001","LS","27","F","{""name"":""Chrome"",""chrome"":true,""version"":""106.0"",""blink"":true,""windows"":true,""osname"":""Windows"",""osversion"":""10"",""a"":true}","9:18:3","1","3","Test_1","70","f","1","720.9000000059605","1536 x 864","1536 x 864","true","1","10","","","","",""
"null","<p style=""font-size: 80px;"">+ 10 points</p>","null","html-keyboard-response","21","260278","0.0-11.0-2.20","5f68c08cf9c15f0333c6d281","m7g001","LS","27","F","{""name"":""Chrome"",""chrome"":true,""version"":""106.0"",""blink"":true,""windows"":true,""osname"":""Windows"",""osversion"":""10"",""a"":true}","9:18:3","1","3","Test_2","74","j","1","619.2000000029802","1536 x 864","1536 x 864","true","1","10","","","","",""
"null","<p style=""font-size: 80px;"">+ 10 points</p>","null","html-keyboard-response","22","262865","0.0-11.0-2.21","5f68c08cf9c15f0333c6d281","m7g001","LS","27","F","{""name"":""Chrome"",""chrome"":true,""version"":""106.0"",""blink"":true,""windows"":true,""osname"":""Windows"",""osversion"":""10"",""a"":true}","9:18:3","1","3","Test_4","74","j","1","570.5","1536 x 864","1536 x 864","true","1","10","","","","",""
"null","<p style=""font-size: 80px;"">+ 0 points</p>","null","html-keyboard-response","23","265566","0.0-11.0-2.22","5f68c08cf9c15f0333c6d281","m7g001","LS","27","F","{""name"":""Chrome"",""chrome"":true,""version"":""106.0"",""blink"":true,""windows"":true,""osname"":""Windows"",""osversion"":""10"",""a"":true}","9:18:3","1","4","Test_4","74","f","0","685.4000000059605","1536 x 864","1536 x 864","true","1","0","","","","",""
"null","<p style=""font-size: 80px;"">+ 10 points</p>","null","html-keyboard-response","24","268472","0.0-11.0-2.23","5f68c08cf9c15f0333c6d281","m7g001","LS","27","F","{""name"":""Chrome"",""chrome"":true,""version"":""106.0"",""blink"":true,""windows"":true,""osname"":""Windows"",""osversion"":""10"",""a"":true}","9:18:3","1","4","Test_1","74","j","1","889.2999999970198","1536 x 864","1536 x 864","true","1","10","","","","",""
"null","<p style=""font-size: 80px;"">+ 10 points</p>","null","html-keyboard-response","25","271182","0.0-11.0-2.24","5f68c08cf9c15f0333c6d281","m7g001","LS","27","F","{""name"":""Chrome"",""chrome"":true,""version"":""106.0"",""blink"":true,""windows"":true,""osname"":""Windows"",""osversion"":""10"",""a"":true}","9:18:3","1","4","Test_2","70","f","1","683.9000000059605","1536 x 864","1536 x 864","true","1","10","","","","",""
"null","<p style=""font-size: 80px;"">+ 10 points</p>","null","html-keyboard-response","26","273814","0.0-11.0-2.25","5f68c08cf9c15f0333c6d281","m7g001","LS","27","F","{""name"":""Chrome"",""chrome"":true,""version"":""106.0"",""blink"":true,""windows"":true,""osname"":""Windows"",""osversion"":""10"",""a"":true}","9:18:3","1","4","Test_4","70","f","1","616","1536 x 864","1536 x 864","true","1","10","","","","",""
"null","<p style=""font-size: 80px;"">+ 10 points</p>","null","html-keyboard-response","27","277554","0.0-11.0-2.26","5f68c08cf9c15f0333c6d281","m7g001","LS","27","F","{""name"":""Chrome"",""chrome"":true,""version"":""106.0"",""blink"":true,""windows"":true,""osname"":""Windows"",""osversion"":""10"",""a"":true}","9:18:3","1","4","Test_2","70","f","1","1719.5999999940395","1536 x 864","1536 x 864","true","1","10","","","","",""
"null","<p style=""font-size: 80px;"">+ 10 points</p>","null","html-keyboard-response","28","280448","0.0-11.0-2.27","5f68c08cf9c15f0333c6d281","m7g001","LS","27","F","{""name"":""Chrome"",""chrome"":true,""version"":""106.0"",""blink"":true,""windows"":true,""osname"":""Windows"",""osversion"":""10"",""a"":true}","9:18:3","1","4","Test_1","74","j","1","871.5999999940395","1536 x 864","1536 x 864","true","1","10","","","","",""
"null","<p style=""font-size: 80px;"">+ 10 points</p>","null","html-keyboard-response","29","283329","0.0-11.0-2.28","5f68c08cf9c15f0333c6d281","m7g001","LS","27","F","{""name"":""Chrome"",""chrome"":true,""version"":""106.0"",""blink"":true,""windows"":true,""osname"":""Windows"",""osversion"":""10"",""a"":true}","9:18:3","1","4","Test_1","74","j","1","865.9000000059605","1536 x 864","1536 x 864","true","1","10","","","","",""
"null","<p style=""font-size: 80px;"">+ 10 points</p>","null","html-keyboard-response","30","286288","0.0-11.0-2.29","5f68c08cf9c15f0333c6d281","m7g001","LS","27","F","{""name"":""Chrome"",""chrome"":true,""version"":""106.0"",""blink"":true,""windows"":true,""osname"":""Windows"",""osversion"":""10"",""a"":true}","9:18:3","1","4","Test_2","70","f","1","938.0999999940395","1536 x 864","1536 x 864","true","1","10","","","","",""
"null","<p style=""font-size: 80px;"">+ 10 points</p>","null","html-keyboard-response","31","289864","0.0-11.0-2.30","5f68c08cf9c15f0333c6d281","m7g001","LS","27","F","{""name"":""Chrome"",""chrome"":true,""version"":""106.0"",""blink"":true,""windows"":true,""osname"":""Windows"",""osversion"":""10"",""a"":true}","9:18:3","1","4","Test_3","74","j","1","1547.6000000089407","1536 x 864","1536 x 864","true","1","10","","","","",""
"null","<p style=""font-size: 80px;"">+ 10 points</p>","null","html-keyboard-response","32","292753","0.0-11.0-2.31","5f68c08cf9c15f0333c6d281","m7g001","LS","27","F","{""name"":""Chrome"",""chrome"":true,""version"":""106.0"",""blink"":true,""windows"":true,""osname"":""Windows"",""osversion"":""10"",""a"":true}","9:18:3","1","4","Test_2","70","f","1","860.1999999880791","1536 x 864","1536 x 864","true","1","10","","","","",""
"null","<p style=""font-size: 80px;"">+ 10 points</p>","null","html-keyboard-response","33","295483","0.0-11.0-2.32","5f68c08cf9c15f0333c6d281","m7g001","LS","27","F","{""name"":""Chrome"",""chrome"":true,""version"":""106.0"",""blink"":true,""windows"":true,""osname"":""Windows"",""osversion"":""10"",""a"":true}","9:18:3","1","4","Test_4","70","f","1","711","1536 x 864","1536 x 864","true","1","10","","","","",""
"null","<p style=""font-size: 80px;"">+ 10 points</p>","null","html-keyboard-response","34","299072","0.0-11.0-2.33","5f68c08cf9c15f0333c6d281","m7g001","LS","27","F","{""name"":""Chrome"",""chrome"":true,""version"":""106.0"",""blink"":true,""windows"":true,""osname"":""Windows"",""osversion"":""10"",""a"":true}","9:18:3","1","4","Test_4","70","f","1","1576.9000000059605","1536 x 864","1536 x 864","true","1","10","","","","",""
"null","<p style=""font-size: 80px;"">+ 10 points</p>","null","html-keyboard-response","35","302099","0.0-11.0-2.34","5f68c08cf9c15f0333c6d281","m7g001","LS","27","F","{""name"":""Chrome"",""chrome"":true,""version"":""106.0"",""blink"":true,""windows"":true,""osname"":""Windows"",""osversion"":""10"",""a"":true}","9:18:3","1","4","Test_1","74","j","1","1006.3999999910593","1536 x 864","1536 x 864","true","1","10","","","","",""
"null","<p style=""font-size: 80px;"">+ 10 points</p>","null","html-keyboard-response","36","304654","0.0-11.0-2.35","5f68c08cf9c15f0333c6d281","m7g001","LS","27","F","{""name"":""Chrome"",""chrome"":true,""version"":""106.0"",""blink"":true,""windows"":true,""osname"":""Windows"",""osversion"":""10"",""a"":true}","9:18:3","1","4","Test_3","74","j","1","524","1536 x 864","1536 x 864","true","1","10","","","","",""
"null","<p style=""font-size: 80px;"">+ 10 points</p>","null","html-keyboard-response","37","308045","0.0-11.0-2.36","5f68c08cf9c15f0333c6d281","m7g001","LS","27","F","{""name"":""Chrome"",""chrome"":true,""version"":""106.0"",""blink"":true,""windows"":true,""osname"":""Windows"",""osversion"":""10"",""a"":true}","9:18:3","1","4","Test_2","70","f","1","1381.7000000029802","1536 x 864","1536 x 864","true","1","10","","","","",""
"null","<p style=""font-size: 80px;"">+ 10 points</p>","null","html-keyboard-response","38","310823","0.0-11.0-2.37","5f68c08cf9c15f0333c6d281","m7g001","LS","27","F","{""name"":""Chrome"",""chrome"":true,""version"":""106.0"",""blink"":true,""windows"":true,""osname"":""Windows"",""osversion"":""10"",""a"":true}","9:18:3","1","4","Test_2","70","f","1","765.2000000029802","1536 x 864","1536 x 864","true","1","10","","","","",""
"null","<p style=""font-size: 80px;"">+ 10 points</p>","null","html-keyboard-response","39","313355","0.0-11.0-2.38","5f68c08cf9c15f0333c6d281","m7g001","LS","27","F","{""name"":""Chrome"",""chrome"":true,""version"":""106.0"",""blink"":true,""windows"":true,""osname"":""Windows"",""osversion"":""10"",""a"":true}","9:18:3","1","4","Test_4","70","f","1","511.20000000298023","1536 x 864","1536 x 864","true","1","10","","","","",""
"null","<p style=""font-size: 80px;"">+ 10 points</p>","null","html-keyboard-response","40","316478","0.0-11.0-2.39","5f68c08cf9c15f0333c6d281","m7g001","LS","27","F","{""name"":""Chrome"",""chrome"":true,""version"":""106.0"",""blink"":true,""windows"":true,""osname"":""Windows"",""osversion"":""10"",""a"":true}","9:18:3","1","4","Test_3","74","j","1","1110.699999988079","1536 x 864","1536 x 864","true","1","10","","","","",""
"null","<p style=""font-size: 80px;"">+ 10 points</p>","null","html-keyboard-response","41","319255","0.0-11.0-2.40","5f68c08cf9c15f0333c6d281","m7g001","LS","27","F","{""name"":""Chrome"",""chrome"":true,""version"":""106.0"",""blink"":true,""windows"":true,""osname"":""Windows"",""osversion"":""10"",""a"":true}","9:18:3","1","4","Test_3","74","j","1","761","1536 x 864","1536 x 864","true","1","10","","","","",""
"null","<p style=""font-size: 80px;"">+ 10 points</p>","null","html-keyboard-response","42","321921","0.0-11.0-2.41","5f68c08cf9c15f0333c6d281","m7g001","LS","27","F","{""name"":""Chrome"",""chrome"":true,""version"":""106.0"",""blink"":true,""windows"":true,""osname"":""Windows"",""osversion"":""10"",""a"":true}","9:18:3","1","4","Test_1","74","j","1","645.6000000089407","1536 x 864","1536 x 864","true","1","10","","","","",""
"null","<p style=""font-size: 80px;"">+ 10 points</p>","null","html-keyboard-response","43","325087","0.0-11.0-2.42","5f68c08cf9c15f0333c6d281","m7g001","LS","27","F","{""name"":""Chrome"",""chrome"":true,""version"":""106.0"",""blink"":true,""windows"":true,""osname"":""Windows"",""osversion"":""10"",""a"":true}","9:18:3","1","4","Test_4","70","f","1","1135.7000000029802","1536 x 864","1536 x 864","true","1","10","","","","",""
"null","<p style=""font-size: 80px;"">+ 10 points</p>","null","html-keyboard-response","44","327823","0.0-11.0-2.43","5f68c08cf9c15f0333c6d281","m7g001","LS","27","F","{""name"":""Chrome"",""chrome"":true,""version"":""106.0"",""blink"":true,""windows"":true,""osname"":""Windows"",""osversion"":""10"",""a"":true}","9:18:3","1","4","Test_3","74","j","1","724.2000000029802","1536 x 864","1536 x 864","true","1","10","","","","",""
"null","<p style=""font-size: 80px;"">+ 0 points</p>","null","html-keyboard-response","45","330613","0.0-11.0-2.44","5f68c08cf9c15f0333c6d281","m7g001","LS","27","F","{""name"":""Chrome"",""chrome"":true,""version"":""106.0"",""blink"":true,""windows"":true,""osname"":""Windows"",""osversion"":""10"",""a"":true}","9:18:3","1","3","Test_1","74","f","0","771.3999999910593","1536 x 864","1536 x 864","true","1","0","","","","",""
"null","<p style=""font-size: 80px;"">+ 10 points</p>","null","html-keyboard-response","46","333254","0.0-11.0-2.45","5f68c08cf9c15f0333c6d281","m7g001","LS","27","F","{""name"":""Chrome"",""chrome"":true,""version"":""106.0"",""blink"":true,""windows"":true,""osname"":""Windows"",""osversion"":""10"",""a"":true}","9:18:3","1","3","Test_4","74","j","1","622.3000000119209","1536 x 864","1536 x 864","true","1","10","","","","",""
"null","<p style=""font-size: 80px;"">+ 10 points</p>","null","html-keyboard-response","47","335954","0.0-11.0-2.46","5f68c08cf9c15f0333c6d281","m7g001","LS","27","F","{""name"":""Chrome"",""chrome"":true,""version"":""106.0"",""blink"":true,""windows"":true,""osname"":""Windows"",""osversion"":""10"",""a"":true}","9:18:3","1","3","Test_4","74","j","1","685.4000000059605","1536 x 864","1536 x 864","true","1","10","","","","",""
"null","<p style=""font-size: 80px;"">+ 10 points</p>","null","html-keyboard-response","48","339275","0.0-11.0-2.47","5f68c08cf9c15f0333c6d281","m7g001","LS","27","F","{""name"":""Chrome"",""chrome"":true,""version"":""106.0"",""blink"":true,""windows"":true,""osname"":""Windows"",""osversion"":""10"",""a"":true}","9:18:3","1","3","Test_2","74","j","1","1304.2000000029802","1536 x 864","1536 x 864","true","1","10","","","","",""
"null","<p style=""font-size: 80px;"">+ 10 points</p>","null","html-keyboard-response","49","341777","0.0-11.0-2.48","5f68c08cf9c15f0333c6d281","m7g001","LS","27","F","{""name"":""Chrome"",""chrome"":true,""version"":""106.0"",""blink"":true,""windows"":true,""osname"":""Windows"",""osversion"":""10"",""a"":true}","9:18:3","1","3","Test_4","74","j","1","488.70000000298023","1536 x 864","1536 x 864","true","1","10","","","","",""
"null","<p style=""font-size: 80px;"">+ 10 points</p>","null","html-keyboard-response","50","344679","0.0-11.0-2.49","5f68c08cf9c15f0333c6d281","m7g001","LS","27","F","{""name"":""Chrome"",""chrome"":true,""version"":""106.0"",""blink"":true,""windows"":true,""osname"":""Windows"",""osversion"":""10"",""a"":true}","9:18:3","1","3","Test_1","70","f","1","887","1536 x 864","1536 x 864","true","1","10","","","","",""
"null","<p style=""font-size: 80px;"">+ 10 points</p>","null","html-keyboard-response","51","347278","0.0-11.0-2.50","5f68c08cf9c15f0333c6d281","m7g001","LS","27","F","{""name"":""Chrome"",""chrome"":true,""version"":""106.0"",""blink"":true,""windows"":true,""osname"":""Windows"",""osversion"":""10"",""a"":true}","9:18:3","1","3","Test_3","70","f","1","582.2999999970198","1536 x 864","1536 x 864","true","1","10","","","","",""
"null","<p style=""font-size: 80px;"">+ 10 points</p>","null","html-keyboard-response","52","350277","0.0-11.0-2.51","5f68c08cf9c15f0333c6d281","m7g001","LS","27","F","{""name"":""Chrome"",""chrome"":true,""version"":""106.0"",""blink"":true,""windows"":true,""osname"":""Windows"",""osversion"":""10"",""a"":true}","9:18:3","1","3","Test_3","70","f","1","990","1536 x 864","1536 x 864","true","1","10","","","","",""
"null","<p style=""font-size: 80px;"">+ 10 points</p>","null","html-keyboard-response","53","353046","0.0-11.0-2.52","5f68c08cf9c15f0333c6d281","m7g001","LS","27","F","{""name"":""Chrome"",""chrome"":true,""version"":""106.0"",""blink"":true,""windows"":true,""osname"":""Windows"",""osversion"":""10"",""a"":true}","9:18:3","1","3","Test_1","70","f","1","755.7000000029802","1536 x 864","1536 x 864","true","1","10","","","","",""
"null","<p style=""font-size: 80px;"">+ 10 points</p>","null","html-keyboard-response","54","355551","0.0-11.0-2.53","5f68c08cf9c15f0333c6d281","m7g001","LS","27","F","{""name"":""Chrome"",""chrome"":true,""version"":""106.0"",""blink"":true,""windows"":true,""osname"":""Windows"",""osversion"":""10"",""a"":true}","9:18:3","1","3","Test_1","70","f","1","484.59999999403954","1536 x 864","1536 x 864","true","1","10","","","","",""
"null","<p style=""font-size: 80px;"">+ 10 points</p>","null","html-keyboard-response","55","358096","0.0-11.0-2.54","5f68c08cf9c15f0333c6d281","m7g001","LS","27","F","{""name"":""Chrome"",""chrome"":true,""version"":""106.0"",""blink"":true,""windows"":true,""osname"":""Windows"",""osversion"":""10"",""a"":true}","9:18:3","1","3","Test_1","70","f","1","521","1536 x 864","1536 x 864","true","1","10","","","","",""
"null","<p style=""font-size: 80px;"">+ 10 points</p>","null","html-keyboard-response","56","360599","0.0-11.0-2.55","5f68c08cf9c15f0333c6d281","m7g001","LS","27","F","{""name"":""Chrome"",""chrome"":true,""version"":""106.0"",""blink"":true,""windows"":true,""osname"":""Windows"",""osversion"":""10"",""a"":true}","9:18:3","1","3","Test_2","74","j","1","476.79999999701977","1536 x 864","1536 x 864","true","1","10","","","","",""
"null","<p style=""font-size: 80px;"">+ 10 points</p>","null","html-keyboard-response","57","363309","0.0-11.0-2.56","5f68c08cf9c15f0333c6d281","m7g001","LS","27","F","{""name"":""Chrome"",""chrome"":true,""version"":""106.0"",""blink"":true,""windows"":true,""osname"":""Windows"",""osversion"":""10"",""a"":true}","9:18:3","1","3","Test_3","70","f","1","693.4000000059605","1536 x 864","1536 x 864","true","1","10","","","","",""
"null","<p style=""font-size: 80px;"">+ 10 points</p>","null","html-keyboard-response","58","365861","0.0-11.0-2.57","5f68c08cf9c15f0333c6d281","m7g001","LS","27","F","{""name"":""Chrome"",""chrome"":true,""version"":""106.0"",""blink"":true,""windows"":true,""osname"":""Windows"",""osversion"":""10"",""a"":true}","9:18:3","1","3","Test_3","70","f","1","540","1536 x 864","1536 x 864","true","1","10","","","","",""
"null","<p style=""font-size: 80px;"">+ 10 points</p>","null","html-keyboard-response","59","368656","0.0-11.0-2.58","5f68c08cf9c15f0333c6d281","m7g001","LS","27","F","{""name"":""Chrome"",""chrome"":true,""version"":""106.0"",""blink"":true,""windows"":true,""osname"":""Windows"",""osversion"":""10"",""a"":true}","9:18:3","1","3","Test_3","70","f","1","776.5999999940395","1536 x 864","1536 x 864","true","1","10","","","","",""
"null","<p style=""font-size: 80px;"">+ 10 points</p>","null","html-keyboard-response","60","371604","0.0-11.0-2.59","5f68c08cf9c15f0333c6d281","m7g001","LS","27","F","{""name"":""Chrome"",""chrome"":true,""version"":""106.0"",""blink"":true,""windows"":true,""osname"":""Windows"",""osversion"":""10"",""a"":true}","9:18:3","1","3","Test_4","74","j","1","915.5","1536 x 864","1536 x 864","true","1","10","","","","",""
"null","<p style=""font-size: 80px;"">+ 10 points</p>","null","html-keyboard-response","61","374422","0.0-11.0-2.60","5f68c08cf9c15f0333c6d281","m7g001","LS","27","F","{""name"":""Chrome"",""chrome"":true,""version"":""106.0"",""blink"":true,""windows"":true,""osname"":""Windows"",""osversion"":""10"",""a"":true}","9:18:3","1","3","Test_2","74","j","1","805.5","1536 x 864","1536 x 864","true","1","10","","","","",""
"null","<p style=""font-size: 80px;"">+ 10 points</p>","null","html-keyboard-response","62","377277","0.0-11.0-2.61","5f68c08cf9c15f0333c6d281","m7g001","LS","27","F","{""name"":""Chrome"",""chrome"":true,""version"":""106.0"",""blink"":true,""windows"":true,""osname"":""Windows"",""osversion"":""10"",""a"":true}","9:18:3","1","3","Test_2","74","j","1","836.5999999940395","1536 x 864","1536 x 864","true","1","10","","","","",""
"null","<p style=""font-size: 80px;"">+ 10 points</p>","null","html-keyboard-response","63","380349","0.0-11.0-2.62","5f68c08cf9c15f0333c6d281","m7g001","LS","27","F","{""name"":""Chrome"",""chrome"":true,""version"":""106.0"",""blink"":true,""windows"":true,""osname"":""Windows"",""osversion"":""10"",""a"":true}","9:18:3","1","3","Test_2","74","j","1","1056.8999999910593","1536 x 864","1536 x 864","true","1","10","","","","",""
"null","<p style=""font-size: 80px;"">+ 10 points</p>","null","html-keyboard-response","64","382908","0.0-11.0-2.63","5f68c08cf9c15f0333c6d281","m7g001","LS","27","F","{""name"":""Chrome"",""chrome"":true,""version"":""106.0"",""blink"":true,""windows"":true,""osname"":""Windows"",""osversion"":""10"",""a"":true}","9:18:3","1","3","Test_2","74","j","1","532.5999999940395","1536 x 864","1536 x 864","true","1","10","","","","",""
"null","<p style=""font-size: 80px;"">+ 10 points</p>","null","html-keyboard-response","65","385868","0.0-11.0-2.64","5f68c08cf9c15f0333c6d281","m7g001","LS","27","F","{""name"":""Chrome"",""chrome"":true,""version"":""106.0"",""blink"":true,""windows"":true,""osname"":""Windows"",""osversion"":""10"",""a"":true}","9:18:3","1","3","Test_3","70","f","1","940.7999999970198","1536 x 864","1536 x 864","true","1","10","","","","",""
"null","<p style=""font-size: 80px;"">+ 0 points</p>","null","html-keyboard-response","66","388576","0.0-11.0-2.65","5f68c08cf9c15f0333c6d281","m7g001","LS","27","F","{""name"":""Chrome"",""chrome"":true,""version"":""106.0"",""blink"":true,""windows"":true,""osname"":""Windows"",""osversion"":""10"",""a"":true}","9:18:3","1","4","Test_2","74","f","0","701.2999999970198","1536 x 864","1536 x 864","true","1","0","","","","",""
"null","<p style=""font-size: 80px;"">+ 10 points</p>","null","html-keyboard-response","67","391309","0.0-11.0-2.66","5f68c08cf9c15f0333c6d281","m7g001","LS","27","F","{""name"":""Chrome"",""chrome"":true,""version"":""106.0"",""blink"":true,""windows"":true,""osname"":""Windows"",""osversion"":""10"",""a"":true}","9:18:3","1","4","Test_3","74","j","1","707.2000000029802","1536 x 864","1536 x 864","true","1","10","","","","",""
"null","<p style=""font-size: 80px;"">+ 10 points</p>","null","html-keyboard-response","68","393910","0.0-11.0-2.67","5f68c08cf9c15f0333c6d281","m7g001","LS","27","F","{""name"":""Chrome"",""chrome"":true,""version"":""106.0"",""blink"":true,""windows"":true,""osname"":""Windows"",""osversion"":""10"",""a"":true}","9:18:3","1","4","Test_3","74","j","1","579.9000000059605","1536 x 864","1536 x 864","true","1","10","","","","",""
"null","<p style=""font-size: 80px;"">+ 10 points</p>","null","html-keyboard-response","69","396838","0.0-11.0-2.68","5f68c08cf9c15f0333c6d281","m7g001","LS","27","F","{""name"":""Chrome"",""chrome"":true,""version"":""106.0"",""blink"":true,""windows"":true,""osname"":""Windows"",""osversion"":""10"",""a"":true}","9:18:3","1","4","Test_1","74","j","1","913.0999999940395","1536 x 864","1536 x 864","true","1","10","","","","",""
"null","<p style=""font-size: 80px;"">+ 10 points</p>","null","html-keyboard-response","70","399482","0.0-11.0-2.69","5f68c08cf9c15f0333c6d281","m7g001","LS","27","F","{""name"":""Chrome"",""chrome"":true,""version"":""106.0"",""blink"":true,""windows"":true,""osname"":""Windows"",""osversion"":""10"",""a"":true}","9:18:3","1","4","Test_1","74","j","1","613.8999999910593","1536 x 864","1536 x 864","true","1","10","","","","",""
"null","<p style=""font-size: 80px;"">+ 10 points</p>","null","html-keyboard-response","71","402401","0.0-11.0-2.70","5f68c08cf9c15f0333c6d281","m7g001","LS","27","F","{""name"":""Chrome"",""chrome"":true,""version"":""106.0"",""blink"":true,""windows"":true,""osname"":""Windows"",""osversion"":""10"",""a"":true}","9:18:3","1","4","Test_4","70","f","1","904.6000000089407","1536 x 864","1536 x 864","true","1","10","","","","",""
"null","<p style=""font-size: 80px;"">+ 10 points</p>","null","html-keyboard-response","72","405264","0.0-11.0-2.71","5f68c08cf9c15f0333c6d281","m7g001","LS","27","F","{""name"":""Chrome"",""chrome"":true,""version"":""106.0"",""blink"":true,""windows"":true,""osname"":""Windows"",""osversion"":""10"",""a"":true}","9:18:3","1","4","Test_1","74","j","1","854.0999999940395","1536 x 864","1536 x 864","true","1","10","","","","",""
"null","<p style=""font-size: 80px;"">+ 10 points</p>","null","html-keyboard-response","73","408031","0.0-11.0-2.72","5f68c08cf9c15f0333c6d281","m7g001","LS","27","F","{""name"":""Chrome"",""chrome"":true,""version"":""106.0"",""blink"":true,""windows"":true,""osname"":""Windows"",""osversion"":""10"",""a"":true}","9:18:3","1","4","Test_3","74","j","1","748.5","1536 x 864","1536 x 864","true","1","10","","","","",""
"null","<p style=""font-size: 80px;"">+ 10 points</p>","null","html-keyboard-response","74","411416","0.0-11.0-2.73","5f68c08cf9c15f0333c6d281","m7g001","LS","27","F","{""name"":""Chrome"",""chrome"":true,""version"":""106.0"",""blink"":true,""windows"":true,""osname"":""Windows"",""osversion"":""10"",""a"":true}","9:18:3","1","4","Test_2","70","f","1","1365.5","1536 x 864","1536 x 864","true","1","10","","","","",""
"null","<p style=""font-size: 80px;"">+ 10 points</p>","null","html-keyboard-response","75","414517","0.0-11.0-2.74","5f68c08cf9c15f0333c6d281","m7g001","LS","27","F","{""name"":""Chrome"",""chrome"":true,""version"":""106.0"",""blink"":true,""windows"":true,""osname"":""Windows"",""osversion"":""10"",""a"":true}","9:18:3","1","4","Test_2","70","f","1","1085.8999999910593","1536 x 864","1536 x 864","true","1","10","","","","",""
"null","<p style=""font-size: 80px;"">+ 10 points</p>","null","html-keyboard-response","76","417712","0.0-11.0-2.75","5f68c08cf9c15f0333c6d281","m7g001","LS","27","F","{""name"":""Chrome"",""chrome"":true,""version"":""106.0"",""blink"":true,""windows"":true,""osname"":""Windows"",""osversion"":""10"",""a"":true}","9:18:3","1","4","Test_2","70","f","1","1176.5999999940395","1536 x 864","1536 x 864","true","1","10","","","","",""
"null","<p style=""font-size: 80px;"">+ 10 points</p>","null","html-keyboard-response","77","420207","0.0-11.0-2.76","5f68c08cf9c15f0333c6d281","m7g001","LS","27","F","{""name"":""Chrome"",""chrome"":true,""version"":""106.0"",""blink"":true,""windows"":true,""osname"":""Windows"",""osversion"":""10"",""a"":true}","9:18:3","1","4","Test_2","70","f","1","468.59999999403954","1536 x 864","1536 x 864","true","1","10","","","","",""
"null","<p style=""font-size: 80px;"">+ 10 points</p>","null","html-keyboard-response","78","422986","0.0-11.0-2.77","5f68c08cf9c15f0333c6d281","m7g001","LS","27","F","{""name"":""Chrome"",""chrome"":true,""version"":""106.0"",""blink"":true,""windows"":true,""osname"":""Windows"",""osversion"":""10"",""a"":true}","9:18:3","1","4","Test_3","74","j","1","758.5999999940395","1536 x 864","1536 x 864","true","1","10","","","","",""
"null","<p style=""font-size: 80px;"">+ 10 points</p>","null","html-keyboard-response","79","425940","0.0-11.0-2.78","5f68c08cf9c15f0333c6d281","m7g001","LS","27","F","{""name"":""Chrome"",""chrome"":true,""version"":""106.0"",""blink"":true,""windows"":true,""osname"":""Windows"",""osversion"":""10"",""a"":true}","9:18:3","1","4","Test_1","74","j","1","934","1536 x 864","1536 x 864","true","1","10","","","","",""
"null","<p style=""font-size: 80px;"">+ 10 points</p>","null","html-keyboard-response","80","428551","0.0-11.0-2.79","5f68c08cf9c15f0333c6d281","m7g001","LS","27","F","{""name"":""Chrome"",""chrome"":true,""version"":""106.0"",""blink"":true,""windows"":true,""osname"":""Windows"",""osversion"":""10"",""a"":true}","9:18:3","1","4","Test_1","74","j","1","595.9000000059605","1536 x 864","1536 x 864","true","1","10","","","","",""
"null","<p style=""font-size: 80px;"">+ 10 points</p>","null","html-keyboard-response","81","431292","0.0-11.0-2.80","5f68c08cf9c15f0333c6d281","m7g001","LS","27","F","{""name"":""Chrome"",""chrome"":true,""version"":""106.0"",""blink"":true,""windows"":true,""osname"":""Windows"",""osversion"":""10"",""a"":true}","9:18:3","1","4","Test_4","70","f","1","722.2000000029802","1536 x 864","1536 x 864","true","1","10","","","","",""
"null","<p style=""font-size: 80px;"">+ 10 points</p>","null","html-keyboard-response","82","434220","0.0-11.0-2.81","5f68c08cf9c15f0333c6d281","m7g001","LS","27","F","{""name"":""Chrome"",""chrome"":true,""version"":""106.0"",""blink"":true,""windows"":true,""osname"":""Windows"",""osversion"":""10"",""a"":true}","9:18:3","1","4","Test_3","74","j","1","902.5999999940395","1536 x 864","1536 x 864","true","1","10","","","","",""
"null","<p style=""font-size: 80px;"">+ 10 points</p>","null","html-keyboard-response","83","437098","0.0-11.0-2.82","5f68c08cf9c15f0333c6d281","m7g001","LS","27","F","{""name"":""Chrome"",""chrome"":true,""version"":""106.0"",""blink"":true,""windows"":true,""osname"":""Windows"",""osversion"":""10"",""a"":true}","9:18:3","1","4","Test_4","70","f","1","863.1000000089407","1536 x 864","1536 x 864","true","1","10","","","","",""
"null","<p style=""font-size: 80px;"">+ 10 points</p>","null","html-keyboard-response","84","440061","0.0-11.0-2.83","5f68c08cf9c15f0333c6d281","m7g001","LS","27","F","{""name"":""Chrome"",""chrome"":true,""version"":""106.0"",""blink"":true,""windows"":true,""osname"":""Windows"",""osversion"":""10"",""a"":true}","9:18:3","1","4","Test_4","70","f","1","949.1999999880791","1536 x 864","1536 x 864","true","1","10","","","","",""
"null","<p style=""font-size: 80px;"">+ 10 points</p>","null","html-keyboard-response","85","442683","0.0-11.0-2.84","5f68c08cf9c15f0333c6d281","m7g001","LS","27","F","{""name"":""Chrome"",""chrome"":true,""version"":""106.0"",""blink"":true,""windows"":true,""osname"":""Windows"",""osversion"":""10"",""a"":true}","9:18:3","1","4","Test_3","74","j","1","603.7000000029802","1536 x 864","1536 x 864","true","1","10","","","","",""
"null","<p style=""font-size: 80px;"">+ 10 points</p>","null","html-keyboard-response","86","446374","0.0-11.0-2.85","5f68c08cf9c15f0333c6d281","m7g001","LS","27","F","{""name"":""Chrome"",""chrome"":true,""version"":""106.0"",""blink"":true,""windows"":true,""osname"":""Windows"",""osversion"":""10"",""a"":true}","9:18:3","1","4","Test_4","70","f","1","1667.7999999970198","1536 x 864","1536 x 864","true","1","10","","","","",""
"null","<p style=""font-size: 80px;"">+ 10 points</p>","null","html-keyboard-response","87","449036","0.0-11.0-2.86","5f68c08cf9c15f0333c6d281","m7g001","LS","27","F","{""name"":""Chrome"",""chrome"":true,""version"":""106.0"",""blink"":true,""windows"":true,""osname"":""Windows"",""osversion"":""10"",""a"":true}","9:18:3","1","4","Test_4","70","f","1","642.5","1536 x 864","1536 x 864","true","1","10","","","","",""
"null","<p style=""font-size: 80px;"">+ 10 points</p>","null","html-keyboard-response","88","452011","0.0-11.0-2.87","5f68c08cf9c15f0333c6d281","m7g001","LS","27","F","{""name"":""Chrome"",""chrome"":true,""version"":""106.0"",""blink"":true,""windows"":true,""osname"":""Windows"",""osversion"":""10"",""a"":true}","9:18:3","1","4","Test_2","70","f","1","956.0999999940395","1536 x 864","1536 x 864","true","1","10","","","","",""
"null","<p style=""font-size: 80px;"">+ 0 points</p>","null","html-keyboard-response","89","454658","0.0-11.0-2.88","5f68c08cf9c15f0333c6d281","m7g001","LS","27","F","{""name"":""Chrome"",""chrome"":true,""version"":""106.0"",""blink"":true,""windows"":true,""osname"":""Windows"",""osversion"":""10"",""a"":true}","9:18:3","1","3","Test_2","70","j","0","633.6000000089407","1536 x 864","1536 x 864","true","1","0","","","","",""
"null","<p style=""font-size: 80px;"">+ 10 points</p>","null","html-keyboard-response","90","457988","0.0-11.0-2.89","5f68c08cf9c15f0333c6d281","m7g001","LS","27","F","{""name"":""Chrome"",""chrome"":true,""version"":""106.0"",""blink"":true,""windows"":true,""osname"":""Windows"",""osversion"":""10"",""a"":true}","9:18:3","1","3","Test_4","74","j","1","1311.5","1536 x 864","1536 x 864","true","1","10","","","","",""
"null","<p style=""font-size: 80px;"">+ 10 points</p>","null","html-keyboard-response","91","460687","0.0-11.0-2.90","5f68c08cf9c15f0333c6d281","m7g001","LS","27","F","{""name"":""Chrome"",""chrome"":true,""version"":""106.0"",""blink"":true,""windows"":true,""osname"":""Windows"",""osversion"":""10"",""a"":true}","9:18:3","1","3","Test_3","70","f","1","682","1536 x 864","1536 x 864","true","1","10","","","","",""
"null","<p style=""font-size: 80px;"">+ 10 points</p>","null","html-keyboard-response","92","463455","0.0-11.0-2.91","5f68c08cf9c15f0333c6d281","m7g001","LS","27","F","{""name"":""Chrome"",""chrome"":true,""version"":""106.0"",""blink"":true,""windows"":true,""osname"":""Windows"",""osversion"":""10"",""a"":true}","9:18:3","1","3","Test_1","70","f","1","741.9000000059605","1536 x 864","1536 x 864","true","1","10","","","","",""
"null","<p style=""font-size: 80px;"">+ 10 points</p>","null","html-keyboard-response","93","465946","0.0-11.0-2.92","5f68c08cf9c15f0333c6d281","m7g001","LS","27","F","{""name"":""Chrome"",""chrome"":true,""version"":""106.0"",""blink"":true,""windows"":true,""osname"":""Windows"",""osversion"":""10"",""a"":true}","9:18:3","1","3","Test_2","74","j","1","458.70000000298023","1536 x 864","1536 x 864","true","1","10","","","","",""
"null","<p style=""font-size: 80px;"">+ 10 points</p>","null","html-keyboard-response","94","468490","0.0-11.0-2.93","5f68c08cf9c15f0333c6d281","m7g001","LS","27","F","{""name"":""Chrome"",""chrome"":true,""version"":""106.0"",""blink"":true,""windows"":true,""osname"":""Windows"",""osversion"":""10"",""a"":true}","9:18:3","1","3","Test_4","74","j","1","520.5999999940395","1536 x 864","1536 x 864","true","1","10","","","","",""
"null","<p style=""font-size: 80px;"">+ 10 points</p>","null","html-keyboard-response","95","471276","0.0-11.0-2.94","5f68c08cf9c15f0333c6d281","m7g001","LS","27","F","{""name"":""Chrome"",""chrome"":true,""version"":""106.0"",""blink"":true,""windows"":true,""osname"":""Windows"",""osversion"":""10"",""a"":true}","9:18:3","1","3","Test_4","74","j","1","765.9000000059605","1536 x 864","1536 x 864","true","1","10","","","","",""
"null","<p style=""font-size: 80px;"">+ 10 points</p>","null","html-keyboard-response","96","473944","0.0-11.0-2.95","5f68c08cf9c15f0333c6d281","m7g001","LS","27","F","{""name"":""Chrome"",""chrome"":true,""version"":""106.0"",""blink"":true,""windows"":true,""osname"":""Windows"",""osversion"":""10"",""a"":true}","9:18:3","1","3","Test_3","70","f","1","648.0999999940395","1536 x 864","1536 x 864","true","1","10","","","","",""
"null","<p style=""font-size: 80px;"">+ 10 points</p>","null","html-keyboard-response","97","476466","0.0-11.0-2.96","5f68c08cf9c15f0333c6d281","m7g001","LS","27","F","{""name"":""Chrome"",""chrome"":true,""version"":""106.0"",""blink"":true,""windows"":true,""osname"":""Windows"",""osversion"":""10"",""a"":true}","9:18:3","1","3","Test_1","70","f","1","507.79999999701977","1536 x 864","1536 x 864","true","1","10","","","","",""
"null","<p style=""font-size: 80px;"">+ 10 points</p>","null","html-keyboard-response","98","479904","0.0-11.0-2.97","5f68c08cf9c15f0333c6d281","m7g001","LS","27","F","{""name"":""Chrome"",""chrome"":true,""version"":""106.0"",""blink"":true,""windows"":true,""osname"":""Windows"",""osversion"":""10"",""a"":true}","9:18:3","1","3","Test_1","70","f","1","1423.8999999910593","1536 x 864","1536 x 864","true","1","10","","","","",""
"null","<p style=""font-size: 80px;"">+ 10 points</p>","null","html-keyboard-response","99","482348","0.0-11.0-2.98","5f68c08cf9c15f0333c6d281","m7g001","LS","27","F","{""name"":""Chrome"",""chrome"":true,""version"":""106.0"",""blink"":true,""windows"":true,""osname"":""Windows"",""osversion"":""10"",""a"":true}","9:18:3","1","3","Test_2","74","j","1","419","1536 x 864","1536 x 864","true","1","10","","","","",""
"null","<p style=""font-size: 80px;"">+ 10 points</p>","null","html-keyboard-response","100","485342","0.0-11.0-2.99","5f68c08cf9c15f0333c6d281","m7g001","LS","27","F","{""name"":""Chrome"",""chrome"":true,""version"":""106.0"",""blink"":true,""windows"":true,""osname"":""Windows"",""osversion"":""10"",""a"":true}","9:18:3","1","3","Test_3","70","f","1","965.5","1536 x 864","1536 x 864","true","1","10","","","","",""
"null","<p style=""font-size: 80px;"">+ 10 points</p>","null","html-keyboard-response","101","488240","0.0-11.0-2.100","5f68c08cf9c15f0333c6d281","m7g001","LS","27","F","{""name"":""Chrome"",""chrome"":true,""version"":""106.0"",""blink"":true,""windows"":true,""osname"":""Windows"",""osversion"":""10"",""a"":true}","9:18:3","1","3","Test_2","74","j","1","866.3999999910593","1536 x 864","1536 x 864","true","1","10","","","","",""
"null","<p style=""font-size: 80px;"">+ 10 points</p>","null","html-keyboard-response","102","490802","0.0-11.0-2.101","5f68c08cf9c15f0333c6d281","m7g001","LS","27","F","{""name"":""Chrome"",""chrome"":true,""version"":""106.0"",""blink"":true,""windows"":true,""osname"":""Windows"",""osversion"":""10"",""a"":true}","9:18:3","1","3","Test_1","70","f","1","544.5999999940395","1536 x 864","1536 x 864","true","1","10","","","","",""
"null","<p style=""font-size: 80px;"">+ 10 points</p>","null","html-keyboard-response","103","493382","0.0-11.0-2.102","5f68c08cf9c15f0333c6d281","m7g001","LS","27","F","{""name"":""Chrome"",""chrome"":true,""version"":""106.0"",""blink"":true,""windows"":true,""osname"":""Windows"",""osversion"":""10"",""a"":true}","9:18:3","1","3","Test_3","70","f","1","555.9000000059605","1536 x 864","1536 x 864","true","1","10","","","","",""
"null","<p style=""font-size: 80px;"">+ 0 points</p>","null","html-keyboard-response","104","495960","0.0-11.0-2.103","5f68c08cf9c15f0333c6d281","m7g001","LS","27","F","{""name"":""Chrome"",""chrome"":true,""version"":""106.0"",""blink"":true,""windows"":true,""osname"":""Windows"",""osversion"":""10"",""a"":true}","9:18:3","1","4","Test_4","74","f","0","568.5999999940395","1536 x 864","1536 x 864","true","1","0","","","","",""
"null","<p style=""font-size: 80px;"">+ 10 points</p>","null","html-keyboard-response","105","498590","0.0-11.0-2.104","5f68c08cf9c15f0333c6d281","m7g001","LS","27","F","{""name"":""Chrome"",""chrome"":true,""version"":""106.0"",""blink"":true,""windows"":true,""osname"":""Windows"",""osversion"":""10"",""a"":true}","9:18:3","1","4","Test_1","74","j","1","612.1000000089407","1536 x 864","1536 x 864","true","1","10","","","","",""
"null","<p style=""font-size: 80px;"">+ 10 points</p>","null","html-keyboard-response","106","501222","0.0-11.0-2.105","5f68c08cf9c15f0333c6d281","m7g001","LS","27","F","{""name"":""Chrome"",""chrome"":true,""version"":""106.0"",""blink"":true,""windows"":true,""osname"":""Windows"",""osversion"":""10"",""a"":true}","9:18:3","1","4","Test_1","74","j","1","617.5","1536 x 864","1536 x 864","true","1","10","","","","",""
"null","<p style=""font-size: 80px;"">+ 10 points</p>","null","html-keyboard-response","107","503696","0.0-11.0-2.106","5f68c08cf9c15f0333c6d281","m7g001","LS","27","F","{""name"":""Chrome"",""chrome"":true,""version"":""106.0"",""blink"":true,""windows"":true,""osname"":""Windows"",""osversion"":""10"",""a"":true}","9:18:3","1","4","Test_2","70","f","1","460","1536 x 864","1536 x 864","true","1","10","","","","",""
"null","<p style=""font-size: 80px;"">+ 10 points</p>","null","html-keyboard-response","108","506482","0.0-11.0-2.107","5f68c08cf9c15f0333c6d281","m7g001","LS","27","F","{""name"":""Chrome"",""chrome"":true,""version"":""106.0"",""blink"":true,""windows"":true,""osname"":""Windows"",""osversion"":""10"",""a"":true}","9:18:3","1","4","Test_2","70","f","1","768","1536 x 864","1536 x 864","true","1","10","","","","",""
"null","<p style=""font-size: 80px;"">+ 10 points</p>","null","html-keyboard-response","109","510101","0.0-11.0-2.108","5f68c08cf9c15f0333c6d281","m7g001","LS","27","F","{""name"":""Chrome"",""chrome"":true,""version"":""106.0"",""blink"":true,""windows"":true,""osname"":""Windows"",""osversion"":""10"",""a"":true}","9:18:3","1","4","Test_3","74","j","1","1597.5","1536 x 864","1536 x 864","true","1","10","","","","",""
"null","<p style=""font-size: 80px;"">+ 10 points</p>","null","html-keyboard-response","110","541473","0.0-11.0-2.109","5f68c08cf9c15f0333c6d281","m7g001","LS","27","F","{""name"":""Chrome"",""chrome"":true,""version"":""106.0"",""blink"":true,""windows"":true,""osname"":""Windows"",""osversion"":""10"",""a"":true}","9:18:3","1","4","Test_2","70","f","1","1171.8999999910593","1536 x 864","1536 x 864","true","1","10","","","","",""
"null","<p style=""font-size: 80px;"">+ 10 points</p>","null","html-keyboard-response","111","544376","0.0-11.0-2.110","5f68c08cf9c15f0333c6d281","m7g001","LS","27","F","{""name"":""Chrome"",""chrome"":true,""version"":""106.0"",""blink"":true,""windows"":true,""osname"":""Windows"",""osversion"":""10"",""a"":true}","9:18:3","1","4","Test_3","74","j","1","876.8999999910593","1536 x 864","1536 x 864","true","1","10","","","","",""
"null","<p style=""font-size: 80px;"">+ 10 points</p>","null","html-keyboard-response","112","547020","0.0-11.0-2.111","5f68c08cf9c15f0333c6d281","m7g001","LS","27","F","{""name"":""Chrome"",""chrome"":true,""version"":""106.0"",""blink"":true,""windows"":true,""osname"":""Windows"",""osversion"":""10"",""a"":true}","9:18:3","1","4","Test_2","70","f","1","608.7000000029802","1536 x 864","1536 x 864","true","1","10","","","","",""
"null","<p style=""font-size: 80px;"">+ 10 points</p>","null","html-keyboard-response","113","549605","0.0-11.0-2.112","5f68c08cf9c15f0333c6d281","m7g001","LS","27","F","{""name"":""Chrome"",""chrome"":true,""version"":""106.0"",""blink"":true,""windows"":true,""osname"":""Windows"",""osversion"":""10"",""a"":true}","9:18:3","1","4","Test_3","74","j","1","565.1000000089407","1536 x 864","1536 x 864","true","1","10","","","","",""
"null","<p style=""font-size: 80px;"">+ 10 points</p>","null","html-keyboard-response","114","552419","0.0-11.0-2.113","5f68c08cf9c15f0333c6d281","m7g001","LS","27","F","{""name"":""Chrome"",""chrome"":true,""version"":""106.0"",""blink"":true,""windows"":true,""osname"":""Windows"",""osversion"":""10"",""a"":true}","9:18:3","1","4","Test_4","70","f","1","784.2000000029802","1536 x 864","1536 x 864","true","1","10","","","","",""
"null","<p style=""font-size: 80px;"">+ 10 points</p>","null","html-keyboard-response","115","554818","0.0-11.0-2.114","5f68c08cf9c15f0333c6d281","m7g001","LS","27","F","{""name"":""Chrome"",""chrome"":true,""version"":""106.0"",""blink"":true,""windows"":true,""osname"":""Windows"",""osversion"":""10"",""a"":true}","9:18:3","1","4","Test_3","74","j","1","382.59999999403954","1536 x 864","1536 x 864","true","1","10","","","","",""
"null","<p style=""font-size: 80px;"">+ 10 points</p>","null","html-keyboard-response","116","557889","0.0-11.0-2.115","5f68c08cf9c15f0333c6d281","m7g001","LS","27","F","{""name"":""Chrome"",""chrome"":true,""version"":""106.0"",""blink"":true,""windows"":true,""osname"":""Windows"",""osversion"":""10"",""a"":true}","9:18:3","1","4","Test_1","74","j","1","1053.5999999940395","1536 x 864","1536 x 864","true","1","10","","","","",""
"null","<p style=""font-size: 80px;"">+ 10 points</p>","null","html-keyboard-response","117","560270","0.0-11.0-2.116","5f68c08cf9c15f0333c6d281","m7g001","LS","27","F","{""name"":""Chrome"",""chrome"":true,""version"":""106.0"",""blink"":true,""windows"":true,""osname"":""Windows"",""osversion"":""10"",""a"":true}","9:18:3","1","4","Test_2","70","f","1","363","1536 x 864","1536 x 864","true","1","10","","","","",""
"null","<p style=""font-size: 80px;"">+ 10 points</p>","null","html-keyboard-response","118","562880","0.0-11.0-2.117","5f68c08cf9c15f0333c6d281","m7g001","LS","27","F","{""name"":""Chrome"",""chrome"":true,""version"":""106.0"",""blink"":true,""windows"":true,""osname"":""Windows"",""osversion"":""10"",""a"":true}","9:18:3","1","4","Test_2","70","f","1","589.0999999940395","1536 x 864","1536 x 864","true","1","10","","","","",""
"null","<p style=""font-size: 80px;"">+ 10 points</p>","null","html-keyboard-response","119","565666","0.0-11.0-2.118","5f68c08cf9c15f0333c6d281","m7g001","LS","27","F","{""name"":""Chrome"",""chrome"":true,""version"":""106.0"",""blink"":true,""windows"":true,""osname"":""Windows"",""osversion"":""10"",""a"":true}","9:18:3","1","4","Test_3","74","j","1","771.5","1536 x 864","1536 x 864","true","1","10","","","","",""
"null","<p style=""font-size: 80px;"">+ 10 points</p>","null","html-keyboard-response","120","568436","0.0-11.0-2.119","5f68c08cf9c15f0333c6d281","m7g001","LS","27","F","{""name"":""Chrome"",""chrome"":true,""version"":""106.0"",""blink"":true,""windows"":true,""osname"":""Windows"",""osversion"":""10"",""a"":true}","9:18:3","1","4","Test_1","74","j","1","747.4000000059605","1536 x 864","1536 x 864","true","1","10","","","","",""
"null","<p style=""font-size: 80px;"">+ 10 points</p>","null","html-keyboard-response","121","571603","0.0-11.0-2.120","5f68c08cf9c15f0333c6d281","m7g001","LS","27","F","{""name"":""Chrome"",""chrome"":true,""version"":""106.0"",""blink"":true,""windows"":true,""osname"":""Windows"",""osversion"":""10"",""a"":true}","9:18:3","1","4","Test_4","70","f","1","1153.2000000029802","1536 x 864","1536 x 864","true","1","10","","","","",""
"null","<p style=""font-size: 80px;"">+ 10 points</p>","null","html-keyboard-response","122","574562","0.0-11.0-2.121","5f68c08cf9c15f0333c6d281","m7g001","LS","27","F","{""name"":""Chrome"",""chrome"":true,""version"":""106.0"",""blink"":true,""windows"":true,""osname"":""Windows"",""osversion"":""10"",""a"":true}","9:18:3","1","4","Test_4","70","f","1","930.2999999970198","1536 x 864","1536 x 864","true","1","10","","","","",""
"null","<p style=""font-size: 80px;"">+ 10 points</p>","null","html-keyboard-response","123","577359","0.0-11.0-2.122","5f68c08cf9c15f0333c6d281","m7g001","LS","27","F","{""name"":""Chrome"",""chrome"":true,""version"":""106.0"",""blink"":true,""windows"":true,""osname"":""Windows"",""osversion"":""10"",""a"":true}","9:18:3","1","4","Test_1","74","j","1","777.2000000029802","1536 x 864","1536 x 864","true","1","10","","","","",""
"null","<p style=""font-size: 80px;"">+ 10 points</p>","null","html-keyboard-response","124","580097","0.0-11.0-2.123","5f68c08cf9c15f0333c6d281","m7g001","LS","27","F","{""name"":""Chrome"",""chrome"":true,""version"":""106.0"",""blink"":true,""windows"":true,""osname"":""Windows"",""osversion"":""10"",""a"":true}","9:18:3","1","4","Test_4","70","f","1","730.4000000059605","1536 x 864","1536 x 864","true","1","10","","","","",""
"null","<p style=""font-size: 80px;"">+ 10 points</p>","null","html-keyboard-response","125","583199","0.0-11.0-2.124","5f68c08cf9c15f0333c6d281","m7g001","LS","27","F","{""name"":""Chrome"",""chrome"":true,""version"":""106.0"",""blink"":true,""windows"":true,""osname"":""Windows"",""osversion"":""10"",""a"":true}","9:18:3","1","4","Test_1","74","j","1","1081.7000000029802","1536 x 864","1536 x 864","true","1","10","","","","",""
"null","<p style=""font-size: 80px;"">+ 10 points</p>","null","html-keyboard-response","126","586363","0.0-11.0-2.125","5f68c08cf9c15f0333c6d281","m7g001","LS","27","F","{""name"":""Chrome"",""chrome"":true,""version"":""106.0"",""blink"":true,""windows"":true,""osname"":""Windows"",""osversion"":""10"",""a"":true}","9:18:3","1","4","Test_4","70","f","1","1140.2999999970198","1536 x 864","1536 x 864","true","1","10","","","","",""
"null","<p style=""font-size: 80px;"">+ 0 points</p>","null","html-keyboard-response","127","589203","0.0-11.0-2.126","5f68c08cf9c15f0333c6d281","m7g001","LS","27","F","{""name"":""Chrome"",""chrome"":true,""version"":""106.0"",""blink"":true,""windows"":true,""osname"":""Windows"",""osversion"":""10"",""a"":true}","9:18:3","1","3","Test_2","70","j","0","814.2000000029802","1536 x 864","1536 x 864","true","1","0","","","","",""
"null","<p style=""font-size: 80px;"">+ 10 points</p>","null","html-keyboard-response","128","592333","0.0-11.0-2.127","5f68c08cf9c15f0333c6d281","m7g001","LS","27","F","{""name"":""Chrome"",""chrome"":true,""version"":""106.0"",""blink"":true,""windows"":true,""osname"":""Windows"",""osversion"":""10"",""a"":true}","9:18:3","1","3","Test_1","70","f","1","1107.2000000029802","1536 x 864","1536 x 864","true","1","10","","","","",""
"null","<p style=""font-size: 80px;"">+ 10 points</p>","null","html-keyboard-response","129","595142","0.0-11.0-2.128","5f68c08cf9c15f0333c6d281","m7g001","LS","27","F","{""name"":""Chrome"",""chrome"":true,""version"":""106.0"",""blink"":true,""windows"":true,""osname"":""Windows"",""osversion"":""10"",""a"":true}","9:18:3","1","3","Test_2","74","j","1","789.0999999940395","1536 x 864","1536 x 864","true","1","10","","","","",""
"null","<p style=""font-size: 80px;"">+ 10 points</p>","null","html-keyboard-response","130","598808","0.0-11.0-2.129","5f68c08cf9c15f0333c6d281","m7g001","LS","27","F","{""name"":""Chrome"",""chrome"":true,""version"":""106.0"",""blink"":true,""windows"":true,""osname"":""Windows"",""osversion"":""10"",""a"":true}","9:18:3","1","3","Test_1","70","f","1","1651.2999999970198","1536 x 864","1536 x 864","true","1","10","","","","",""
"null","<p style=""font-size: 80px;"">+ 10 points</p>","null","html-keyboard-response","131","601375","0.0-11.0-2.130","5f68c08cf9c15f0333c6d281","m7g001","LS","27","F","{""name"":""Chrome"",""chrome"":true,""version"":""106.0"",""blink"":true,""windows"":true,""osname"":""Windows"",""osversion"":""10"",""a"":true}","9:18:3","1","3","Test_2","74","j","1","554.1999999880791","1536 x 864","1536 x 864","true","1","10","","","","",""
"null","<p style=""font-size: 80px;"">+ 10 points</p>","null","html-keyboard-response","132","604101","0.0-11.0-2.131","5f68c08cf9c15f0333c6d281","m7g001","LS","27","F","{""name"":""Chrome"",""chrome"":true,""version"":""106.0"",""blink"":true,""windows"":true,""osname"":""Windows"",""osversion"":""10"",""a"":true}","9:18:3","1","3","Test_4","74","j","1","714.6000000089407","1536 x 864","1536 x 864","true","1","10","","","","",""
"null","<p style=""font-size: 80px;"">+ 10 points</p>","null","html-keyboard-response","133","607552","0.0-11.0-2.132","5f68c08cf9c15f0333c6d281","m7g001","LS","27","F","{""name"":""Chrome"",""chrome"":true,""version"":""106.0"",""blink"":true,""windows"":true,""osname"":""Windows"",""osversion"":""10"",""a"":true}","9:18:3","1","3","Test_2","74","j","1","1433","1536 x 864","1536 x 864","true","1","10","","","","",""
"null","<p style=""font-size: 80px;"">+ 10 points</p>","null","html-keyboard-response","134","610540","0.0-11.0-2.133","5f68c08cf9c15f0333c6d281","m7g001","LS","27","F","{""name"":""Chrome"",""chrome"":true,""version"":""106.0"",""blink"":true,""windows"":true,""osname"":""Windows"",""osversion"":""10"",""a"":true}","9:18:3","1","3","Test_3","70","f","1","969.7000000029802","1536 x 864","1536 x 864","true","1","10","","","","",""
"null","<p style=""font-size: 80px;"">+ 10 points</p>","null","html-keyboard-response","135","613050","0.0-11.0-2.134","5f68c08cf9c15f0333c6d281","m7g001","LS","27","F","{""name"":""Chrome"",""chrome"":true,""version"":""106.0"",""blink"":true,""windows"":true,""osname"":""Windows"",""osversion"":""10"",""a"":true}","9:18:3","1","3","Test_1","70","f","1","499.5","1536 x 864","1536 x 864","true","1","10","","","","",""
"null","<p style=""font-size: 80px;"">+ 10 points</p>","null","html-keyboard-response","136","616171","0.0-11.0-2.135","5f68c08cf9c15f0333c6d281","m7g001","LS","27","F","{""name"":""Chrome"",""chrome"":true,""version"":""106.0"",""blink"":true,""windows"":true,""osname"":""Windows"",""osversion"":""10"",""a"":true}","9:18:3","1","3","Test_3","70","f","1","1107.699999988079","1536 x 864","1536 x 864","true","1","10","","","","",""
"null","<p style=""font-size: 80px;"">+ 10 points</p>","null","html-keyboard-response","137","618900","0.0-11.0-2.136","5f68c08cf9c15f0333c6d281","m7g001","LS","27","F","{""name"":""Chrome"",""chrome"":true,""version"":""106.0"",""blink"":true,""windows"":true,""osname"":""Windows"",""osversion"":""10"",""a"":true}","9:18:3","1","3","Test_4","74","j","1","696.0999999940395","1536 x 864","1536 x 864","true","1","10","","","","",""
"null","<p style=""font-size: 80px;"">+ 10 points</p>","null","html-keyboard-response","138","622593","0.0-11.0-2.137","5f68c08cf9c15f0333c6d281","m7g001","LS","27","F","{""name"":""Chrome"",""chrome"":true,""version"":""106.0"",""blink"":true,""windows"":true,""osname"":""Windows"",""osversion"":""10"",""a"":true}","9:18:3","1","3","Test_4","74","j","1","1670.1000000089407","1536 x 864","1536 x 864","true","1","10","","","","",""
"null","<p style=""font-size: 80px;"">+ 10 points</p>","null","html-keyboard-response","139","625215","0.0-11.0-2.138","5f68c08cf9c15f0333c6d281","m7g001","LS","27","F","{""name"":""Chrome"",""chrome"":true,""version"":""106.0"",""blink"":true,""windows"":true,""osname"":""Windows"",""osversion"":""10"",""a"":true}","9:18:3","1","3","Test_3","70","f","1","601.1999999880791","1536 x 864","1536 x 864","true","1","10","","","","",""
"null","<p style=""font-size: 80px;"">+ 10 points</p>","null","html-keyboard-response","140","628093","0.0-11.0-2.139","5f68c08cf9c15f0333c6d281","m7g001","LS","27","F","{""name"":""Chrome"",""chrome"":true,""version"":""106.0"",""blink"":true,""windows"":true,""osname"":""Windows"",""osversion"":""10"",""a"":true}","9:18:3","1","3","Test_3","70","f","1","860.1999999880791","1536 x 864","1536 x 864","true","1","10","","","","",""
"null","<p style=""font-size: 80px;"">+ 10 points</p>","null","html-keyboard-response","141","631449","0.0-11.0-2.140","5f68c08cf9c15f0333c6d281","m7g001","LS","27","F","{""name"":""Chrome"",""chrome"":true,""version"":""106.0"",""blink"":true,""windows"":true,""osname"":""Windows"",""osversion"":""10"",""a"":true}","9:18:3","1","3","Test_2","74","j","1","1335.5999999940395","1536 x 864","1536 x 864","true","1","10","","","","",""
"null","<p style=""font-size: 80px;"">+ 10 points</p>","null","html-keyboard-response","142","633880","0.0-11.0-2.141","5f68c08cf9c15f0333c6d281","m7g001","LS","27","F","{""name"":""Chrome"",""chrome"":true,""version"":""106.0"",""blink"":true,""windows"":true,""osname"":""Windows"",""osversion"":""10"",""a"":true}","9:18:3","1","3","Test_1","70","f","1","411.8999999910593","1536 x 864","1536 x 864","true","1","10","","","","",""
"null","<p style=""font-size: 80px;"">+ 10 points</p>","null","html-keyboard-response","143","636962","0.0-11.0-2.142","5f68c08cf9c15f0333c6d281","m7g001","LS","27","F","{""name"":""Chrome"",""chrome"":true,""version"":""106.0"",""blink"":true,""windows"":true,""osname"":""Windows"",""osversion"":""10"",""a"":true}","9:18:3","1","3","Test_4","74","j","1","1062.3999999910593","1536 x 864","1536 x 864","true","1","10","","","","",""
"null","<p style=""font-size: 80px;"">+ 10 points</p>","null","html-keyboard-response","144","640374","0.0-11.0-2.143","5f68c08cf9c15f0333c6d281","m7g001","LS","27","F","{""name"":""Chrome"",""chrome"":true,""version"":""106.0"",""blink"":true,""windows"":true,""osname"":""Windows"",""osversion"":""10"",""a"":true}","9:18:3","1","3","Test_4","74","j","1","1399.4000000059605","1536 x 864","1536 x 864","true","1","10","","","","",""
"null","<p style=""font-size: 80px;"">+ 10 points</p>","null","html-keyboard-response","145","643410","0.0-11.0-2.144","5f68c08cf9c15f0333c6d281","m7g001","LS","27","F","{""name"":""Chrome"",""chrome"":true,""version"":""106.0"",""blink"":true,""windows"":true,""osname"":""Windows"",""osversion"":""10"",""a"":true}","9:18:3","1","3","Test_1","70","f","1","1024.5","1536 x 864","1536 x 864","true","1","10","","","","",""
"null","<p style=""font-size: 80px;"">+ 0 points</p>","null","html-keyboard-response","146","646606","0.0-11.0-2.145","5f68c08cf9c15f0333c6d281","m7g001","LS","27","F","{""name"":""Chrome"",""chrome"":true,""version"":""106.0"",""blink"":true,""windows"":true,""osname"":""Windows"",""osversion"":""10"",""a"":true}","9:18:3","1","4","Test_3","70","j","0","1184.2000000029802","1536 x 864","1536 x 864","true","1","0","","","","",""
"null","<p style=""font-size: 80px;"">+ 10 points</p>","null","html-keyboard-response","147","649617","0.0-11.0-2.146","5f68c08cf9c15f0333c6d281","m7g001","LS","27","F","{""name"":""Chrome"",""chrome"":true,""version"":""106.0"",""blink"":true,""windows"":true,""osname"":""Windows"",""osversion"":""10"",""a"":true}","9:18:3","1","4","Test_2","70","f","1","988.2999999970198","1536 x 864","1536 x 864","true","1","10","","","","",""
"null","<p style=""font-size: 80px;"">+ 10 points</p>","null","html-keyboard-response","148","652805","0.0-11.0-2.147","5f68c08cf9c15f0333c6d281","m7g001","LS","27","F","{""name"":""Chrome"",""chrome"":true,""version"":""106.0"",""blink"":true,""windows"":true,""osname"":""Windows"",""osversion"":""10"",""a"":true}","9:18:3","1","4","Test_4","70","f","1","1165.2999999970198","1536 x 864","1536 x 864","true","1","10","","","","",""
"null","<p style=""font-size: 80px;"">+ 10 points</p>","null","html-keyboard-response","149","655752","0.0-11.0-2.148","5f68c08cf9c15f0333c6d281","m7g001","LS","27","F","{""name"":""Chrome"",""chrome"":true,""version"":""106.0"",""blink"":true,""windows"":true,""osname"":""Windows"",""osversion"":""10"",""a"":true}","9:18:3","1","4","Test_1","74","j","1","921.8000000119209","1536 x 864","1536 x 864","true","1","10","","","","",""
"null","<p style=""font-size: 80px;"">+ 10 points</p>","null","html-keyboard-response","150","659157","0.0-11.0-2.149","5f68c08cf9c15f0333c6d281","m7g001","LS","27","F","{""name"":""Chrome"",""chrome"":true,""version"":""106.0"",""blink"":true,""windows"":true,""osname"":""Windows"",""osversion"":""10"",""a"":true}","9:18:3","1","4","Test_3","74","j","1","1382","1536 x 864","1536 x 864","true","1","10","","","","",""
"null","<p style=""font-size: 80px;"">+ 10 points</p>","null","html-keyboard-response","151","662046","0.0-11.0-2.150","5f68c08cf9c15f0333c6d281","m7g001","LS","27","F","{""name"":""Chrome"",""chrome"":true,""version"":""106.0"",""blink"":true,""windows"":true,""osname"":""Windows"",""osversion"":""10"",""a"":true}","9:18:3","1","4","Test_1","74","j","1","871.4000000059605","1536 x 864","1536 x 864","true","1","10","","","","",""
"null","<p style=""font-size: 80px;"">+ 0 points</p>","null","html-keyboard-response","152","664818","0.0-11.0-2.151","5f68c08cf9c15f0333c6d281","m7g001","LS","27","F","{""name"":""Chrome"",""chrome"":true,""version"":""106.0"",""blink"":true,""windows"":true,""osname"":""Windows"",""osversion"":""10"",""a"":true}","9:18:3","1","4","Test_2","74","f","0","743.5","1536 x 864","1536 x 864","true","1","0","","","","",""
"null","<p style=""font-size: 80px;"">+ 10 points</p>","null","html-keyboard-response","153","667716","0.0-11.0-2.152","5f68c08cf9c15f0333c6d281","m7g001","LS","27","F","{""name"":""Chrome"",""chrome"":true,""version"":""106.0"",""blink"":true,""windows"":true,""osname"":""Windows"",""osversion"":""10"",""a"":true}","9:18:3","1","4","Test_2","70","f","1","878.7999999970198","1536 x 864","1536 x 864","true","1","10","","","","",""
"null","<p style=""font-size: 80px;"">+ 10 points</p>","null","html-keyboard-response","154","670564","0.0-11.0-2.153","5f68c08cf9c15f0333c6d281","m7g001","LS","27","F","{""name"":""Chrome"",""chrome"":true,""version"":""106.0"",""blink"":true,""windows"":true,""osname"":""Windows"",""osversion"":""10"",""a"":true}","9:18:3","1","4","Test_3","74","j","1","828.9000000059605","1536 x 864","1536 x 864","true","1","10","","","","",""
"null","<p style=""font-size: 80px;"">+ 10 points</p>","null","html-keyboard-response","155","673231","0.0-11.0-2.154","5f68c08cf9c15f0333c6d281","m7g001","LS","27","F","{""name"":""Chrome"",""chrome"":true,""version"":""106.0"",""blink"":true,""windows"":true,""osname"":""Windows"",""osversion"":""10"",""a"":true}","9:18:3","1","4","Test_2","70","f","1","649.6999999880791","1536 x 864","1536 x 864","true","1","10","","","","",""
"null","<p style=""font-size: 80px;"">+ 10 points</p>","null","html-keyboard-response","156","675950","0.0-11.0-2.155","5f68c08cf9c15f0333c6d281","m7g001","LS","27","F","{""name"":""Chrome"",""chrome"":true,""version"":""106.0"",""blink"":true,""windows"":true,""osname"":""Windows"",""osversion"":""10"",""a"":true}","9:18:3","1","4","Test_3","74","j","1","699.5999999940395","1536 x 864","1536 x 864","true","1","10","","","","",""
"null","<p style=""font-size: 80px;"">+ 10 points</p>","null","html-keyboard-response","157","678692","0.0-11.0-2.156","5f68c08cf9c15f0333c6d281","m7g001","LS","27","F","{""name"":""Chrome"",""chrome"":true,""version"":""106.0"",""blink"":true,""windows"":true,""osname"":""Windows"",""osversion"":""10"",""a"":true}","9:18:3","1","4","Test_4","70","f","1","727.2000000029802","1536 x 864","1536 x 864","true","1","10","","","","",""
"null","<p style=""font-size: 80px;"">+ 10 points</p>","null","html-keyboard-response","158","681736","0.0-11.0-2.157","5f68c08cf9c15f0333c6d281","m7g001","LS","27","F","{""name"":""Chrome"",""chrome"":true,""version"":""106.0"",""blink"":true,""windows"":true,""osname"":""Windows"",""osversion"":""10"",""a"":true}","9:18:3","1","4","Test_4","70","f","1","1032.3999999910593","1536 x 864","1536 x 864","true","1","10","","","","",""
"null","<p style=""font-size: 80px;"">+ 10 points</p>","null","html-keyboard-response","159","684524","0.0-11.0-2.158","5f68c08cf9c15f0333c6d281","m7g001","LS","27","F","{""name"":""Chrome"",""chrome"":true,""version"":""106.0"",""blink"":true,""windows"":true,""osname"":""Windows"",""osversion"":""10"",""a"":true}","9:18:3","1","4","Test_2","70","f","1","769.5","1536 x 864","1536 x 864","true","1","10","","","","",""
"null","<p style=""font-size: 80px;"">+ 10 points</p>","null","html-keyboard-response","160","687626","0.0-11.0-2.159","5f68c08cf9c15f0333c6d281","m7g001","LS","27","F","{""name"":""Chrome"",""chrome"":true,""version"":""106.0"",""blink"":true,""windows"":true,""osname"":""Windows"",""osversion"":""10"",""a"":true}","9:18:3","1","4","Test_4","70","f","1","1074.7999999970198","1536 x 864","1536 x 864","true","1","10","","","","",""
"null","<p style=""font-size: 80px;"">+ 10 points</p>","null","html-keyboard-response","161","690261","0.0-11.0-2.160","5f68c08cf9c15f0333c6d281","m7g001","LS","27","F","{""name"":""Chrome"",""chrome"":true,""version"":""106.0"",""blink"":true,""windows"":true,""osname"":""Windows"",""osversion"":""10"",""a"":true}","9:18:3","1","4","Test_2","70","f","1","622.2999999970198","1536 x 864","1536 x 864","true","1","10","","","","",""
"null","<p style=""font-size: 80px;"">+ 10 points</p>","null","html-keyboard-response","162","692883","0.0-11.0-2.161","5f68c08cf9c15f0333c6d281","m7g001","LS","27","F","{""name"":""Chrome"",""chrome"":true,""version"":""106.0"",""blink"":true,""windows"":true,""osname"":""Windows"",""osversion"":""10"",""a"":true}","9:18:3","1","4","Test_1","74","j","1","599.5999999940395","1536 x 864","1536 x 864","true","1","10","","","","",""
"null","<p style=""font-size: 80px;"">+ 10 points</p>","null","html-keyboard-response","163","696504","0.0-11.0-2.162","5f68c08cf9c15f0333c6d281","m7g001","LS","27","F","{""name"":""Chrome"",""chrome"":true,""version"":""106.0"",""blink"":true,""windows"":true,""osname"":""Windows"",""osversion"":""10"",""a"":true}","9:18:3","1","4","Test_1","74","j","1","1593.2000000029802","1536 x 864","1536 x 864","true","1","10","","","","",""
"null","<p style=""font-size: 80px;"">+ 10 points</p>","null","html-keyboard-response","164","699158","0.0-11.0-2.163","5f68c08cf9c15f0333c6d281","m7g001","LS","27","F","{""name"":""Chrome"",""chrome"":true,""version"":""106.0"",""blink"":true,""windows"":true,""osname"":""Windows"",""osversion"":""10"",""a"":true}","9:18:3","1","4","Test_1","74","j","1","636.7999999970198","1536 x 864","1536 x 864","true","1","10","","","","",""
"null","<p style=""font-size: 80px;"">+ 10 points</p>","null","html-keyboard-response","165","701829","0.0-11.0-2.164","5f68c08cf9c15f0333c6d281","m7g001","LS","27","F","{""name"":""Chrome"",""chrome"":true,""version"":""106.0"",""blink"":true,""windows"":true,""osname"":""Windows"",""osversion"":""10"",""a"":true}","9:18:3","1","4","Test_4","70","f","1","649.2000000029802","1536 x 864","1536 x 864","true","1","10","","","","",""
"null","<p style=""font-size: 80px;"">+ 10 points</p>","null","html-keyboard-response","166","704864","0.0-11.0-2.165","5f68c08cf9c15f0333c6d281","m7g001","LS","27","F","{""name"":""Chrome"",""chrome"":true,""version"":""106.0"",""blink"":true,""windows"":true,""osname"":""Windows"",""osversion"":""10"",""a"":true}","9:18:3","1","4","Test_3","74","j","1","1020.5","1536 x 864","1536 x 864","true","1","10","","","","",""
"null","<p style=""font-size: 80px;"">+ 10 points</p>","null","html-keyboard-response","167","707989","0.0-11.0-2.166","5f68c08cf9c15f0333c6d281","m7g001","LS","27","F","{""name"":""Chrome"",""chrome"":true,""version"":""106.0"",""blink"":true,""windows"":true,""osname"":""Windows"",""osversion"":""10"",""a"":true}","9:18:3","1","4","Test_1","74","j","1","1100.4000000059605","1536 x 864","1536 x 864","true","1","10","","","","",""
"null","<p style=""font-size: 80px;"">+ 10 points</p>","null","html-keyboard-response","168","710484","0.0-11.0-2.167","5f68c08cf9c15f0333c6d281","m7g001","LS","27","F","{""name"":""Chrome"",""chrome"":true,""version"":""106.0"",""blink"":true,""windows"":true,""osname"":""Windows"",""osversion"":""10"",""a"":true}","9:18:3","1","4","Test_3","74","j","1","481.09999999403954","1536 x 864","1536 x 864","true","1","10","","","","",""
"null","<p style=""font-size: 80px;"">+ 10 points</p>","null","html-keyboard-response","169","712891","0.0-11.0-2.168","5f68c08cf9c15f0333c6d281","m7g001","LS","27","F","{""name"":""Chrome"",""chrome"":true,""version"":""106.0"",""blink"":true,""windows"":true,""osname"":""Windows"",""osversion"":""10"",""a"":true}","9:18:3","1","4","Test_4","70","f","1","383","1536 x 864","1536 x 864","true","1","10","","","","",""
"null","<p style=""font-size: 80px;"">+ 0 points</p>","null","html-keyboard-response","170","715715","0.0-11.0-2.169","5f68c08cf9c15f0333c6d281","m7g001","LS","27","F","{""name"":""Chrome"",""chrome"":true,""version"":""106.0"",""blink"":true,""windows"":true,""osname"":""Windows"",""osversion"":""10"",""a"":true}","9:18:3","1","3","Test_1","74","f","0","796","1536 x 864","1536 x 864","true","1","0","","","","",""
"null","<p style=""font-size: 80px;"">+ 10 points</p>","null","html-keyboard-response","171","718594","0.0-11.0-2.170","5f68c08cf9c15f0333c6d281","m7g001","LS","27","F","{""name"":""Chrome"",""chrome"":true,""version"":""106.0"",""blink"":true,""windows"":true,""osname"":""Windows"",""osversion"":""10"",""a"":true}","9:18:3","1","3","Test_2","74","j","1","864.3999999910593","1536 x 864","1536 x 864","true","1","10","","","","",""
"null","<p style=""font-size: 80px;"">+ 10 points</p>","null","html-keyboard-response","172","721440","0.0-11.0-2.171","5f68c08cf9c15f0333c6d281","m7g001","LS","27","F","{""name"":""Chrome"",""chrome"":true,""version"":""106.0"",""blink"":true,""windows"":true,""osname"":""Windows"",""osversion"":""10"",""a"":true}","9:18:3","1","3","Test_3","70","f","1","824.5999999940395","1536 x 864","1536 x 864","true","1","10","","","","",""
"null","<p style=""font-size: 80px;"">+ 10 points</p>","null","html-keyboard-response","173","724463","0.0-11.0-2.172","5f68c08cf9c15f0333c6d281","m7g001","LS","27","F","{""name"":""Chrome"",""chrome"":true,""version"":""106.0"",""blink"":true,""windows"":true,""osname"":""Windows"",""osversion"":""10"",""a"":true}","9:18:3","1","3","Test_2","74","j","1","1005.7000000029802","1536 x 864","1536 x 864","true","1","10","","","","",""
"null","<p style=""font-size: 80px;"">+ 10 points</p>","null","html-keyboard-response","174","726983","0.0-11.0-2.173","5f68c08cf9c15f0333c6d281","m7g001","LS","27","F","{""name"":""Chrome"",""chrome"":true,""version"":""106.0"",""blink"":true,""windows"":true,""osname"":""Windows"",""osversion"":""10"",""a"":true}","9:18:3","1","3","Test_1","70","f","1","498.59999999403954","1536 x 864","1536 x 864","true","1","10","","","","",""
"null","<p style=""font-size: 80px;"">+ 10 points</p>","null","html-keyboard-response","175","729726","0.0-11.0-2.174","5f68c08cf9c15f0333c6d281","m7g001","LS","27","F","{""name"":""Chrome"",""chrome"":true,""version"":""106.0"",""blink"":true,""windows"":true,""osname"":""Windows"",""osversion"":""10"",""a"":true}","9:18:3","1","3","Test_3","70","f","1","724","1536 x 864","1536 x 864","true","1","10","","","","",""
"null","<p style=""font-size: 80px;"">+ 10 points</p>","null","html-keyboard-response","176","732248","0.0-11.0-2.175","5f68c08cf9c15f0333c6d281","m7g001","LS","27","F","{""name"":""Chrome"",""chrome"":true,""version"":""106.0"",""blink"":true,""windows"":true,""osname"":""Windows"",""osversion"":""10"",""a"":true}","9:18:3","1","3","Test_1","70","f","1","502.5","1536 x 864","1536 x 864","true","1","10","","","","",""
"null","<p style=""font-size: 80px;"">+ 10 points</p>","null","html-keyboard-response","177","735267","0.0-11.0-2.176","5f68c08cf9c15f0333c6d281","m7g001","LS","27","F","{""name"":""Chrome"",""chrome"":true,""version"":""106.0"",""blink"":true,""windows"":true,""osname"":""Windows"",""osversion"":""10"",""a"":true}","9:18:3","1","3","Test_1","70","f","1","1004.7999999970198","1536 x 864","1536 x 864","true","1","10","","","","",""
"null","<p style=""font-size: 80px;"">+ 10 points</p>","null","html-keyboard-response","178","738451","0.0-11.0-2.177","5f68c08cf9c15f0333c6d281","m7g001","LS","27","F","{""name"":""Chrome"",""chrome"":true,""version"":""106.0"",""blink"":true,""windows"":true,""osname"":""Windows"",""osversion"":""10"",""a"":true}","9:18:3","1","3","Test_4","74","j","1","1166.1000000089407","1536 x 864","1536 x 864","true","1","10","","","","",""
"null","<p style=""font-size: 80px;"">+ 10 points</p>","null","html-keyboard-response","179","741152","0.0-11.0-2.178","5f68c08cf9c15f0333c6d281","m7g001","LS","27","F","{""name"":""Chrome"",""chrome"":true,""version"":""106.0"",""blink"":true,""windows"":true,""osname"":""Windows"",""osversion"":""10"",""a"":true}","9:18:3","1","3","Test_4","74","j","1","687.9000000059605","1536 x 864","1536 x 864","true","1","10","","","","",""
"null","<p style=""font-size: 80px;"">+ 10 points</p>","null","html-keyboard-response","180","743753","0.0-11.0-2.179","5f68c08cf9c15f0333c6d281","m7g001","LS","27","F","{""name"":""Chrome"",""chrome"":true,""version"":""106.0"",""blink"":true,""windows"":true,""osname"":""Windows"",""osversion"":""10"",""a"":true}","9:18:3","1","3","Test_4","74","j","1","579.9000000059605","1536 x 864","1536 x 864","true","1","10","","","","",""
"null","<p style=""font-size: 80px;"">+ 10 points</p>","null","html-keyboard-response","181","746843","0.0-11.0-2.180","5f68c08cf9c15f0333c6d281","m7g001","LS","27","F","{""name"":""Chrome"",""chrome"":true,""version"":""106.0"",""blink"":true,""windows"":true,""osname"":""Windows"",""osversion"":""10"",""a"":true}","9:18:3","1","3","Test_2","74","j","1","1067.7999999970198","1536 x 864","1536 x 864","true","1","10","","","","",""
"null","<p style=""font-size: 80px;"">+ 10 points</p>","null","html-keyboard-response","182","749981","0.0-11.0-2.181","5f68c08cf9c15f0333c6d281","m7g001","LS","27","F","{""name"":""Chrome"",""chrome"":true,""version"":""106.0"",""blink"":true,""windows"":true,""osname"":""Windows"",""osversion"":""10"",""a"":true}","9:18:3","1","3","Test_3","70","f","1","1127.2999999970198","1536 x 864","1536 x 864","true","1","10","","","","",""
"null","<p style=""font-size: 80px;"">+ 10 points</p>","null","html-keyboard-response","183","752848","0.0-11.0-2.182","5f68c08cf9c15f0333c6d281","m7g001","LS","27","F","{""name"":""Chrome"",""chrome"":true,""version"":""106.0"",""blink"":true,""windows"":true,""osname"":""Windows"",""osversion"":""10"",""a"":true}","9:18:3","1","3","Test_2","74","j","1","853.8999999910593","1536 x 864","1536 x 864","true","1","10","","","","",""
"null","<p style=""font-size: 80px;"">+ 10 points</p>","null","html-keyboard-response","184","755913","0.0-11.0-2.183","5f68c08cf9c15f0333c6d281","m7g001","LS","27","F","{""name"":""Chrome"",""chrome"":true,""version"":""106.0"",""blink"":true,""windows"":true,""osname"":""Windows"",""osversion"":""10"",""a"":true}","9:18:3","1","3","Test_3","70","f","1","1044.699999988079","1536 x 864","1536 x 864","true","1","10","","","","",""
"null","<p style=""font-size: 80px;"">+ 0 points</p>","null","html-keyboard-response","185","758494","0.0-11.0-2.184","5f68c08cf9c15f0333c6d281","m7g001","LS","27","F","{""name"":""Chrome"",""chrome"":true,""version"":""106.0"",""blink"":true,""windows"":true,""osname"":""Windows"",""osversion"":""10"",""a"":true}","9:18:3","1","4","Test_1","70","j","0","567.9000000059605","1536 x 864","1536 x 864","true","1","0","","","","",""
"null","<p style=""font-size: 80px;"">+ 10 points</p>","null","html-keyboard-response","186","761377","0.0-11.0-2.185","5f68c08cf9c15f0333c6d281","m7g001","LS","27","F","{""name"":""Chrome"",""chrome"":true,""version"":""106.0"",""blink"":true,""windows"":true,""osname"":""Windows"",""osversion"":""10"",""a"":true}","9:18:3","1","4","Test_3","74","j","1","863.7000000029802","1536 x 864","1536 x 864","true","1","10","","","","",""
"null","<p style=""font-size: 80px;"">+ 10 points</p>","null","html-keyboard-response","187","763986","0.0-11.0-2.186","5f68c08cf9c15f0333c6d281","m7g001","LS","27","F","{""name"":""Chrome"",""chrome"":true,""version"":""106.0"",""blink"":true,""windows"":true,""osname"":""Windows"",""osversion"":""10"",""a"":true}","9:18:3","1","4","Test_1","74","j","1","589","1536 x 864","1536 x 864","true","1","10","","","","",""
"null","<p style=""font-size: 80px;"">+ 10 points</p>","null","html-keyboard-response","188","766424","0.0-11.0-2.187","5f68c08cf9c15f0333c6d281","m7g001","LS","27","F","{""name"":""Chrome"",""chrome"":true,""version"":""106.0"",""blink"":true,""windows"":true,""osname"":""Windows"",""osversion"":""10"",""a"":true}","9:18:3","1","4","Test_2","70","f","1","408.29999999701977","1536 x 864","1536 x 864","true","1","10","","","","",""
"null","<p style=""font-size: 80px;"">+ 0 points</p>","null","html-keyboard-response","189","768924","0.0-11.0-2.188","5f68c08cf9c15f0333c6d281","m7g001","LS","27","F","{""name"":""Chrome"",""chrome"":true,""version"":""106.0"",""blink"":true,""windows"":true,""osname"":""Windows"",""osversion"":""10"",""a"":true}","9:18:3","1","4","Test_2","74","f","0","487","1536 x 864","1536 x 864","true","1","0","","","","",""
"null","<p style=""font-size: 80px;"">+ 10 points</p>","null","html-keyboard-response","190","771564","0.0-11.0-2.189","5f68c08cf9c15f0333c6d281","m7g001","LS","27","F","{""name"":""Chrome"",""chrome"":true,""version"":""106.0"",""blink"":true,""windows"":true,""osname"":""Windows"",""osversion"":""10"",""a"":true}","9:18:3","1","4","Test_2","70","f","1","627","1536 x 864","1536 x 864","true","1","10","","","","",""
