"rt","stimulus","key_press","trial_type","trial_index","time_elapsed","internal_node_id","Prolific_ID","random_ID","initials","age","gender","pc_info","start_time","Phase","Rule","Stimulus","Response","CorrResp","Accuracy","ResponseTime","screen_resolution","window_resolution","focus","relevant","Points","responses","question_order","rev_check","butterfly_check","passed_practice"
"null","<p style=""font-size: 80px;"">+ 10 points</p>","null","html-keyboard-response","1","96327","0.0-7.0-2.0","5f4380bb7ca9ca5ca407fc04","3y758z","FW","58","F","{""name"":""Chrome"",""chrome"":true,""version"":""106.0"",""blink"":true,""windows"":true,""osname"":""Windows"",""osversion"":""10"",""a"":true}","9:14:30","0","1","Practice_1","70","f","1","922","1920 x 1080","1920 x 1080","true","1","10","","","","",""
"null","<p style=""font-size: 80px;"">+ 10 points</p>","null","html-keyboard-response","2","99468","0.0-7.0-2.1","5f4380bb7ca9ca5ca407fc04","3y758z","FW","58","F","{""name"":""Chrome"",""chrome"":true,""version"":""106.0"",""blink"":true,""windows"":true,""osname"":""Windows"",""osversion"":""10"",""a"":true}","9:14:30","0","1","Practice_3","70","f","1","1121.7999999523163","1920 x 1080","1920 x 1080","true","1","10","","","","",""
"null","<p style=""font-size: 80px;"">+ 10 points</p>","null","html-keyboard-response","3","102288","0.0-7.0-2.2","5f4380bb7ca9ca5ca407fc04","3y758z","FW","58","F","{""name"":""Chrome"",""chrome"":true,""version"":""106.0"",""blink"":true,""windows"":true,""osname"":""Windows"",""osversion"":""10"",""a"":true}","9:14:30","0","1","Practice_3","70","f","1","800.0999999046326","1920 x 1080","1920 x 1080","true","1","10","","","","",""
"null","<p style=""font-size: 80px;"">+ 10 points</p>","null","html-keyboard-response","4","105274","0.0-7.0-2.3","5f4380bb7ca9ca5ca407fc04","3y758z","FW","58","F","{""name"":""Chrome"",""chrome"":true,""version"":""106.0"",""blink"":true,""windows"":true,""osname"":""Windows"",""osversion"":""10"",""a"":true}","9:14:30","0","1","Practice_2","74","j","1","968.9000000953674","1920 x 1080","1920 x 1080","true","1","10","","","","",""
"null","<p style=""font-size: 80px;"">+ 10 points</p>","null","html-keyboard-response","5","107958","0.0-7.0-2.4","5f4380bb7ca9ca5ca407fc04","3y758z","FW","58","F","{""name"":""Chrome"",""chrome"":true,""version"":""106.0"",""blink"":true,""windows"":true,""osname"":""Windows"",""osversion"":""10"",""a"":true}","9:14:30","0","1","Practice_3","70","f","1","675","1920 x 1080","1920 x 1080","true","1","10","","","","",""
"null","<p style=""font-size: 80px;"">+ 10 points</p>","null","html-keyboard-response","6","110874","0.0-7.0-2.5","5f4380bb7ca9ca5ca407fc04","3y758z","FW","58","F","{""name"":""Chrome"",""chrome"":true,""version"":""106.0"",""blink"":true,""windows"":true,""osname"":""Windows"",""osversion"":""10"",""a"":true}","9:14:30","0","1","Practice_4","74","j","1","896.2000000476837","1920 x 1080","1920 x 1080","true","1","10","","","","",""
"null","<p style=""font-size: 80px;"">+ 10 points</p>","null","html-keyboard-response","7","113463","0.0-7.0-2.6","5f4380bb7ca9ca5ca407fc04","3y758z","FW","58","F","{""name"":""Chrome"",""chrome"":true,""version"":""106.0"",""blink"":true,""windows"":true,""osname"":""Windows"",""osversion"":""10"",""a"":true}","9:14:30","0","1","Practice_1","70","f","1","566.2999999523163","1920 x 1080","1920 x 1080","true","1","10","","","","",""
"null","<p style=""font-size: 80px;"">+ 10 points</p>","null","html-keyboard-response","8","116234","0.0-7.0-2.7","5f4380bb7ca9ca5ca407fc04","3y758z","FW","58","F","{""name"":""Chrome"",""chrome"":true,""version"":""106.0"",""blink"":true,""windows"":true,""osname"":""Windows"",""osversion"":""10"",""a"":true}","9:14:30","0","1","Practice_2","74","j","1","745.9000000953674","1920 x 1080","1920 x 1080","true","1","10","","","","",""
"null","<p style=""font-size: 80px;"">+ 10 points</p>","null","html-keyboard-response","9","118883","0.0-7.0-2.8","5f4380bb7ca9ca5ca407fc04","3y758z","FW","58","F","{""name"":""Chrome"",""chrome"":true,""version"":""106.0"",""blink"":true,""windows"":true,""osname"":""Windows"",""osversion"":""10"",""a"":true}","9:14:30","0","1","Practice_4","74","j","1","623","1920 x 1080","1920 x 1080","true","1","10","","","","",""
"null","<p style=""font-size: 80px;"">+ 10 points</p>","null","html-keyboard-response","10","121664","0.0-7.0-2.9","5f4380bb7ca9ca5ca407fc04","3y758z","FW","58","F","{""name"":""Chrome"",""chrome"":true,""version"":""106.0"",""blink"":true,""windows"":true,""osname"":""Windows"",""osversion"":""10"",""a"":true}","9:14:30","0","1","Practice_2","74","j","1","763.1000001430511","1920 x 1080","1920 x 1080","true","1","10","","","","",""
"null","<p style=""font-size: 80px;"">+ 10 points</p>","null","html-keyboard-response","11","124491","0.0-7.0-2.10","5f4380bb7ca9ca5ca407fc04","3y758z","FW","58","F","{""name"":""Chrome"",""chrome"":true,""version"":""106.0"",""blink"":true,""windows"":true,""osname"":""Windows"",""osversion"":""10"",""a"":true}","9:14:30","0","1","Practice_4","74","j","1","808.5999999046326","1920 x 1080","1920 x 1080","true","1","10","","","","",""
"null","<p style=""font-size: 80px;"">+ 10 points</p>","null","html-keyboard-response","12","127389","0.0-7.0-2.11","5f4380bb7ca9ca5ca407fc04","3y758z","FW","58","F","{""name"":""Chrome"",""chrome"":true,""version"":""106.0"",""blink"":true,""windows"":true,""osname"":""Windows"",""osversion"":""10"",""a"":true}","9:14:30","0","1","Practice_2","74","j","1","871.7000000476837","1920 x 1080","1920 x 1080","true","1","10","","","","",""
"null","<p style=""font-size: 80px;"">+ 10 points</p>","null","html-keyboard-response","13","130053","0.0-7.0-2.12","5f4380bb7ca9ca5ca407fc04","3y758z","FW","58","F","{""name"":""Chrome"",""chrome"":true,""version"":""106.0"",""blink"":true,""windows"":true,""osname"":""Windows"",""osversion"":""10"",""a"":true}","9:14:30","0","1","Practice_4","74","j","1","637.2999999523163","1920 x 1080","1920 x 1080","true","1","10","","","","",""
"null","<p style=""font-size: 80px;"">+ 10 points</p>","null","html-keyboard-response","14","132770","0.0-7.0-2.13","5f4380bb7ca9ca5ca407fc04","3y758z","FW","58","F","{""name"":""Chrome"",""chrome"":true,""version"":""106.0"",""blink"":true,""windows"":true,""osname"":""Windows"",""osversion"":""10"",""a"":true}","9:14:30","0","1","Practice_2","74","j","1","694.7000000476837","1920 x 1080","1920 x 1080","true","1","10","","","","",""
"null","<p style=""font-size: 80px;"">+ 10 points</p>","null","html-keyboard-response","15","135530","0.0-7.0-2.14","5f4380bb7ca9ca5ca407fc04","3y758z","FW","58","F","{""name"":""Chrome"",""chrome"":true,""version"":""106.0"",""blink"":true,""windows"":true,""osname"":""Windows"",""osversion"":""10"",""a"":true}","9:14:30","0","1","Practice_1","70","f","1","734.2999999523163","1920 x 1080","1920 x 1080","true","1","10","","","","",""
"null","<p style=""font-size: 80px;"">+ 10 points</p>","null","html-keyboard-response","16","138198","0.0-7.0-2.15","5f4380bb7ca9ca5ca407fc04","3y758z","FW","58","F","{""name"":""Chrome"",""chrome"":true,""version"":""106.0"",""blink"":true,""windows"":true,""osname"":""Windows"",""osversion"":""10"",""a"":true}","9:14:30","0","1","Practice_3","70","f","1","654","1920 x 1080","1920 x 1080","true","1","10","","","","",""
"null","<p style=""font-size: 80px;"">+ 10 points</p>","null","html-keyboard-response","17","140896","0.0-7.0-2.16","5f4380bb7ca9ca5ca407fc04","3y758z","FW","58","F","{""name"":""Chrome"",""chrome"":true,""version"":""106.0"",""blink"":true,""windows"":true,""osname"":""Windows"",""osversion"":""10"",""a"":true}","9:14:30","0","1","Practice_1","70","f","1","690.3999998569489","1920 x 1080","1920 x 1080","true","1","10","","","","",""
"null","<p style=""font-size: 80px;"">+ 10 points</p>","null","html-keyboard-response","18","143563","0.0-7.0-2.17","5f4380bb7ca9ca5ca407fc04","3y758z","FW","58","F","{""name"":""Chrome"",""chrome"":true,""version"":""106.0"",""blink"":true,""windows"":true,""osname"":""Windows"",""osversion"":""10"",""a"":true}","9:14:30","0","1","Practice_3","70","f","1","663.6999998092651","1920 x 1080","1920 x 1080","true","1","10","","","","",""
"null","<p style=""font-size: 80px;"">+ 10 points</p>","null","html-keyboard-response","19","146256","0.0-7.0-2.18","5f4380bb7ca9ca5ca407fc04","3y758z","FW","58","F","{""name"":""Chrome"",""chrome"":true,""version"":""106.0"",""blink"":true,""windows"":true,""osname"":""Windows"",""osversion"":""10"",""a"":true}","9:14:30","0","1","Practice_1","70","f","1","670.3999998569489","1920 x 1080","1920 x 1080","true","1","10","","","","",""
"null","<p style=""font-size: 80px;"">+ 10 points</p>","null","html-keyboard-response","20","148864","0.0-7.0-2.19","5f4380bb7ca9ca5ca407fc04","3y758z","FW","58","F","{""name"":""Chrome"",""chrome"":true,""version"":""106.0"",""blink"":true,""windows"":true,""osname"":""Windows"",""osversion"":""10"",""a"":true}","9:14:30","0","1","Practice_4","74","j","1","594.2999999523163","1920 x 1080","1920 x 1080","true","1","10","","","","",""
"null","<p style=""font-size: 80px;"">+ 0 points</p>","null","html-keyboard-response","21","151427","0.0-7.0-2.20","5f4380bb7ca9ca5ca407fc04","3y758z","FW","58","F","{""name"":""Chrome"",""chrome"":true,""version"":""106.0"",""blink"":true,""windows"":true,""osname"":""Windows"",""osversion"":""10"",""a"":true}","9:14:30","0","2","Practice_2","74","f","0","540.3999998569489","1920 x 1080","1920 x 1080","true","1","0","","","","",""
"null","<p style=""font-size: 80px;"">+ 0 points</p>","null","html-keyboard-response","22","154191","0.0-7.0-2.21","5f4380bb7ca9ca5ca407fc04","3y758z","FW","58","F","{""name"":""Chrome"",""chrome"":true,""version"":""106.0"",""blink"":true,""windows"":true,""osname"":""Windows"",""osversion"":""10"",""a"":true}","9:14:30","0","2","Practice_1","70","j","0","739.4000000953674","1920 x 1080","1920 x 1080","true","1","0","","","","",""
"null","<p style=""font-size: 80px;"">+ 10 points</p>","null","html-keyboard-response","23","157307","0.0-7.0-2.22","5f4380bb7ca9ca5ca407fc04","3y758z","FW","58","F","{""name"":""Chrome"",""chrome"":true,""version"":""106.0"",""blink"":true,""windows"":true,""osname"":""Windows"",""osversion"":""10"",""a"":true}","9:14:30","0","2","Practice_3","74","j","1","1097.7000000476837","1920 x 1080","1920 x 1080","true","1","10","","","","",""
"null","<p style=""font-size: 80px;"">+ 10 points</p>","null","html-keyboard-response","24","160089","0.0-7.0-2.23","5f4380bb7ca9ca5ca407fc04","3y758z","FW","58","F","{""name"":""Chrome"",""chrome"":true,""version"":""106.0"",""blink"":true,""windows"":true,""osname"":""Windows"",""osversion"":""10"",""a"":true}","9:14:30","0","2","Practice_3","74","j","1","764.7999999523163","1920 x 1080","1920 x 1080","true","1","10","","","","",""
"null","<p style=""font-size: 80px;"">+ 10 points</p>","null","html-keyboard-response","25","162963","0.0-7.0-2.24","5f4380bb7ca9ca5ca407fc04","3y758z","FW","58","F","{""name"":""Chrome"",""chrome"":true,""version"":""106.0"",""blink"":true,""windows"":true,""osname"":""Windows"",""osversion"":""10"",""a"":true}","9:14:30","0","2","Practice_1","74","j","1","855.3000001907349","1920 x 1080","1920 x 1080","true","1","10","","","","",""
"null","<p style=""font-size: 80px;"">+ 10 points</p>","null","html-keyboard-response","26","165557","0.0-7.0-2.25","5f4380bb7ca9ca5ca407fc04","3y758z","FW","58","F","{""name"":""Chrome"",""chrome"":true,""version"":""106.0"",""blink"":true,""windows"":true,""osname"":""Windows"",""osversion"":""10"",""a"":true}","9:14:30","0","2","Practice_1","74","j","1","569.5999999046326","1920 x 1080","1920 x 1080","true","1","10","","","","",""
"null","<p style=""font-size: 80px;"">+ 10 points</p>","null","html-keyboard-response","27","168513","0.0-7.0-2.26","5f4380bb7ca9ca5ca407fc04","3y758z","FW","58","F","{""name"":""Chrome"",""chrome"":true,""version"":""106.0"",""blink"":true,""windows"":true,""osname"":""Windows"",""osversion"":""10"",""a"":true}","9:14:30","0","2","Practice_2","70","f","1","937.5","1920 x 1080","1920 x 1080","true","1","10","","","","",""
"null","<p style=""font-size: 80px;"">+ 10 points</p>","null","html-keyboard-response","28","172441","0.0-7.0-2.27","5f4380bb7ca9ca5ca407fc04","3y758z","FW","58","F","{""name"":""Chrome"",""chrome"":true,""version"":""106.0"",""blink"":true,""windows"":true,""osname"":""Windows"",""osversion"":""10"",""a"":true}","9:14:30","0","2","Practice_1","74","j","1","1915.1999998092651","1920 x 1080","1920 x 1080","true","1","10","","","","",""
"null","<p style=""font-size: 80px;"">+ 10 points</p>","null","html-keyboard-response","29","176738","0.0-7.0-2.28","5f4380bb7ca9ca5ca407fc04","3y758z","FW","58","F","{""name"":""Chrome"",""chrome"":true,""version"":""106.0"",""blink"":true,""windows"":true,""osname"":""Windows"",""osversion"":""10"",""a"":true}","9:14:30","0","2","Practice_3","74","j","1","2275.4000000953674","1920 x 1080","1920 x 1080","true","1","10","","","","",""
"null","<p style=""font-size: 80px;"">+ 10 points</p>","null","html-keyboard-response","30","181940","0.0-7.0-2.29","5f4380bb7ca9ca5ca407fc04","3y758z","FW","58","F","{""name"":""Chrome"",""chrome"":true,""version"":""106.0"",""blink"":true,""windows"":true,""osname"":""Windows"",""osversion"":""10"",""a"":true}","9:14:30","0","2","Practice_4","70","f","1","3184.9000000953674","1920 x 1080","1920 x 1080","true","1","10","","","","",""
"null","<p style=""font-size: 80px;"">+ 10 points</p>","null","html-keyboard-response","31","186169","0.0-7.0-2.30","5f4380bb7ca9ca5ca407fc04","3y758z","FW","58","F","{""name"":""Chrome"",""chrome"":true,""version"":""106.0"",""blink"":true,""windows"":true,""osname"":""Windows"",""osversion"":""10"",""a"":true}","9:14:30","0","2","Practice_2","70","f","1","2210.4000000953674","1920 x 1080","1920 x 1080","true","1","10","","","","",""
"null","<p style=""font-size: 80px;"">+ 10 points</p>","null","html-keyboard-response","32","190933","0.0-7.0-2.31","5f4380bb7ca9ca5ca407fc04","3y758z","FW","58","F","{""name"":""Chrome"",""chrome"":true,""version"":""106.0"",""blink"":true,""windows"":true,""osname"":""Windows"",""osversion"":""10"",""a"":true}","9:14:30","0","2","Practice_2","70","f","1","2748.0999999046326","1920 x 1080","1920 x 1080","true","1","10","","","","",""
"null","<p style=""font-size: 80px;"">+ 10 points</p>","null","html-keyboard-response","33","194313","0.0-7.0-2.32","5f4380bb7ca9ca5ca407fc04","3y758z","FW","58","F","{""name"":""Chrome"",""chrome"":true,""version"":""106.0"",""blink"":true,""windows"":true,""osname"":""Windows"",""osversion"":""10"",""a"":true}","9:14:30","0","2","Practice_4","70","f","1","1370.7000000476837","1920 x 1080","1920 x 1080","true","1","10","","","","",""
"null","<p style=""font-size: 80px;"">+ 10 points</p>","null","html-keyboard-response","34","197847","0.0-7.0-2.33","5f4380bb7ca9ca5ca407fc04","3y758z","FW","58","F","{""name"":""Chrome"",""chrome"":true,""version"":""106.0"",""blink"":true,""windows"":true,""osname"":""Windows"",""osversion"":""10"",""a"":true}","9:14:30","0","2","Practice_4","70","f","1","1519.7999999523163","1920 x 1080","1920 x 1080","true","1","10","","","","",""
"null","<p style=""font-size: 80px;"">+ 10 points</p>","null","html-keyboard-response","35","201451","0.0-7.0-2.34","5f4380bb7ca9ca5ca407fc04","3y758z","FW","58","F","{""name"":""Chrome"",""chrome"":true,""version"":""106.0"",""blink"":true,""windows"":true,""osname"":""Windows"",""osversion"":""10"",""a"":true}","9:14:30","0","2","Practice_4","70","f","1","1589.4000000953674","1920 x 1080","1920 x 1080","true","1","10","","","","",""
"null","<p style=""font-size: 80px;"">+ 10 points</p>","null","html-keyboard-response","36","205076","0.0-7.0-2.35","5f4380bb7ca9ca5ca407fc04","3y758z","FW","58","F","{""name"":""Chrome"",""chrome"":true,""version"":""106.0"",""blink"":true,""windows"":true,""osname"":""Windows"",""osversion"":""10"",""a"":true}","9:14:30","0","2","Practice_2","70","f","1","1606.7000000476837","1920 x 1080","1920 x 1080","true","1","10","","","","",""
"null","<p style=""font-size: 80px;"">+ 10 points</p>","null","html-keyboard-response","37","208382","0.0-7.0-2.36","5f4380bb7ca9ca5ca407fc04","3y758z","FW","58","F","{""name"":""Chrome"",""chrome"":true,""version"":""106.0"",""blink"":true,""windows"":true,""osname"":""Windows"",""osversion"":""10"",""a"":true}","9:14:30","0","2","Practice_3","74","j","1","1287.7000000476837","1920 x 1080","1920 x 1080","true","1","10","","","","",""
"null","<p style=""font-size: 80px;"">+ 10 points</p>","null","html-keyboard-response","38","211838","0.0-7.0-2.37","5f4380bb7ca9ca5ca407fc04","3y758z","FW","58","F","{""name"":""Chrome"",""chrome"":true,""version"":""106.0"",""blink"":true,""windows"":true,""osname"":""Windows"",""osversion"":""10"",""a"":true}","9:14:30","0","2","Practice_4","70","f","1","1438.3999998569489","1920 x 1080","1920 x 1080","true","1","10","","","","",""
"null","<p style=""font-size: 80px;"">+ 10 points</p>","null","html-keyboard-response","39","215995","0.0-7.0-2.38","5f4380bb7ca9ca5ca407fc04","3y758z","FW","58","F","{""name"":""Chrome"",""chrome"":true,""version"":""106.0"",""blink"":true,""windows"":true,""osname"":""Windows"",""osversion"":""10"",""a"":true}","9:14:30","0","2","Practice_1","74","j","1","2143.899999856949","1920 x 1080","1920 x 1080","true","1","10","","","","",""
"null","<p style=""font-size: 80px;"">+ 10 points</p>","null","html-keyboard-response","40","219124","0.0-7.0-2.39","5f4380bb7ca9ca5ca407fc04","3y758z","FW","58","F","{""name"":""Chrome"",""chrome"":true,""version"":""106.0"",""blink"":true,""windows"":true,""osname"":""Windows"",""osversion"":""10"",""a"":true}","9:14:30","0","2","Practice_3","74","j","1","1111.4000000953674","1920 x 1080","1920 x 1080","true","1","10","","","","",""
"11445.100000143051","","","survey-multi-choice","127","230570","0.0-8.0","5f4380bb7ca9ca5ca407fc04","3y758z","FW","58","F","{""name"":""Chrome"",""chrome"":true,""version"":""106.0"",""blink"":true,""windows"":true,""osname"":""Windows"",""osversion"":""10"",""a"":true}","9:14:30","","","","","","","","","","","1","","{""Q0"":""The red one"",""Q1"":""1""}","[0,1]","1","The red one","2"
"null","<p style=""font-size: 80px;"">+ 0 points</p>","null","html-keyboard-response","1","238393","0.0-11.0-2.0","5f4380bb7ca9ca5ca407fc04","3y758z","FW","58","F","{""name"":""Chrome"",""chrome"":true,""version"":""106.0"",""blink"":true,""windows"":true,""osname"":""Windows"",""osversion"":""10"",""a"":true}","9:14:30","1","4","Test_3","70","j","0","1160.5","1920 x 1080","1920 x 1080","true","1","0","","","","",""
"null","<p style=""font-size: 80px;"">+ 10 points</p>","null","html-keyboard-response","2","241014","0.0-11.0-2.1","5f4380bb7ca9ca5ca407fc04","3y758z","FW","58","F","{""name"":""Chrome"",""chrome"":true,""version"":""106.0"",""blink"":true,""windows"":true,""osname"":""Windows"",""osversion"":""10"",""a"":true}","9:14:30","1","4","Test_3","74","j","1","603.0999999046326","1920 x 1080","1920 x 1080","true","1","10","","","","",""
"null","<p style=""font-size: 80px;"">+ 10 points</p>","null","html-keyboard-response","3","244392","0.0-11.0-2.2","5f4380bb7ca9ca5ca407fc04","3y758z","FW","58","F","{""name"":""Chrome"",""chrome"":true,""version"":""106.0"",""blink"":true,""windows"":true,""osname"":""Windows"",""osversion"":""10"",""a"":true}","9:14:30","1","4","Test_1","74","j","1","1365.7999999523163","1920 x 1080","1920 x 1080","true","1","10","","","","",""
"null","<p style=""font-size: 80px;"">+ 10 points</p>","null","html-keyboard-response","4","247117","0.0-11.0-2.3","5f4380bb7ca9ca5ca407fc04","3y758z","FW","58","F","{""name"":""Chrome"",""chrome"":true,""version"":""106.0"",""blink"":true,""windows"":true,""osname"":""Windows"",""osversion"":""10"",""a"":true}","9:14:30","1","4","Test_4","70","f","1","711","1920 x 1080","1920 x 1080","true","1","10","","","","",""
"null","<p style=""font-size: 80px;"">+ 10 points</p>","null","html-keyboard-response","5","249644","0.0-11.0-2.4","5f4380bb7ca9ca5ca407fc04","3y758z","FW","58","F","{""name"":""Chrome"",""chrome"":true,""version"":""106.0"",""blink"":true,""windows"":true,""osname"":""Windows"",""osversion"":""10"",""a"":true}","9:14:30","1","4","Test_4","70","f","1","513.5999999046326","1920 x 1080","1920 x 1080","true","1","10","","","","",""
"null","<p style=""font-size: 80px;"">+ 10 points</p>","null","html-keyboard-response","6","252620","0.0-11.0-2.5","5f4380bb7ca9ca5ca407fc04","3y758z","FW","58","F","{""name"":""Chrome"",""chrome"":true,""version"":""106.0"",""blink"":true,""windows"":true,""osname"":""Windows"",""osversion"":""10"",""a"":true}","9:14:30","1","4","Test_4","70","f","1","966.2999999523163","1920 x 1080","1920 x 1080","true","1","10","","","","",""
"null","<p style=""font-size: 80px;"">+ 10 points</p>","null","html-keyboard-response","7","255631","0.0-11.0-2.6","5f4380bb7ca9ca5ca407fc04","3y758z","FW","58","F","{""name"":""Chrome"",""chrome"":true,""version"":""106.0"",""blink"":true,""windows"":true,""osname"":""Windows"",""osversion"":""10"",""a"":true}","9:14:30","1","4","Test_3","74","j","1","996.1000001430511","1920 x 1080","1920 x 1080","true","1","10","","","","",""
"null","<p style=""font-size: 80px;"">+ 10 points</p>","null","html-keyboard-response","8","258374","0.0-11.0-2.7","5f4380bb7ca9ca5ca407fc04","3y758z","FW","58","F","{""name"":""Chrome"",""chrome"":true,""version"":""106.0"",""blink"":true,""windows"":true,""osname"":""Windows"",""osversion"":""10"",""a"":true}","9:14:30","1","4","Test_1","74","j","1","726.8000001907349","1920 x 1080","1920 x 1080","true","1","10","","","","",""
"null","<p style=""font-size: 80px;"">+ 10 points</p>","null","html-keyboard-response","9","261090","0.0-11.0-2.8","5f4380bb7ca9ca5ca407fc04","3y758z","FW","58","F","{""name"":""Chrome"",""chrome"":true,""version"":""106.0"",""blink"":true,""windows"":true,""osname"":""Windows"",""osversion"":""10"",""a"":true}","9:14:30","1","4","Test_1","74","j","1","691.6000001430511","1920 x 1080","1920 x 1080","true","1","10","","","","",""
"null","<p style=""font-size: 80px;"">+ 10 points</p>","null","html-keyboard-response","10","264006","0.0-11.0-2.9","5f4380bb7ca9ca5ca407fc04","3y758z","FW","58","F","{""name"":""Chrome"",""chrome"":true,""version"":""106.0"",""blink"":true,""windows"":true,""osname"":""Windows"",""osversion"":""10"",""a"":true}","9:14:30","1","4","Test_2","70","f","1","908.5999999046326","1920 x 1080","1920 x 1080","true","1","10","","","","",""
"null","<p style=""font-size: 80px;"">+ 10 points</p>","null","html-keyboard-response","11","266695","0.0-11.0-2.10","5f4380bb7ca9ca5ca407fc04","3y758z","FW","58","F","{""name"":""Chrome"",""chrome"":true,""version"":""106.0"",""blink"":true,""windows"":true,""osname"":""Windows"",""osversion"":""10"",""a"":true}","9:14:30","1","4","Test_4","70","f","1","669.6000001430511","1920 x 1080","1920 x 1080","true","1","10","","","","",""
"null","<p style=""font-size: 80px;"">+ 10 points</p>","null","html-keyboard-response","12","269421","0.0-11.0-2.11","5f4380bb7ca9ca5ca407fc04","3y758z","FW","58","F","{""name"":""Chrome"",""chrome"":true,""version"":""106.0"",""blink"":true,""windows"":true,""osname"":""Windows"",""osversion"":""10"",""a"":true}","9:14:30","1","4","Test_2","70","f","1","707.1000001430511","1920 x 1080","1920 x 1080","true","1","10","","","","",""
"null","<p style=""font-size: 80px;"">+ 10 points</p>","null","html-keyboard-response","13","272634","0.0-11.0-2.12","5f4380bb7ca9ca5ca407fc04","3y758z","FW","58","F","{""name"":""Chrome"",""chrome"":true,""version"":""106.0"",""blink"":true,""windows"":true,""osname"":""Windows"",""osversion"":""10"",""a"":true}","9:14:30","1","4","Test_3","74","j","1","1197.7999999523163","1920 x 1080","1920 x 1080","true","1","10","","","","",""
"null","<p style=""font-size: 80px;"">+ 10 points</p>","null","html-keyboard-response","14","275282","0.0-11.0-2.13","5f4380bb7ca9ca5ca407fc04","3y758z","FW","58","F","{""name"":""Chrome"",""chrome"":true,""version"":""106.0"",""blink"":true,""windows"":true,""osname"":""Windows"",""osversion"":""10"",""a"":true}","9:14:30","1","4","Test_2","70","f","1","619.9000000953674","1920 x 1080","1920 x 1080","true","1","10","","","","",""
"null","<p style=""font-size: 80px;"">+ 10 points</p>","null","html-keyboard-response","15","277978","0.0-11.0-2.14","5f4380bb7ca9ca5ca407fc04","3y758z","FW","58","F","{""name"":""Chrome"",""chrome"":true,""version"":""106.0"",""blink"":true,""windows"":true,""osname"":""Windows"",""osversion"":""10"",""a"":true}","9:14:30","1","4","Test_2","70","f","1","679.1999998092651","1920 x 1080","1920 x 1080","true","1","10","","","","",""
"null","<p style=""font-size: 80px;"">+ 0 points</p>","null","html-keyboard-response","16","280623","0.0-11.0-2.15","5f4380bb7ca9ca5ca407fc04","3y758z","FW","58","F","{""name"":""Chrome"",""chrome"":true,""version"":""106.0"",""blink"":true,""windows"":true,""osname"":""Windows"",""osversion"":""10"",""a"":true}","9:14:30","1","3","Test_3","74","f","0","633.0999999046326","1920 x 1080","1920 x 1080","true","1","0","","","","",""
"null","<p style=""font-size: 80px;"">+ 0 points</p>","null","html-keyboard-response","17","283444","0.0-11.0-2.16","5f4380bb7ca9ca5ca407fc04","3y758z","FW","58","F","{""name"":""Chrome"",""chrome"":true,""version"":""106.0"",""blink"":true,""windows"":true,""osname"":""Windows"",""osversion"":""10"",""a"":true}","9:14:30","1","3","Test_1","74","f","0","802","1920 x 1080","1920 x 1080","true","1","0","","","","",""
"null","<p style=""font-size: 80px;"">+ 10 points</p>","null","html-keyboard-response","18","286486","0.0-11.0-2.17","5f4380bb7ca9ca5ca407fc04","3y758z","FW","58","F","{""name"":""Chrome"",""chrome"":true,""version"":""106.0"",""blink"":true,""windows"":true,""osname"":""Windows"",""osversion"":""10"",""a"":true}","9:14:30","1","3","Test_2","74","j","1","1032.2000000476837","1920 x 1080","1920 x 1080","true","1","10","","","","",""
"null","<p style=""font-size: 80px;"">+ 10 points</p>","null","html-keyboard-response","19","290595","0.0-11.0-2.18","5f4380bb7ca9ca5ca407fc04","3y758z","FW","58","F","{""name"":""Chrome"",""chrome"":true,""version"":""106.0"",""blink"":true,""windows"":true,""osname"":""Windows"",""osversion"":""10"",""a"":true}","9:14:30","1","3","Test_4","74","j","1","2095.0999999046326","1920 x 1080","1920 x 1080","true","1","10","","","","",""
"null","<p style=""font-size: 80px;"">+ 10 points</p>","null","html-keyboard-response","20","293247","0.0-11.0-2.19","5f4380bb7ca9ca5ca407fc04","3y758z","FW","58","F","{""name"":""Chrome"",""chrome"":true,""version"":""106.0"",""blink"":true,""windows"":true,""osname"":""Windows"",""osversion"":""10"",""a"":true}","9:14:30","1","3","Test_4","74","j","1","636.2000000476837","1920 x 1080","1920 x 1080","true","1","10","","","","",""
"null","<p style=""font-size: 80px;"">+ 10 points</p>","null","html-keyboard-response","21","296167","0.0-11.0-2.20","5f4380bb7ca9ca5ca407fc04","3y758z","FW","58","F","{""name"":""Chrome"",""chrome"":true,""version"":""106.0"",""blink"":true,""windows"":true,""osname"":""Windows"",""osversion"":""10"",""a"":true}","9:14:30","1","3","Test_3","70","f","1","897.6000001430511","1920 x 1080","1920 x 1080","true","1","10","","","","",""
"null","<p style=""font-size: 80px;"">+ 10 points</p>","null","html-keyboard-response","22","299427","0.0-11.0-2.21","5f4380bb7ca9ca5ca407fc04","3y758z","FW","58","F","{""name"":""Chrome"",""chrome"":true,""version"":""106.0"",""blink"":true,""windows"":true,""osname"":""Windows"",""osversion"":""10"",""a"":true}","9:14:30","1","3","Test_4","74","j","1","1235.2999999523163","1920 x 1080","1920 x 1080","true","1","10","","","","",""
"null","<p style=""font-size: 80px;"">+ 10 points</p>","null","html-keyboard-response","23","303609","0.0-11.0-2.22","5f4380bb7ca9ca5ca407fc04","3y758z","FW","58","F","{""name"":""Chrome"",""chrome"":true,""version"":""106.0"",""blink"":true,""windows"":true,""osname"":""Windows"",""osversion"":""10"",""a"":true}","9:14:30","1","3","Test_2","74","j","1","2170.5","1920 x 1080","1920 x 1080","true","1","10","","","","",""
"null","<p style=""font-size: 80px;"">+ 10 points</p>","null","html-keyboard-response","24","307423","0.0-11.0-2.23","5f4380bb7ca9ca5ca407fc04","3y758z","FW","58","F","{""name"":""Chrome"",""chrome"":true,""version"":""106.0"",""blink"":true,""windows"":true,""osname"":""Windows"",""osversion"":""10"",""a"":true}","9:14:30","1","3","Test_3","70","f","1","1793.7000000476837","1920 x 1080","1920 x 1080","true","1","10","","","","",""
"null","<p style=""font-size: 80px;"">+ 0 points</p>","null","html-keyboard-response","25","311310","0.0-11.0-2.24","5f4380bb7ca9ca5ca407fc04","3y758z","FW","58","F","{""name"":""Chrome"",""chrome"":true,""version"":""106.0"",""blink"":true,""windows"":true,""osname"":""Windows"",""osversion"":""10"",""a"":true}","9:14:30","1","3","Test_2","70","j","0","1861.2999999523163","1920 x 1080","1920 x 1080","true","1","0","","","","",""
"null","<p style=""font-size: 80px;"">+ 10 points</p>","null","html-keyboard-response","26","314547","0.0-11.0-2.25","5f4380bb7ca9ca5ca407fc04","3y758z","FW","58","F","{""name"":""Chrome"",""chrome"":true,""version"":""106.0"",""blink"":true,""windows"":true,""osname"":""Windows"",""osversion"":""10"",""a"":true}","9:14:30","1","3","Test_1","70","f","1","1219.5","1920 x 1080","1920 x 1080","true","1","10","","","","",""
"null","<p style=""font-size: 80px;"">+ 10 points</p>","null","html-keyboard-response","27","317474","0.0-11.0-2.26","5f4380bb7ca9ca5ca407fc04","3y758z","FW","58","F","{""name"":""Chrome"",""chrome"":true,""version"":""106.0"",""blink"":true,""windows"":true,""osname"":""Windows"",""osversion"":""10"",""a"":true}","9:14:30","1","3","Test_4","74","j","1","915.1000001430511","1920 x 1080","1920 x 1080","true","1","10","","","","",""
"null","<p style=""font-size: 80px;"">+ 10 points</p>","null","html-keyboard-response","28","321057","0.0-11.0-2.27","5f4380bb7ca9ca5ca407fc04","3y758z","FW","58","F","{""name"":""Chrome"",""chrome"":true,""version"":""106.0"",""blink"":true,""windows"":true,""osname"":""Windows"",""osversion"":""10"",""a"":true}","9:14:30","1","3","Test_1","70","f","1","1571.2999999523163","1920 x 1080","1920 x 1080","true","1","10","","","","",""
"null","<p style=""font-size: 80px;"">+ 10 points</p>","null","html-keyboard-response","29","325691","0.0-11.0-2.28","5f4380bb7ca9ca5ca407fc04","3y758z","FW","58","F","{""name"":""Chrome"",""chrome"":true,""version"":""106.0"",""blink"":true,""windows"":true,""osname"":""Windows"",""osversion"":""10"",""a"":true}","9:14:30","1","3","Test_1","70","f","1","2618.7000000476837","1920 x 1080","1920 x 1080","true","1","10","","","","",""
"null","<p style=""font-size: 80px;"">+ 10 points</p>","null","html-keyboard-response","30","329647","0.0-11.0-2.29","5f4380bb7ca9ca5ca407fc04","3y758z","FW","58","F","{""name"":""Chrome"",""chrome"":true,""version"":""106.0"",""blink"":true,""windows"":true,""osname"":""Windows"",""osversion"":""10"",""a"":true}","9:14:30","1","3","Test_3","70","f","1","1938.7000000476837","1920 x 1080","1920 x 1080","true","1","10","","","","",""
"null","<p style=""font-size: 80px;"">+ 10 points</p>","null","html-keyboard-response","31","333412","0.0-11.0-2.30","5f4380bb7ca9ca5ca407fc04","3y758z","FW","58","F","{""name"":""Chrome"",""chrome"":true,""version"":""106.0"",""blink"":true,""windows"":true,""osname"":""Windows"",""osversion"":""10"",""a"":true}","9:14:30","1","3","Test_2","74","j","1","1748.7000000476837","1920 x 1080","1920 x 1080","true","1","10","","","","",""
"null","<p style=""font-size: 80px;"">+ 10 points</p>","null","html-keyboard-response","32","336282","0.0-11.0-2.31","5f4380bb7ca9ca5ca407fc04","3y758z","FW","58","F","{""name"":""Chrome"",""chrome"":true,""version"":""106.0"",""blink"":true,""windows"":true,""osname"":""Windows"",""osversion"":""10"",""a"":true}","9:14:30","1","3","Test_4","74","j","1","861.1000001430511","1920 x 1080","1920 x 1080","true","1","10","","","","",""
"null","<p style=""font-size: 80px;"">+ 10 points</p>","null","html-keyboard-response","33","339042","0.0-11.0-2.32","5f4380bb7ca9ca5ca407fc04","3y758z","FW","58","F","{""name"":""Chrome"",""chrome"":true,""version"":""106.0"",""blink"":true,""windows"":true,""osname"":""Windows"",""osversion"":""10"",""a"":true}","9:14:30","1","3","Test_3","70","f","1","744.2999999523163","1920 x 1080","1920 x 1080","true","1","10","","","","",""
"null","<p style=""font-size: 80px;"">+ 10 points</p>","null","html-keyboard-response","34","343366","0.0-11.0-2.33","5f4380bb7ca9ca5ca407fc04","3y758z","FW","58","F","{""name"":""Chrome"",""chrome"":true,""version"":""106.0"",""blink"":true,""windows"":true,""osname"":""Windows"",""osversion"":""10"",""a"":true}","9:14:30","1","3","Test_2","74","j","1","2310.9000000953674","1920 x 1080","1920 x 1080","true","1","10","","","","",""
"null","<p style=""font-size: 80px;"">+ 0 points</p>","null","html-keyboard-response","35","347089","0.0-11.0-2.34","5f4380bb7ca9ca5ca407fc04","3y758z","FW","58","F","{""name"":""Chrome"",""chrome"":true,""version"":""106.0"",""blink"":true,""windows"":true,""osname"":""Windows"",""osversion"":""10"",""a"":true}","9:14:30","1","3","Test_4","70","j","0","1706.8999998569489","1920 x 1080","1920 x 1080","true","1","0","","","","",""
"null","<p style=""font-size: 80px;"">+ 10 points</p>","null","html-keyboard-response","36","350907","0.0-11.0-2.35","5f4380bb7ca9ca5ca407fc04","3y758z","FW","58","F","{""name"":""Chrome"",""chrome"":true,""version"":""106.0"",""blink"":true,""windows"":true,""osname"":""Windows"",""osversion"":""10"",""a"":true}","9:14:30","1","3","Test_3","70","f","1","1800.7999999523163","1920 x 1080","1920 x 1080","true","1","10","","","","",""
"null","<p style=""font-size: 80px;"">+ 0 points</p>","null","html-keyboard-response","37","355241","0.0-11.0-2.36","5f4380bb7ca9ca5ca407fc04","3y758z","FW","58","F","{""name"":""Chrome"",""chrome"":true,""version"":""106.0"",""blink"":true,""windows"":true,""osname"":""Windows"",""osversion"":""10"",""a"":true}","9:14:30","1","3","Test_1","74","f","0","2314","1920 x 1080","1920 x 1080","true","1","0","","","","",""
"null","<p style=""font-size: 80px;"">+ 10 points</p>","null","html-keyboard-response","38","358343","0.0-11.0-2.37","5f4380bb7ca9ca5ca407fc04","3y758z","FW","58","F","{""name"":""Chrome"",""chrome"":true,""version"":""106.0"",""blink"":true,""windows"":true,""osname"":""Windows"",""osversion"":""10"",""a"":true}","9:14:30","1","3","Test_1","70","f","1","1087.2999999523163","1920 x 1080","1920 x 1080","true","1","10","","","","",""
"null","<p style=""font-size: 80px;"">+ 0 points</p>","null","html-keyboard-response","39","360828","0.0-11.0-2.38","5f4380bb7ca9ca5ca407fc04","3y758z","FW","58","F","{""name"":""Chrome"",""chrome"":true,""version"":""106.0"",""blink"":true,""windows"":true,""osname"":""Windows"",""osversion"":""10"",""a"":true}","9:14:30","1","4","Test_1","70","j","0","459","1920 x 1080","1920 x 1080","true","1","0","","","","",""
"null","<p style=""font-size: 80px;"">+ 10 points</p>","null","html-keyboard-response","40","363823","0.0-11.0-2.39","5f4380bb7ca9ca5ca407fc04","3y758z","FW","58","F","{""name"":""Chrome"",""chrome"":true,""version"":""106.0"",""blink"":true,""windows"":true,""osname"":""Windows"",""osversion"":""10"",""a"":true}","9:14:30","1","4","Test_2","70","f","1","969.2999999523163","1920 x 1080","1920 x 1080","true","1","10","","","","",""
"null","<p style=""font-size: 80px;"">+ 10 points</p>","null","html-keyboard-response","41","367252","0.0-11.0-2.40","5f4380bb7ca9ca5ca407fc04","3y758z","FW","58","F","{""name"":""Chrome"",""chrome"":true,""version"":""106.0"",""blink"":true,""windows"":true,""osname"":""Windows"",""osversion"":""10"",""a"":true}","9:14:30","1","4","Test_1","74","j","1","1410","1920 x 1080","1920 x 1080","true","1","10","","","","",""
"null","<p style=""font-size: 80px;"">+ 10 points</p>","null","html-keyboard-response","42","369907","0.0-11.0-2.41","5f4380bb7ca9ca5ca407fc04","3y758z","FW","58","F","{""name"":""Chrome"",""chrome"":true,""version"":""106.0"",""blink"":true,""windows"":true,""osname"":""Windows"",""osversion"":""10"",""a"":true}","9:14:30","1","4","Test_4","70","f","1","635.1999998092651","1920 x 1080","1920 x 1080","true","1","10","","","","",""
"null","<p style=""font-size: 80px;"">+ 10 points</p>","null","html-keyboard-response","43","372541","0.0-11.0-2.42","5f4380bb7ca9ca5ca407fc04","3y758z","FW","58","F","{""name"":""Chrome"",""chrome"":true,""version"":""106.0"",""blink"":true,""windows"":true,""osname"":""Windows"",""osversion"":""10"",""a"":true}","9:14:30","1","4","Test_4","70","f","1","623.4000000953674","1920 x 1080","1920 x 1080","true","1","10","","","","",""
"null","<p style=""font-size: 80px;"">+ 0 points</p>","null","html-keyboard-response","44","375138","0.0-11.0-2.43","5f4380bb7ca9ca5ca407fc04","3y758z","FW","58","F","{""name"":""Chrome"",""chrome"":true,""version"":""106.0"",""blink"":true,""windows"":true,""osname"":""Windows"",""osversion"":""10"",""a"":true}","9:14:30","1","4","Test_1","70","j","0","579.7999999523163","1920 x 1080","1920 x 1080","true","1","0","","","","",""
"null","<p style=""font-size: 80px;"">+ 10 points</p>","null","html-keyboard-response","45","378237","0.0-11.0-2.44","5f4380bb7ca9ca5ca407fc04","3y758z","FW","58","F","{""name"":""Chrome"",""chrome"":true,""version"":""106.0"",""blink"":true,""windows"":true,""osname"":""Windows"",""osversion"":""10"",""a"":true}","9:14:30","1","4","Test_3","74","j","1","1082","1920 x 1080","1920 x 1080","true","1","10","","","","",""
"null","<p style=""font-size: 80px;"">+ 10 points</p>","null","html-keyboard-response","46","380878","0.0-11.0-2.45","5f4380bb7ca9ca5ca407fc04","3y758z","FW","58","F","{""name"":""Chrome"",""chrome"":true,""version"":""106.0"",""blink"":true,""windows"":true,""osname"":""Windows"",""osversion"":""10"",""a"":true}","9:14:30","1","4","Test_2","70","f","1","623.3999998569489","1920 x 1080","1920 x 1080","true","1","10","","","","",""
"null","<p style=""font-size: 80px;"">+ 10 points</p>","null","html-keyboard-response","47","383392","0.0-11.0-2.46","5f4380bb7ca9ca5ca407fc04","3y758z","FW","58","F","{""name"":""Chrome"",""chrome"":true,""version"":""106.0"",""blink"":true,""windows"":true,""osname"":""Windows"",""osversion"":""10"",""a"":true}","9:14:30","1","4","Test_3","74","j","1","491","1920 x 1080","1920 x 1080","true","1","10","","","","",""
"null","<p style=""font-size: 80px;"">+ 10 points</p>","null","html-keyboard-response","48","386024","0.0-11.0-2.47","5f4380bb7ca9ca5ca407fc04","3y758z","FW","58","F","{""name"":""Chrome"",""chrome"":true,""version"":""106.0"",""blink"":true,""windows"":true,""osname"":""Windows"",""osversion"":""10"",""a"":true}","9:14:30","1","4","Test_3","74","j","1","607","1920 x 1080","1920 x 1080","true","1","10","","","","",""
"null","<p style=""font-size: 80px;"">+ 10 points</p>","null","html-keyboard-response","49","388536","0.0-11.0-2.48","5f4380bb7ca9ca5ca407fc04","3y758z","FW","58","F","{""name"":""Chrome"",""chrome"":true,""version"":""106.0"",""blink"":true,""windows"":true,""osname"":""Windows"",""osversion"":""10"",""a"":true}","9:14:30","1","4","Test_2","70","f","1","488.59999990463257","1920 x 1080","1920 x 1080","true","1","10","","","","",""
"null","<p style=""font-size: 80px;"">+ 10 points</p>","null","html-keyboard-response","50","390973","0.0-11.0-2.49","5f4380bb7ca9ca5ca407fc04","3y758z","FW","58","F","{""name"":""Chrome"",""chrome"":true,""version"":""106.0"",""blink"":true,""windows"":true,""osname"":""Windows"",""osversion"":""10"",""a"":true}","9:14:30","1","4","Test_3","74","j","1","426.7000000476837","1920 x 1080","1920 x 1080","true","1","10","","","","",""
"null","<p style=""font-size: 80px;"">+ 10 points</p>","null","html-keyboard-response","51","393859","0.0-11.0-2.50","5f4380bb7ca9ca5ca407fc04","3y758z","FW","58","F","{""name"":""Chrome"",""chrome"":true,""version"":""106.0"",""blink"":true,""windows"":true,""osname"":""Windows"",""osversion"":""10"",""a"":true}","9:14:30","1","4","Test_4","70","f","1","859.5999999046326","1920 x 1080","1920 x 1080","true","1","10","","","","",""
"null","<p style=""font-size: 80px;"">+ 10 points</p>","null","html-keyboard-response","52","396452","0.0-11.0-2.51","5f4380bb7ca9ca5ca407fc04","3y758z","FW","58","F","{""name"":""Chrome"",""chrome"":true,""version"":""106.0"",""blink"":true,""windows"":true,""osname"":""Windows"",""osversion"":""10"",""a"":true}","9:14:30","1","4","Test_4","70","f","1","576.4000000953674","1920 x 1080","1920 x 1080","true","1","10","","","","",""
"null","<p style=""font-size: 80px;"">+ 10 points</p>","null","html-keyboard-response","53","399694","0.0-11.0-2.52","5f4380bb7ca9ca5ca407fc04","3y758z","FW","58","F","{""name"":""Chrome"",""chrome"":true,""version"":""106.0"",""blink"":true,""windows"":true,""osname"":""Windows"",""osversion"":""10"",""a"":true}","9:14:30","1","4","Test_2","70","f","1","1225.0999999046326","1920 x 1080","1920 x 1080","true","1","10","","","","",""
"null","<p style=""font-size: 80px;"">+ 10 points</p>","null","html-keyboard-response","54","402242","0.0-11.0-2.53","5f4380bb7ca9ca5ca407fc04","3y758z","FW","58","F","{""name"":""Chrome"",""chrome"":true,""version"":""106.0"",""blink"":true,""windows"":true,""osname"":""Windows"",""osversion"":""10"",""a"":true}","9:14:30","1","4","Test_3","74","j","1","537.2999999523163","1920 x 1080","1920 x 1080","true","1","10","","","","",""
"null","<p style=""font-size: 80px;"">+ 10 points</p>","null","html-keyboard-response","55","405270","0.0-11.0-2.54","5f4380bb7ca9ca5ca407fc04","3y758z","FW","58","F","{""name"":""Chrome"",""chrome"":true,""version"":""106.0"",""blink"":true,""windows"":true,""osname"":""Windows"",""osversion"":""10"",""a"":true}","9:14:30","1","4","Test_1","74","j","1","1013.5","1920 x 1080","1920 x 1080","true","1","10","","","","",""
"null","<p style=""font-size: 80px;"">+ 10 points</p>","null","html-keyboard-response","56","409320","0.0-11.0-2.55","5f4380bb7ca9ca5ca407fc04","3y758z","FW","58","F","{""name"":""Chrome"",""chrome"":true,""version"":""106.0"",""blink"":true,""windows"":true,""osname"":""Windows"",""osversion"":""10"",""a"":true}","9:14:30","1","3","Test_1","70","f","1","2037.3000001907349","1920 x 1080","1920 x 1080","true","1","10","","","","",""
"null","<p style=""font-size: 80px;"">+ 10 points</p>","null","html-keyboard-response","57","412378","0.0-11.0-2.56","5f4380bb7ca9ca5ca407fc04","3y758z","FW","58","F","{""name"":""Chrome"",""chrome"":true,""version"":""106.0"",""blink"":true,""windows"":true,""osname"":""Windows"",""osversion"":""10"",""a"":true}","9:14:30","1","3","Test_2","74","j","1","1034.5999999046326","1920 x 1080","1920 x 1080","true","1","10","","","","",""
"null","<p style=""font-size: 80px;"">+ 0 points</p>","null","html-keyboard-response","58","417324","0.0-11.0-2.57","5f4380bb7ca9ca5ca407fc04","3y758z","FW","58","F","{""name"":""Chrome"",""chrome"":true,""version"":""106.0"",""blink"":true,""windows"":true,""osname"":""Windows"",""osversion"":""10"",""a"":true}","9:14:30","1","3","Test_1","74","f","0","2930.899999856949","1920 x 1080","1920 x 1080","true","1","0","","","","",""
"null","<p style=""font-size: 80px;"">+ 10 points</p>","null","html-keyboard-response","59","420721","0.0-11.0-2.58","5f4380bb7ca9ca5ca407fc04","3y758z","FW","58","F","{""name"":""Chrome"",""chrome"":true,""version"":""106.0"",""blink"":true,""windows"":true,""osname"":""Windows"",""osversion"":""10"",""a"":true}","9:14:30","1","3","Test_2","74","j","1","1374.7000000476837","1920 x 1080","1920 x 1080","true","1","10","","","","",""
"null","<p style=""font-size: 80px;"">+ 10 points</p>","null","html-keyboard-response","60","423340","0.0-11.0-2.59","5f4380bb7ca9ca5ca407fc04","3y758z","FW","58","F","{""name"":""Chrome"",""chrome"":true,""version"":""106.0"",""blink"":true,""windows"":true,""osname"":""Windows"",""osversion"":""10"",""a"":true}","9:14:30","1","3","Test_3","70","f","1","594","1920 x 1080","1920 x 1080","true","1","10","","","","",""
"null","<p style=""font-size: 80px;"">+ 10 points</p>","null","html-keyboard-response","61","426236","0.0-11.0-2.60","5f4380bb7ca9ca5ca407fc04","3y758z","FW","58","F","{""name"":""Chrome"",""chrome"":true,""version"":""106.0"",""blink"":true,""windows"":true,""osname"":""Windows"",""osversion"":""10"",""a"":true}","9:14:30","1","3","Test_4","74","j","1","881.3999998569489","1920 x 1080","1920 x 1080","true","1","10","","","","",""
"null","<p style=""font-size: 80px;"">+ 10 points</p>","null","html-keyboard-response","62","428811","0.0-11.0-2.61","5f4380bb7ca9ca5ca407fc04","3y758z","FW","58","F","{""name"":""Chrome"",""chrome"":true,""version"":""106.0"",""blink"":true,""windows"":true,""osname"":""Windows"",""osversion"":""10"",""a"":true}","9:14:30","1","3","Test_4","74","j","1","560","1920 x 1080","1920 x 1080","true","1","10","","","","",""
"null","<p style=""font-size: 80px;"">+ 10 points</p>","null","html-keyboard-response","63","431572","0.0-11.0-2.62","5f4380bb7ca9ca5ca407fc04","3y758z","FW","58","F","{""name"":""Chrome"",""chrome"":true,""version"":""106.0"",""blink"":true,""windows"":true,""osname"":""Windows"",""osversion"":""10"",""a"":true}","9:14:30","1","3","Test_2","74","j","1","745.3999998569489","1920 x 1080","1920 x 1080","true","1","10","","","","",""
"null","<p style=""font-size: 80px;"">+ 10 points</p>","null","html-keyboard-response","64","434783","0.0-11.0-2.63","5f4380bb7ca9ca5ca407fc04","3y758z","FW","58","F","{""name"":""Chrome"",""chrome"":true,""version"":""106.0"",""blink"":true,""windows"":true,""osname"":""Windows"",""osversion"":""10"",""a"":true}","9:14:30","1","3","Test_1","70","f","1","1193.5","1920 x 1080","1920 x 1080","true","1","10","","","","",""
"null","<p style=""font-size: 80px;"">+ 0 points</p>","null","html-keyboard-response","65","439126","0.0-11.0-2.64","5f4380bb7ca9ca5ca407fc04","3y758z","FW","58","F","{""name"":""Chrome"",""chrome"":true,""version"":""106.0"",""blink"":true,""windows"":true,""osname"":""Windows"",""osversion"":""10"",""a"":true}","9:14:30","1","3","Test_3","74","f","0","2330.5999999046326","1920 x 1080","1920 x 1080","true","1","0","","","","",""
"null","<p style=""font-size: 80px;"">+ 10 points</p>","null","html-keyboard-response","66","442185","0.0-11.0-2.65","5f4380bb7ca9ca5ca407fc04","3y758z","FW","58","F","{""name"":""Chrome"",""chrome"":true,""version"":""106.0"",""blink"":true,""windows"":true,""osname"":""Windows"",""osversion"":""10"",""a"":true}","9:14:30","1","3","Test_1","70","f","1","1039.5999999046326","1920 x 1080","1920 x 1080","true","1","10","","","","",""
"null","<p style=""font-size: 80px;"">+ 10 points</p>","null","html-keyboard-response","67","444666","0.0-11.0-2.66","5f4380bb7ca9ca5ca407fc04","3y758z","FW","58","F","{""name"":""Chrome"",""chrome"":true,""version"":""106.0"",""blink"":true,""windows"":true,""osname"":""Windows"",""osversion"":""10"",""a"":true}","9:14:30","1","3","Test_2","74","j","1","464.2999999523163","1920 x 1080","1920 x 1080","true","1","10","","","","",""
"null","<p style=""font-size: 80px;"">+ 10 points</p>","null","html-keyboard-response","68","447544","0.0-11.0-2.67","5f4380bb7ca9ca5ca407fc04","3y758z","FW","58","F","{""name"":""Chrome"",""chrome"":true,""version"":""106.0"",""blink"":true,""windows"":true,""osname"":""Windows"",""osversion"":""10"",""a"":true}","9:14:30","1","3","Test_4","74","j","1","858.2000000476837","1920 x 1080","1920 x 1080","true","1","10","","","","",""
"null","<p style=""font-size: 80px;"">+ 10 points</p>","null","html-keyboard-response","69","450412","0.0-11.0-2.68","5f4380bb7ca9ca5ca407fc04","3y758z","FW","58","F","{""name"":""Chrome"",""chrome"":true,""version"":""106.0"",""blink"":true,""windows"":true,""osname"":""Windows"",""osversion"":""10"",""a"":true}","9:14:30","1","3","Test_3","70","f","1","858","1920 x 1080","1920 x 1080","true","1","10","","","","",""
"null","<p style=""font-size: 80px;"">+ 10 points</p>","null","html-keyboard-response","70","453091","0.0-11.0-2.69","5f4380bb7ca9ca5ca407fc04","3y758z","FW","58","F","{""name"":""Chrome"",""chrome"":true,""version"":""106.0"",""blink"":true,""windows"":true,""osname"":""Windows"",""osversion"":""10"",""a"":true}","9:14:30","1","3","Test_3","70","f","1","657.5999999046326","1920 x 1080","1920 x 1080","true","1","10","","","","",""
"null","<p style=""font-size: 80px;"">+ 10 points</p>","null","html-keyboard-response","71","455993","0.0-11.0-2.70","5f4380bb7ca9ca5ca407fc04","3y758z","FW","58","F","{""name"":""Chrome"",""chrome"":true,""version"":""106.0"",""blink"":true,""windows"":true,""osname"":""Windows"",""osversion"":""10"",""a"":true}","9:14:30","1","3","Test_4","74","j","1","882.8999998569489","1920 x 1080","1920 x 1080","true","1","10","","","","",""
"null","<p style=""font-size: 80px;"">+ 10 points</p>","null","html-keyboard-response","72","459051","0.0-11.0-2.71","5f4380bb7ca9ca5ca407fc04","3y758z","FW","58","F","{""name"":""Chrome"",""chrome"":true,""version"":""106.0"",""blink"":true,""windows"":true,""osname"":""Windows"",""osversion"":""10"",""a"":true}","9:14:30","1","3","Test_4","74","j","1","1049.2999999523163","1920 x 1080","1920 x 1080","true","1","10","","","","",""
"null","<p style=""font-size: 80px;"">+ 10 points</p>","null","html-keyboard-response","73","461892","0.0-11.0-2.72","5f4380bb7ca9ca5ca407fc04","3y758z","FW","58","F","{""name"":""Chrome"",""chrome"":true,""version"":""106.0"",""blink"":true,""windows"":true,""osname"":""Windows"",""osversion"":""10"",""a"":true}","9:14:30","1","3","Test_3","70","f","1","820","1920 x 1080","1920 x 1080","true","1","10","","","","",""
"null","<p style=""font-size: 80px;"">+ 10 points</p>","null","html-keyboard-response","74","464590","0.0-11.0-2.73","5f4380bb7ca9ca5ca407fc04","3y758z","FW","58","F","{""name"":""Chrome"",""chrome"":true,""version"":""106.0"",""blink"":true,""windows"":true,""osname"":""Windows"",""osversion"":""10"",""a"":true}","9:14:30","1","3","Test_4","74","j","1","680","1920 x 1080","1920 x 1080","true","1","10","","","","",""
"null","<p style=""font-size: 80px;"">+ 10 points</p>","null","html-keyboard-response","75","467882","0.0-11.0-2.74","5f4380bb7ca9ca5ca407fc04","3y758z","FW","58","F","{""name"":""Chrome"",""chrome"":true,""version"":""106.0"",""blink"":true,""windows"":true,""osname"":""Windows"",""osversion"":""10"",""a"":true}","9:14:30","1","3","Test_3","70","f","1","1281.2999999523163","1920 x 1080","1920 x 1080","true","1","10","","","","",""
"null","<p style=""font-size: 80px;"">+ 10 points</p>","null","html-keyboard-response","76","470838","0.0-11.0-2.75","5f4380bb7ca9ca5ca407fc04","3y758z","FW","58","F","{""name"":""Chrome"",""chrome"":true,""version"":""106.0"",""blink"":true,""windows"":true,""osname"":""Windows"",""osversion"":""10"",""a"":true}","9:14:30","1","3","Test_2","74","j","1","933.7999999523163","1920 x 1080","1920 x 1080","true","1","10","","","","",""
"null","<p style=""font-size: 80px;"">+ 10 points</p>","null","html-keyboard-response","77","473645","0.0-11.0-2.76","5f4380bb7ca9ca5ca407fc04","3y758z","FW","58","F","{""name"":""Chrome"",""chrome"":true,""version"":""106.0"",""blink"":true,""windows"":true,""osname"":""Windows"",""osversion"":""10"",""a"":true}","9:14:30","1","3","Test_1","70","f","1","788.4000000953674","1920 x 1080","1920 x 1080","true","1","10","","","","",""
"null","<p style=""font-size: 80px;"">+ 0 points</p>","null","html-keyboard-response","78","477400","0.0-11.0-2.77","5f4380bb7ca9ca5ca407fc04","3y758z","FW","58","F","{""name"":""Chrome"",""chrome"":true,""version"":""106.0"",""blink"":true,""windows"":true,""osname"":""Windows"",""osversion"":""10"",""a"":true}","9:14:30","1","4","Test_3","70","j","0","1735.2000000476837","1920 x 1080","1920 x 1080","true","1","0","","","","",""
"null","<p style=""font-size: 80px;"">+ 10 points</p>","null","html-keyboard-response","79","480461","0.0-11.0-2.78","5f4380bb7ca9ca5ca407fc04","3y758z","FW","58","F","{""name"":""Chrome"",""chrome"":true,""version"":""106.0"",""blink"":true,""windows"":true,""osname"":""Windows"",""osversion"":""10"",""a"":true}","9:14:30","1","4","Test_4","70","f","1","1048.6000001430511","1920 x 1080","1920 x 1080","true","1","10","","","","",""
"null","<p style=""font-size: 80px;"">+ 10 points</p>","null","html-keyboard-response","80","482941","0.0-11.0-2.79","5f4380bb7ca9ca5ca407fc04","3y758z","FW","58","F","{""name"":""Chrome"",""chrome"":true,""version"":""106.0"",""blink"":true,""windows"":true,""osname"":""Windows"",""osversion"":""10"",""a"":true}","9:14:30","1","4","Test_4","70","f","1","456.90000009536743","1920 x 1080","1920 x 1080","true","1","10","","","","",""
"null","<p style=""font-size: 80px;"">+ 10 points</p>","null","html-keyboard-response","81","485660","0.0-11.0-2.80","5f4380bb7ca9ca5ca407fc04","3y758z","FW","58","F","{""name"":""Chrome"",""chrome"":true,""version"":""106.0"",""blink"":true,""windows"":true,""osname"":""Windows"",""osversion"":""10"",""a"":true}","9:14:30","1","4","Test_1","74","j","1","699.3000001907349","1920 x 1080","1920 x 1080","true","1","10","","","","",""
"null","<p style=""font-size: 80px;"">+ 10 points</p>","null","html-keyboard-response","82","488509","0.0-11.0-2.81","5f4380bb7ca9ca5ca407fc04","3y758z","FW","58","F","{""name"":""Chrome"",""chrome"":true,""version"":""106.0"",""blink"":true,""windows"":true,""osname"":""Windows"",""osversion"":""10"",""a"":true}","9:14:30","1","4","Test_2","70","f","1","829.2999999523163","1920 x 1080","1920 x 1080","true","1","10","","","","",""
"null","<p style=""font-size: 80px;"">+ 10 points</p>","null","html-keyboard-response","83","491050","0.0-11.0-2.82","5f4380bb7ca9ca5ca407fc04","3y758z","FW","58","F","{""name"":""Chrome"",""chrome"":true,""version"":""106.0"",""blink"":true,""windows"":true,""osname"":""Windows"",""osversion"":""10"",""a"":true}","9:14:30","1","4","Test_2","70","f","1","521.5","1920 x 1080","1920 x 1080","true","1","10","","","","",""
"null","<p style=""font-size: 80px;"">+ 10 points</p>","null","html-keyboard-response","84","493911","0.0-11.0-2.83","5f4380bb7ca9ca5ca407fc04","3y758z","FW","58","F","{""name"":""Chrome"",""chrome"":true,""version"":""106.0"",""blink"":true,""windows"":true,""osname"":""Windows"",""osversion"":""10"",""a"":true}","9:14:30","1","4","Test_2","70","f","1","841.2000000476837","1920 x 1080","1920 x 1080","true","1","10","","","","",""
"null","<p style=""font-size: 80px;"">+ 10 points</p>","null","html-keyboard-response","85","497237","0.0-11.0-2.84","5f4380bb7ca9ca5ca407fc04","3y758z","FW","58","F","{""name"":""Chrome"",""chrome"":true,""version"":""106.0"",""blink"":true,""windows"":true,""osname"":""Windows"",""osversion"":""10"",""a"":true}","9:14:30","1","4","Test_1","74","j","1","1305.2000000476837","1920 x 1080","1920 x 1080","true","1","10","","","","",""
"null","<p style=""font-size: 80px;"">+ 10 points</p>","null","html-keyboard-response","86","499787","0.0-11.0-2.85","5f4380bb7ca9ca5ca407fc04","3y758z","FW","58","F","{""name"":""Chrome"",""chrome"":true,""version"":""106.0"",""blink"":true,""windows"":true,""osname"":""Windows"",""osversion"":""10"",""a"":true}","9:14:30","1","4","Test_1","74","j","1","538.5","1920 x 1080","1920 x 1080","true","1","10","","","","",""
"null","<p style=""font-size: 80px;"">+ 10 points</p>","null","html-keyboard-response","87","504171","0.0-11.0-2.86","5f4380bb7ca9ca5ca407fc04","3y758z","FW","58","F","{""name"":""Chrome"",""chrome"":true,""version"":""106.0"",""blink"":true,""windows"":true,""osname"":""Windows"",""osversion"":""10"",""a"":true}","9:14:30","1","4","Test_3","74","j","1","2369.5","1920 x 1080","1920 x 1080","true","1","10","","","","",""
"null","<p style=""font-size: 80px;"">+ 10 points</p>","null","html-keyboard-response","88","506795","0.0-11.0-2.87","5f4380bb7ca9ca5ca407fc04","3y758z","FW","58","F","{""name"":""Chrome"",""chrome"":true,""version"":""106.0"",""blink"":true,""windows"":true,""osname"":""Windows"",""osversion"":""10"",""a"":true}","9:14:30","1","4","Test_4","70","f","1","608.7000000476837","1920 x 1080","1920 x 1080","true","1","10","","","","",""
"null","<p style=""font-size: 80px;"">+ 10 points</p>","null","html-keyboard-response","89","509948","0.0-11.0-2.88","5f4380bb7ca9ca5ca407fc04","3y758z","FW","58","F","{""name"":""Chrome"",""chrome"":true,""version"":""106.0"",""blink"":true,""windows"":true,""osname"":""Windows"",""osversion"":""10"",""a"":true}","9:14:30","1","4","Test_3","74","j","1","1133","1920 x 1080","1920 x 1080","true","1","10","","","","",""
"null","<p style=""font-size: 80px;"">+ 10 points</p>","null","html-keyboard-response","90","512968","0.0-11.0-2.89","5f4380bb7ca9ca5ca407fc04","3y758z","FW","58","F","{""name"":""Chrome"",""chrome"":true,""version"":""106.0"",""blink"":true,""windows"":true,""osname"":""Windows"",""osversion"":""10"",""a"":true}","9:14:30","1","4","Test_4","70","f","1","1008.9000000953674","1920 x 1080","1920 x 1080","true","1","10","","","","",""
"null","<p style=""font-size: 80px;"">+ 10 points</p>","null","html-keyboard-response","91","515948","0.0-11.0-2.90","5f4380bb7ca9ca5ca407fc04","3y758z","FW","58","F","{""name"":""Chrome"",""chrome"":true,""version"":""106.0"",""blink"":true,""windows"":true,""osname"":""Windows"",""osversion"":""10"",""a"":true}","9:14:30","1","4","Test_1","74","j","1","953.4000000953674","1920 x 1080","1920 x 1080","true","1","10","","","","",""
"null","<p style=""font-size: 80px;"">+ 10 points</p>","null","html-keyboard-response","92","519811","0.0-11.0-2.91","5f4380bb7ca9ca5ca407fc04","3y758z","FW","58","F","{""name"":""Chrome"",""chrome"":true,""version"":""106.0"",""blink"":true,""windows"":true,""osname"":""Windows"",""osversion"":""10"",""a"":true}","9:14:30","1","4","Test_3","74","j","1","1851.7999999523163","1920 x 1080","1920 x 1080","true","1","10","","","","",""
"null","<p style=""font-size: 80px;"">+ 10 points</p>","null","html-keyboard-response","93","522945","0.0-11.0-2.92","5f4380bb7ca9ca5ca407fc04","3y758z","FW","58","F","{""name"":""Chrome"",""chrome"":true,""version"":""106.0"",""blink"":true,""windows"":true,""osname"":""Windows"",""osversion"":""10"",""a"":true}","9:14:30","1","4","Test_1","74","j","1","1117.7000000476837","1920 x 1080","1920 x 1080","true","1","10","","","","",""
"null","<p style=""font-size: 80px;"">+ 10 points</p>","null","html-keyboard-response","94","526035","0.0-11.0-2.93","5f4380bb7ca9ca5ca407fc04","3y758z","FW","58","F","{""name"":""Chrome"",""chrome"":true,""version"":""106.0"",""blink"":true,""windows"":true,""osname"":""Windows"",""osversion"":""10"",""a"":true}","9:14:30","1","4","Test_2","70","f","1","1076","1920 x 1080","1920 x 1080","true","1","10","","","","",""
"null","<p style=""font-size: 80px;"">+ 0 points</p>","null","html-keyboard-response","95","529447","0.0-11.0-2.94","5f4380bb7ca9ca5ca407fc04","3y758z","FW","58","F","{""name"":""Chrome"",""chrome"":true,""version"":""106.0"",""blink"":true,""windows"":true,""osname"":""Windows"",""osversion"":""10"",""a"":true}","9:14:30","1","3","Test_3","74","f","0","1384.0999999046326","1920 x 1080","1920 x 1080","true","1","0","","","","",""
"null","<p style=""font-size: 80px;"">+ 10 points</p>","null","html-keyboard-response","96","532788","0.0-11.0-2.95","5f4380bb7ca9ca5ca407fc04","3y758z","FW","58","F","{""name"":""Chrome"",""chrome"":true,""version"":""106.0"",""blink"":true,""windows"":true,""osname"":""Windows"",""osversion"":""10"",""a"":true}","9:14:30","1","3","Test_1","70","f","1","1327.3999998569489","1920 x 1080","1920 x 1080","true","1","10","","","","",""
"null","<p style=""font-size: 80px;"">+ 10 points</p>","null","html-keyboard-response","97","535354","0.0-11.0-2.96","5f4380bb7ca9ca5ca407fc04","3y758z","FW","58","F","{""name"":""Chrome"",""chrome"":true,""version"":""106.0"",""blink"":true,""windows"":true,""osname"":""Windows"",""osversion"":""10"",""a"":true}","9:14:30","1","3","Test_1","70","f","1","556.5","1920 x 1080","1920 x 1080","true","1","10","","","","",""
"null","<p style=""font-size: 80px;"">+ 10 points</p>","null","html-keyboard-response","98","538953","0.0-11.0-2.97","5f4380bb7ca9ca5ca407fc04","3y758z","FW","58","F","{""name"":""Chrome"",""chrome"":true,""version"":""106.0"",""blink"":true,""windows"":true,""osname"":""Windows"",""osversion"":""10"",""a"":true}","9:14:30","1","3","Test_4","74","j","1","1586.7000000476837","1920 x 1080","1920 x 1080","true","1","10","","","","",""
"null","<p style=""font-size: 80px; line-height: 1.4em;"">Too late</br> Speed up!</p>","null","html-keyboard-response","99","545978","0.0-11.0-2.98","5f4380bb7ca9ca5ca407fc04","3y758z","FW","58","F","{""name"":""Chrome"",""chrome"":true,""version"":""106.0"",""blink"":true,""windows"":true,""osname"":""Windows"",""osversion"":""10"",""a"":true}","9:14:30","1","3","Test_2","null","j","0","null","1920 x 1080","1920 x 1080","true","1","0","","","","",""
"null","<p style=""font-size: 80px;"">+ 0 points</p>","null","html-keyboard-response","100","548890","0.0-11.0-2.99","5f4380bb7ca9ca5ca407fc04","3y758z","FW","58","F","{""name"":""Chrome"",""chrome"":true,""version"":""106.0"",""blink"":true,""windows"":true,""osname"":""Windows"",""osversion"":""10"",""a"":true}","9:14:30","1","3","Test_4","70","j","0","894.3000001907349","1920 x 1080","1920 x 1080","true","1","0","","","","",""
"null","<p style=""font-size: 80px;"">+ 10 points</p>","null","html-keyboard-response","101","551919","0.0-11.0-2.100","5f4380bb7ca9ca5ca407fc04","3y758z","FW","58","F","{""name"":""Chrome"",""chrome"":true,""version"":""106.0"",""blink"":true,""windows"":true,""osname"":""Windows"",""osversion"":""10"",""a"":true}","9:14:30","1","3","Test_3","70","f","1","1004.4000000953674","1920 x 1080","1920 x 1080","true","1","10","","","","",""
"null","<p style=""font-size: 80px;"">+ 10 points</p>","null","html-keyboard-response","102","554589","0.0-11.0-2.101","5f4380bb7ca9ca5ca407fc04","3y758z","FW","58","F","{""name"":""Chrome"",""chrome"":true,""version"":""106.0"",""blink"":true,""windows"":true,""osname"":""Windows"",""osversion"":""10"",""a"":true}","9:14:30","1","3","Test_2","74","j","1","648.5999999046326","1920 x 1080","1920 x 1080","true","1","10","","","","",""
"null","<p style=""font-size: 80px;"">+ 10 points</p>","null","html-keyboard-response","103","557789","0.0-11.0-2.102","5f4380bb7ca9ca5ca407fc04","3y758z","FW","58","F","{""name"":""Chrome"",""chrome"":true,""version"":""106.0"",""blink"":true,""windows"":true,""osname"":""Windows"",""osversion"":""10"",""a"":true}","9:14:30","1","3","Test_1","70","f","1","1183.6000001430511","1920 x 1080","1920 x 1080","true","1","10","","","","",""
"null","<p style=""font-size: 80px;"">+ 10 points</p>","null","html-keyboard-response","104","561312","0.0-11.0-2.103","5f4380bb7ca9ca5ca407fc04","3y758z","FW","58","F","{""name"":""Chrome"",""chrome"":true,""version"":""106.0"",""blink"":true,""windows"":true,""osname"":""Windows"",""osversion"":""10"",""a"":true}","9:14:30","1","3","Test_1","70","f","1","1513.7999999523163","1920 x 1080","1920 x 1080","true","1","10","","","","",""
"null","<p style=""font-size: 80px;"">+ 10 points</p>","null","html-keyboard-response","105","563698","0.0-11.0-2.104","5f4380bb7ca9ca5ca407fc04","3y758z","FW","58","F","{""name"":""Chrome"",""chrome"":true,""version"":""106.0"",""blink"":true,""windows"":true,""osname"":""Windows"",""osversion"":""10"",""a"":true}","9:14:30","1","3","Test_1","70","f","1","378.40000009536743","1920 x 1080","1920 x 1080","true","1","10","","","","",""
"null","<p style=""font-size: 80px;"">+ 10 points</p>","null","html-keyboard-response","106","566446","0.0-11.0-2.105","5f4380bb7ca9ca5ca407fc04","3y758z","FW","58","F","{""name"":""Chrome"",""chrome"":true,""version"":""106.0"",""blink"":true,""windows"":true,""osname"":""Windows"",""osversion"":""10"",""a"":true}","9:14:30","1","3","Test_3","70","f","1","727.3000001907349","1920 x 1080","1920 x 1080","true","1","10","","","","",""
"null","<p style=""font-size: 80px;"">+ 10 points</p>","null","html-keyboard-response","107","569062","0.0-11.0-2.106","5f4380bb7ca9ca5ca407fc04","3y758z","FW","58","F","{""name"":""Chrome"",""chrome"":true,""version"":""106.0"",""blink"":true,""windows"":true,""osname"":""Windows"",""osversion"":""10"",""a"":true}","9:14:30","1","3","Test_2","74","j","1","606.4000000953674","1920 x 1080","1920 x 1080","true","1","10","","","","",""
"null","<p style=""font-size: 80px;"">+ 10 points</p>","null","html-keyboard-response","108","571858","0.0-11.0-2.107","5f4380bb7ca9ca5ca407fc04","3y758z","FW","58","F","{""name"":""Chrome"",""chrome"":true,""version"":""106.0"",""blink"":true,""windows"":true,""osname"":""Windows"",""osversion"":""10"",""a"":true}","9:14:30","1","3","Test_4","74","j","1","779.2999999523163","1920 x 1080","1920 x 1080","true","1","10","","","","",""
"null","<p style=""font-size: 80px;"">+ 10 points</p>","null","html-keyboard-response","109","574392","0.0-11.0-2.108","5f4380bb7ca9ca5ca407fc04","3y758z","FW","58","F","{""name"":""Chrome"",""chrome"":true,""version"":""106.0"",""blink"":true,""windows"":true,""osname"":""Windows"",""osversion"":""10"",""a"":true}","9:14:30","1","3","Test_2","74","j","1","527.7000000476837","1920 x 1080","1920 x 1080","true","1","10","","","","",""
"null","<p style=""font-size: 80px;"">+ 10 points</p>","null","html-keyboard-response","110","658819","0.0-11.0-2.109","5f4380bb7ca9ca5ca407fc04","3y758z","FW","58","F","{""name"":""Chrome"",""chrome"":true,""version"":""106.0"",""blink"":true,""windows"":true,""osname"":""Windows"",""osversion"":""10"",""a"":true}","9:14:30","1","3","Test_4","74","j","1","2429.0999999046326","1920 x 1080","1920 x 1080","true","1","10","","","","",""
"null","<p style=""font-size: 80px;"">+ 10 points</p>","null","html-keyboard-response","111","661798","0.0-11.0-2.110","5f4380bb7ca9ca5ca407fc04","3y758z","FW","58","F","{""name"":""Chrome"",""chrome"":true,""version"":""106.0"",""blink"":true,""windows"":true,""osname"":""Windows"",""osversion"":""10"",""a"":true}","9:14:30","1","3","Test_2","74","j","1","948.2999999523163","1920 x 1080","1920 x 1080","true","1","10","","","","",""
"null","<p style=""font-size: 80px;"">+ 10 points</p>","null","html-keyboard-response","112","664601","0.0-11.0-2.111","5f4380bb7ca9ca5ca407fc04","3y758z","FW","58","F","{""name"":""Chrome"",""chrome"":true,""version"":""106.0"",""blink"":true,""windows"":true,""osname"":""Windows"",""osversion"":""10"",""a"":true}","9:14:30","1","3","Test_4","74","j","1","775.7000000476837","1920 x 1080","1920 x 1080","true","1","10","","","","",""
"null","<p style=""font-size: 80px;"">+ 10 points</p>","null","html-keyboard-response","113","667464","0.0-11.0-2.112","5f4380bb7ca9ca5ca407fc04","3y758z","FW","58","F","{""name"":""Chrome"",""chrome"":true,""version"":""106.0"",""blink"":true,""windows"":true,""osname"":""Windows"",""osversion"":""10"",""a"":true}","9:14:30","1","3","Test_3","70","f","1","834","1920 x 1080","1920 x 1080","true","1","10","","","","",""
"null","<p style=""font-size: 80px;"">+ 10 points</p>","null","html-keyboard-response","114","670810","0.0-11.0-2.113","5f4380bb7ca9ca5ca407fc04","3y758z","FW","58","F","{""name"":""Chrome"",""chrome"":true,""version"":""106.0"",""blink"":true,""windows"":true,""osname"":""Windows"",""osversion"":""10"",""a"":true}","9:14:30","1","3","Test_1","70","f","1","1310.4000000953674","1920 x 1080","1920 x 1080","true","1","10","","","","",""
"null","<p style=""font-size: 80px;"">+ 10 points</p>","null","html-keyboard-response","115","673883","0.0-11.0-2.114","5f4380bb7ca9ca5ca407fc04","3y758z","FW","58","F","{""name"":""Chrome"",""chrome"":true,""version"":""106.0"",""blink"":true,""windows"":true,""osname"":""Windows"",""osversion"":""10"",""a"":true}","9:14:30","1","3","Test_3","70","f","1","1048.7999999523163","1920 x 1080","1920 x 1080","true","1","10","","","","",""
"null","<p style=""font-size: 80px;"">+ 10 points</p>","null","html-keyboard-response","116","676503","0.0-11.0-2.115","5f4380bb7ca9ca5ca407fc04","3y758z","FW","58","F","{""name"":""Chrome"",""chrome"":true,""version"":""106.0"",""blink"":true,""windows"":true,""osname"":""Windows"",""osversion"":""10"",""a"":true}","9:14:30","1","3","Test_4","74","j","1","594.4000000953674","1920 x 1080","1920 x 1080","true","1","10","","","","",""
"null","<p style=""font-size: 80px;"">+ 10 points</p>","null","html-keyboard-response","117","679143","0.0-11.0-2.116","5f4380bb7ca9ca5ca407fc04","3y758z","FW","58","F","{""name"":""Chrome"",""chrome"":true,""version"":""106.0"",""blink"":true,""windows"":true,""osname"":""Windows"",""osversion"":""10"",""a"":true}","9:14:30","1","3","Test_3","70","f","1","613.2999999523163","1920 x 1080","1920 x 1080","true","1","10","","","","",""
"null","<p style=""font-size: 80px;"">+ 0 points</p>","null","html-keyboard-response","118","682029","0.0-11.0-2.117","5f4380bb7ca9ca5ca407fc04","3y758z","FW","58","F","{""name"":""Chrome"",""chrome"":true,""version"":""106.0"",""blink"":true,""windows"":true,""osname"":""Windows"",""osversion"":""10"",""a"":true}","9:14:30","1","4","Test_3","70","j","0","855","1920 x 1080","1920 x 1080","true","1","0","","","","",""
"null","<p style=""font-size: 80px;"">+ 10 points</p>","null","html-keyboard-response","119","684488","0.0-11.0-2.118","5f4380bb7ca9ca5ca407fc04","3y758z","FW","58","F","{""name"":""Chrome"",""chrome"":true,""version"":""106.0"",""blink"":true,""windows"":true,""osname"":""Windows"",""osversion"":""10"",""a"":true}","9:14:30","1","4","Test_3","74","j","1","450.7000000476837","1920 x 1080","1920 x 1080","true","1","10","","","","",""
"null","<p style=""font-size: 80px;"">+ 10 points</p>","null","html-keyboard-response","120","688562","0.0-11.0-2.119","5f4380bb7ca9ca5ca407fc04","3y758z","FW","58","F","{""name"":""Chrome"",""chrome"":true,""version"":""106.0"",""blink"":true,""windows"":true,""osname"":""Windows"",""osversion"":""10"",""a"":true}","9:14:30","1","4","Test_4","70","f","1","2070.199999809265","1920 x 1080","1920 x 1080","true","1","10","","","","",""
"null","<p style=""font-size: 80px;"">+ 10 points</p>","null","html-keyboard-response","121","691184","0.0-11.0-2.120","5f4380bb7ca9ca5ca407fc04","3y758z","FW","58","F","{""name"":""Chrome"",""chrome"":true,""version"":""106.0"",""blink"":true,""windows"":true,""osname"":""Windows"",""osversion"":""10"",""a"":true}","9:14:30","1","4","Test_1","74","j","1","618.2000000476837","1920 x 1080","1920 x 1080","true","1","10","","","","",""
"null","<p style=""font-size: 80px;"">+ 10 points</p>","null","html-keyboard-response","122","694285","0.0-11.0-2.121","5f4380bb7ca9ca5ca407fc04","3y758z","FW","58","F","{""name"":""Chrome"",""chrome"":true,""version"":""106.0"",""blink"":true,""windows"":true,""osname"":""Windows"",""osversion"":""10"",""a"":true}","9:14:30","1","4","Test_3","74","j","1","1074.7999999523163","1920 x 1080","1920 x 1080","true","1","10","","","","",""
"null","<p style=""font-size: 80px;"">+ 10 points</p>","null","html-keyboard-response","123","696832","0.0-11.0-2.122","5f4380bb7ca9ca5ca407fc04","3y758z","FW","58","F","{""name"":""Chrome"",""chrome"":true,""version"":""106.0"",""blink"":true,""windows"":true,""osname"":""Windows"",""osversion"":""10"",""a"":true}","9:14:30","1","4","Test_2","70","f","1","539.3000001907349","1920 x 1080","1920 x 1080","true","1","10","","","","",""
"null","<p style=""font-size: 80px;"">+ 10 points</p>","null","html-keyboard-response","124","699212","0.0-11.0-2.123","5f4380bb7ca9ca5ca407fc04","3y758z","FW","58","F","{""name"":""Chrome"",""chrome"":true,""version"":""106.0"",""blink"":true,""windows"":true,""osname"":""Windows"",""osversion"":""10"",""a"":true}","9:14:30","1","4","Test_1","74","j","1","356.5","1920 x 1080","1920 x 1080","true","1","10","","","","",""
"null","<p style=""font-size: 80px;"">+ 0 points</p>","null","html-keyboard-response","125","701544","0.0-11.0-2.124","5f4380bb7ca9ca5ca407fc04","3y758z","FW","58","F","{""name"":""Chrome"",""chrome"":true,""version"":""106.0"",""blink"":true,""windows"":true,""osname"":""Windows"",""osversion"":""10"",""a"":true}","9:14:30","1","4","Test_2","74","f","0","311.90000009536743","1920 x 1080","1920 x 1080","true","1","0","","","","",""
"null","<p style=""font-size: 80px;"">+ 10 points</p>","null","html-keyboard-response","126","704877","0.0-11.0-2.125","5f4380bb7ca9ca5ca407fc04","3y758z","FW","58","F","{""name"":""Chrome"",""chrome"":true,""version"":""106.0"",""blink"":true,""windows"":true,""osname"":""Windows"",""osversion"":""10"",""a"":true}","9:14:30","1","4","Test_2","70","f","1","1316.0999999046326","1920 x 1080","1920 x 1080","true","1","10","","","","",""
"null","<p style=""font-size: 80px;"">+ 10 points</p>","null","html-keyboard-response","127","707477","0.0-11.0-2.126","5f4380bb7ca9ca5ca407fc04","3y758z","FW","58","F","{""name"":""Chrome"",""chrome"":true,""version"":""106.0"",""blink"":true,""windows"":true,""osname"":""Windows"",""osversion"":""10"",""a"":true}","9:14:30","1","4","Test_2","70","f","1","583.1000001430511","1920 x 1080","1920 x 1080","true","1","10","","","","",""
"null","<p style=""font-size: 80px;"">+ 10 points</p>","null","html-keyboard-response","128","710270","0.0-11.0-2.127","5f4380bb7ca9ca5ca407fc04","3y758z","FW","58","F","{""name"":""Chrome"",""chrome"":true,""version"":""106.0"",""blink"":true,""windows"":true,""osname"":""Windows"",""osversion"":""10"",""a"":true}","9:14:30","1","4","Test_4","70","f","1","776.2000000476837","1920 x 1080","1920 x 1080","true","1","10","","","","",""
"null","<p style=""font-size: 80px;"">+ 10 points</p>","null","html-keyboard-response","129","713131","0.0-11.0-2.128","5f4380bb7ca9ca5ca407fc04","3y758z","FW","58","F","{""name"":""Chrome"",""chrome"":true,""version"":""106.0"",""blink"":true,""windows"":true,""osname"":""Windows"",""osversion"":""10"",""a"":true}","9:14:30","1","4","Test_3","74","j","1","838.2000000476837","1920 x 1080","1920 x 1080","true","1","10","","","","",""
"null","<p style=""font-size: 80px;"">+ 10 points</p>","null","html-keyboard-response","130","715856","0.0-11.0-2.129","5f4380bb7ca9ca5ca407fc04","3y758z","FW","58","F","{""name"":""Chrome"",""chrome"":true,""version"":""106.0"",""blink"":true,""windows"":true,""osname"":""Windows"",""osversion"":""10"",""a"":true}","9:14:30","1","4","Test_1","74","j","1","714.2999999523163","1920 x 1080","1920 x 1080","true","1","10","","","","",""
"null","<p style=""font-size: 80px;"">+ 10 points</p>","null","html-keyboard-response","131","719080","0.0-11.0-2.130","5f4380bb7ca9ca5ca407fc04","3y758z","FW","58","F","{""name"":""Chrome"",""chrome"":true,""version"":""106.0"",""blink"":true,""windows"":true,""osname"":""Windows"",""osversion"":""10"",""a"":true}","9:14:30","1","4","Test_3","74","j","1","1212.3000001907349","1920 x 1080","1920 x 1080","true","1","10","","","","",""
"null","<p style=""font-size: 80px;"">+ 10 points</p>","null","html-keyboard-response","132","721857","0.0-11.0-2.131","5f4380bb7ca9ca5ca407fc04","3y758z","FW","58","F","{""name"":""Chrome"",""chrome"":true,""version"":""106.0"",""blink"":true,""windows"":true,""osname"":""Windows"",""osversion"":""10"",""a"":true}","9:14:30","1","4","Test_1","74","j","1","751.5","1920 x 1080","1920 x 1080","true","1","10","","","","",""
"null","<p style=""font-size: 80px;"">+ 10 points</p>","null","html-keyboard-response","133","725063","0.0-11.0-2.132","5f4380bb7ca9ca5ca407fc04","3y758z","FW","58","F","{""name"":""Chrome"",""chrome"":true,""version"":""106.0"",""blink"":true,""windows"":true,""osname"":""Windows"",""osversion"":""10"",""a"":true}","9:14:30","1","4","Test_2","70","f","1","1199.1999998092651","1920 x 1080","1920 x 1080","true","1","10","","","","",""
"null","<p style=""font-size: 80px;"">+ 10 points</p>","null","html-keyboard-response","134","728188","0.0-11.0-2.133","5f4380bb7ca9ca5ca407fc04","3y758z","FW","58","F","{""name"":""Chrome"",""chrome"":true,""version"":""106.0"",""blink"":true,""windows"":true,""osname"":""Windows"",""osversion"":""10"",""a"":true}","9:14:30","1","4","Test_1","74","j","1","1107.2000000476837","1920 x 1080","1920 x 1080","true","1","10","","","","",""
"null","<p style=""font-size: 80px;"">+ 10 points</p>","null","html-keyboard-response","135","730862","0.0-11.0-2.134","5f4380bb7ca9ca5ca407fc04","3y758z","FW","58","F","{""name"":""Chrome"",""chrome"":true,""version"":""106.0"",""blink"":true,""windows"":true,""osname"":""Windows"",""osversion"":""10"",""a"":true}","9:14:30","1","4","Test_2","70","f","1","659.3999998569489","1920 x 1080","1920 x 1080","true","1","10","","","","",""
"null","<p style=""font-size: 80px;"">+ 0 points</p>","null","html-keyboard-response","136","733689","0.0-11.0-2.135","5f4380bb7ca9ca5ca407fc04","3y758z","FW","58","F","{""name"":""Chrome"",""chrome"":true,""version"":""106.0"",""blink"":true,""windows"":true,""osname"":""Windows"",""osversion"":""10"",""a"":true}","9:14:30","1","4","Test_4","74","f","0","790.5","1920 x 1080","1920 x 1080","true","1","0","","","","",""
"null","<p style=""font-size: 80px;"">+ 10 points</p>","null","html-keyboard-response","137","737173","0.0-11.0-2.136","5f4380bb7ca9ca5ca407fc04","3y758z","FW","58","F","{""name"":""Chrome"",""chrome"":true,""version"":""106.0"",""blink"":true,""windows"":true,""osname"":""Windows"",""osversion"":""10"",""a"":true}","9:14:30","1","4","Test_3","74","j","1","1475.0999999046326","1920 x 1080","1920 x 1080","true","1","10","","","","",""
"null","<p style=""font-size: 80px;"">+ 10 points</p>","null","html-keyboard-response","138","740179","0.0-11.0-2.137","5f4380bb7ca9ca5ca407fc04","3y758z","FW","58","F","{""name"":""Chrome"",""chrome"":true,""version"":""106.0"",""blink"":true,""windows"":true,""osname"":""Windows"",""osversion"":""10"",""a"":true}","9:14:30","1","4","Test_4","70","f","1","981.7000000476837","1920 x 1080","1920 x 1080","true","1","10","","","","",""
"null","<p style=""font-size: 80px;"">+ 0 points</p>","null","html-keyboard-response","139","744243","0.0-11.0-2.138","5f4380bb7ca9ca5ca407fc04","3y758z","FW","58","F","{""name"":""Chrome"",""chrome"":true,""version"":""106.0"",""blink"":true,""windows"":true,""osname"":""Windows"",""osversion"":""10"",""a"":true}","9:14:30","1","4","Test_4","74","f","0","2053","1920 x 1080","1920 x 1080","true","1","0","","","","",""
"null","<p style=""font-size: 80px;"">+ 10 points</p>","null","html-keyboard-response","140","747096","0.0-11.0-2.139","5f4380bb7ca9ca5ca407fc04","3y758z","FW","58","F","{""name"":""Chrome"",""chrome"":true,""version"":""106.0"",""blink"":true,""windows"":true,""osname"":""Windows"",""osversion"":""10"",""a"":true}","9:14:30","1","4","Test_1","74","j","1","822.6000001430511","1920 x 1080","1920 x 1080","true","1","10","","","","",""
"null","<p style=""font-size: 80px;"">+ 0 points</p>","null","html-keyboard-response","141","749827","0.0-11.0-2.140","5f4380bb7ca9ca5ca407fc04","3y758z","FW","58","F","{""name"":""Chrome"",""chrome"":true,""version"":""106.0"",""blink"":true,""windows"":true,""osname"":""Windows"",""osversion"":""10"",""a"":true}","9:14:30","1","3","Test_3","74","f","0","722.7999999523163","1920 x 1080","1920 x 1080","true","1","0","","","","",""
"null","<p style=""font-size: 80px;"">+ 10 points</p>","null","html-keyboard-response","142","752309","0.0-11.0-2.141","5f4380bb7ca9ca5ca407fc04","3y758z","FW","58","F","{""name"":""Chrome"",""chrome"":true,""version"":""106.0"",""blink"":true,""windows"":true,""osname"":""Windows"",""osversion"":""10"",""a"":true}","9:14:30","1","3","Test_3","70","f","1","457.80000019073486","1920 x 1080","1920 x 1080","true","1","10","","","","",""
"null","<p style=""font-size: 80px;"">+ 10 points</p>","null","html-keyboard-response","143","755490","0.0-11.0-2.142","5f4380bb7ca9ca5ca407fc04","3y758z","FW","58","F","{""name"":""Chrome"",""chrome"":true,""version"":""106.0"",""blink"":true,""windows"":true,""osname"":""Windows"",""osversion"":""10"",""a"":true}","9:14:30","1","3","Test_4","74","j","1","1171.1999998092651","1920 x 1080","1920 x 1080","true","1","10","","","","",""
"null","<p style=""font-size: 80px;"">+ 10 points</p>","null","html-keyboard-response","144","757876","0.0-11.0-2.143","5f4380bb7ca9ca5ca407fc04","3y758z","FW","58","F","{""name"":""Chrome"",""chrome"":true,""version"":""106.0"",""blink"":true,""windows"":true,""osname"":""Windows"",""osversion"":""10"",""a"":true}","9:14:30","1","3","Test_3","70","f","1","373.5","1920 x 1080","1920 x 1080","true","1","10","","","","",""
"null","<p style=""font-size: 80px;"">+ 10 points</p>","null","html-keyboard-response","145","760729","0.0-11.0-2.144","5f4380bb7ca9ca5ca407fc04","3y758z","FW","58","F","{""name"":""Chrome"",""chrome"":true,""version"":""106.0"",""blink"":true,""windows"":true,""osname"":""Windows"",""osversion"":""10"",""a"":true}","9:14:30","1","3","Test_2","74","j","1","820.9000000953674","1920 x 1080","1920 x 1080","true","1","10","","","","",""
"null","<p style=""font-size: 80px;"">+ 10 points</p>","null","html-keyboard-response","146","763324","0.0-11.0-2.145","5f4380bb7ca9ca5ca407fc04","3y758z","FW","58","F","{""name"":""Chrome"",""chrome"":true,""version"":""106.0"",""blink"":true,""windows"":true,""osname"":""Windows"",""osversion"":""10"",""a"":true}","9:14:30","1","3","Test_4","74","j","1","582.0999999046326","1920 x 1080","1920 x 1080","true","1","10","","","","",""
"null","<p style=""font-size: 80px;"">+ 10 points</p>","null","html-keyboard-response","147","766072","0.0-11.0-2.146","5f4380bb7ca9ca5ca407fc04","3y758z","FW","58","F","{""name"":""Chrome"",""chrome"":true,""version"":""106.0"",""blink"":true,""windows"":true,""osname"":""Windows"",""osversion"":""10"",""a"":true}","9:14:30","1","3","Test_2","74","j","1","726.7000000476837","1920 x 1080","1920 x 1080","true","1","10","","","","",""
"null","<p style=""font-size: 80px;"">+ 10 points</p>","null","html-keyboard-response","148","768861","0.0-11.0-2.147","5f4380bb7ca9ca5ca407fc04","3y758z","FW","58","F","{""name"":""Chrome"",""chrome"":true,""version"":""106.0"",""blink"":true,""windows"":true,""osname"":""Windows"",""osversion"":""10"",""a"":true}","9:14:30","1","3","Test_1","70","f","1","766.9000000953674","1920 x 1080","1920 x 1080","true","1","10","","","","",""
"null","<p style=""font-size: 80px;"">+ 10 points</p>","null","html-keyboard-response","149","772106","0.0-11.0-2.148","5f4380bb7ca9ca5ca407fc04","3y758z","FW","58","F","{""name"":""Chrome"",""chrome"":true,""version"":""106.0"",""blink"":true,""windows"":true,""osname"":""Windows"",""osversion"":""10"",""a"":true}","9:14:30","1","3","Test_1","70","f","1","1218","1920 x 1080","1920 x 1080","true","1","10","","","","",""
"null","<p style=""font-size: 80px;"">+ 10 points</p>","null","html-keyboard-response","150","774710","0.0-11.0-2.149","5f4380bb7ca9ca5ca407fc04","3y758z","FW","58","F","{""name"":""Chrome"",""chrome"":true,""version"":""106.0"",""blink"":true,""windows"":true,""osname"":""Windows"",""osversion"":""10"",""a"":true}","9:14:30","1","3","Test_3","70","f","1","588","1920 x 1080","1920 x 1080","true","1","10","","","","",""
"null","<p style=""font-size: 80px;"">+ 10 points</p>","null","html-keyboard-response","151","777580","0.0-11.0-2.150","5f4380bb7ca9ca5ca407fc04","3y758z","FW","58","F","{""name"":""Chrome"",""chrome"":true,""version"":""106.0"",""blink"":true,""windows"":true,""osname"":""Windows"",""osversion"":""10"",""a"":true}","9:14:30","1","3","Test_4","74","j","1","850.1000001430511","1920 x 1080","1920 x 1080","true","1","10","","","","",""
"null","<p style=""font-size: 80px;"">+ 0 points</p>","null","html-keyboard-response","152","779971","0.0-11.0-2.151","5f4380bb7ca9ca5ca407fc04","3y758z","FW","58","F","{""name"":""Chrome"",""chrome"":true,""version"":""106.0"",""blink"":true,""windows"":true,""osname"":""Windows"",""osversion"":""10"",""a"":true}","9:14:30","1","3","Test_2","70","j","0","384.59999990463257","1920 x 1080","1920 x 1080","true","1","0","","","","",""
"null","<p style=""font-size: 80px;"">+ 10 points</p>","null","html-keyboard-response","153","782841","0.0-11.0-2.152","5f4380bb7ca9ca5ca407fc04","3y758z","FW","58","F","{""name"":""Chrome"",""chrome"":true,""version"":""106.0"",""blink"":true,""windows"":true,""osname"":""Windows"",""osversion"":""10"",""a"":true}","9:14:30","1","3","Test_1","70","f","1","859.2999999523163","1920 x 1080","1920 x 1080","true","1","10","","","","",""
"null","<p style=""font-size: 80px;"">+ 0 points</p>","null","html-keyboard-response","154","785954","0.0-11.0-2.153","5f4380bb7ca9ca5ca407fc04","3y758z","FW","58","F","{""name"":""Chrome"",""chrome"":true,""version"":""106.0"",""blink"":true,""windows"":true,""osname"":""Windows"",""osversion"":""10"",""a"":true}","9:14:30","1","3","Test_4","70","j","0","1089.6000001430511","1920 x 1080","1920 x 1080","true","1","0","","","","",""
"null","<p style=""font-size: 80px;"">+ 10 points</p>","null","html-keyboard-response","155","788476","0.0-11.0-2.154","5f4380bb7ca9ca5ca407fc04","3y758z","FW","58","F","{""name"":""Chrome"",""chrome"":true,""version"":""106.0"",""blink"":true,""windows"":true,""osname"":""Windows"",""osversion"":""10"",""a"":true}","9:14:30","1","3","Test_1","70","f","1","508.5","1920 x 1080","1920 x 1080","true","1","10","","","","",""
"null","<p style=""font-size: 80px;"">+ 10 points</p>","null","html-keyboard-response","156","791183","0.0-11.0-2.155","5f4380bb7ca9ca5ca407fc04","3y758z","FW","58","F","{""name"":""Chrome"",""chrome"":true,""version"":""106.0"",""blink"":true,""windows"":true,""osname"":""Windows"",""osversion"":""10"",""a"":true}","9:14:30","1","3","Test_3","70","f","1","693.2000000476837","1920 x 1080","1920 x 1080","true","1","10","","","","",""
"null","<p style=""font-size: 80px;"">+ 10 points</p>","null","html-keyboard-response","157","793774","0.0-11.0-2.156","5f4380bb7ca9ca5ca407fc04","3y758z","FW","58","F","{""name"":""Chrome"",""chrome"":true,""version"":""106.0"",""blink"":true,""windows"":true,""osname"":""Windows"",""osversion"":""10"",""a"":true}","9:14:30","1","3","Test_4","74","j","1","576.3999998569489","1920 x 1080","1920 x 1080","true","1","10","","","","",""
"null","<p style=""font-size: 80px;"">+ 10 points</p>","null","html-keyboard-response","158","796707","0.0-11.0-2.157","5f4380bb7ca9ca5ca407fc04","3y758z","FW","58","F","{""name"":""Chrome"",""chrome"":true,""version"":""106.0"",""blink"":true,""windows"":true,""osname"":""Windows"",""osversion"":""10"",""a"":true}","9:14:30","1","3","Test_2","74","j","1","908.2000000476837","1920 x 1080","1920 x 1080","true","1","10","","","","",""
"null","<p style=""font-size: 80px;"">+ 10 points</p>","null","html-keyboard-response","159","799241","0.0-11.0-2.158","5f4380bb7ca9ca5ca407fc04","3y758z","FW","58","F","{""name"":""Chrome"",""chrome"":true,""version"":""106.0"",""blink"":true,""windows"":true,""osname"":""Windows"",""osversion"":""10"",""a"":true}","9:14:30","1","3","Test_1","70","f","1","507.40000009536743","1920 x 1080","1920 x 1080","true","1","10","","","","",""
"null","<p style=""font-size: 80px;"">+ 10 points</p>","null","html-keyboard-response","160","803155","0.0-11.0-2.159","5f4380bb7ca9ca5ca407fc04","3y758z","FW","58","F","{""name"":""Chrome"",""chrome"":true,""version"":""106.0"",""blink"":true,""windows"":true,""osname"":""Windows"",""osversion"":""10"",""a"":true}","9:14:30","1","3","Test_4","74","j","1","1903.6999998092651","1920 x 1080","1920 x 1080","true","1","10","","","","",""
"null","<p style=""font-size: 80px;"">+ 0 points</p>","null","html-keyboard-response","161","806536","0.0-11.0-2.160","5f4380bb7ca9ca5ca407fc04","3y758z","FW","58","F","{""name"":""Chrome"",""chrome"":true,""version"":""106.0"",""blink"":true,""windows"":true,""osname"":""Windows"",""osversion"":""10"",""a"":true}","9:14:30","1","3","Test_2","70","j","0","1373.2000000476837","1920 x 1080","1920 x 1080","true","1","0","","","","",""
"null","<p style=""font-size: 80px;"">+ 10 points</p>","null","html-keyboard-response","162","809356","0.0-11.0-2.161","5f4380bb7ca9ca5ca407fc04","3y758z","FW","58","F","{""name"":""Chrome"",""chrome"":true,""version"":""106.0"",""blink"":true,""windows"":true,""osname"":""Windows"",""osversion"":""10"",""a"":true}","9:14:30","1","3","Test_3","70","f","1","807.8000001907349","1920 x 1080","1920 x 1080","true","1","10","","","","",""
"null","<p style=""font-size: 80px;"">+ 0 points</p>","null","html-keyboard-response","163","811909","0.0-11.0-2.162","5f4380bb7ca9ca5ca407fc04","3y758z","FW","58","F","{""name"":""Chrome"",""chrome"":true,""version"":""106.0"",""blink"":true,""windows"":true,""osname"":""Windows"",""osversion"":""10"",""a"":true}","9:14:30","1","4","Test_2","74","f","0","531.4000000953674","1920 x 1080","1920 x 1080","true","1","0","","","","",""
"null","<p style=""font-size: 80px;"">+ 10 points</p>","null","html-keyboard-response","164","815178","0.0-11.0-2.163","5f4380bb7ca9ca5ca407fc04","3y758z","FW","58","F","{""name"":""Chrome"",""chrome"":true,""version"":""106.0"",""blink"":true,""windows"":true,""osname"":""Windows"",""osversion"":""10"",""a"":true}","9:14:30","1","4","Test_4","70","f","1","1243","1920 x 1080","1920 x 1080","true","1","10","","","","",""
"null","<p style=""font-size: 80px;"">+ 10 points</p>","null","html-keyboard-response","165","818072","0.0-11.0-2.164","5f4380bb7ca9ca5ca407fc04","3y758z","FW","58","F","{""name"":""Chrome"",""chrome"":true,""version"":""106.0"",""blink"":true,""windows"":true,""osname"":""Windows"",""osversion"":""10"",""a"":true}","9:14:30","1","4","Test_1","74","j","1","885.2999999523163","1920 x 1080","1920 x 1080","true","1","10","","","","",""
"null","<p style=""font-size: 80px;"">+ 10 points</p>","null","html-keyboard-response","166","820931","0.0-11.0-2.165","5f4380bb7ca9ca5ca407fc04","3y758z","FW","58","F","{""name"":""Chrome"",""chrome"":true,""version"":""106.0"",""blink"":true,""windows"":true,""osname"":""Windows"",""osversion"":""10"",""a"":true}","9:14:30","1","4","Test_4","70","f","1","833.8999998569489","1920 x 1080","1920 x 1080","true","1","10","","","","",""
"null","<p style=""font-size: 80px;"">+ 10 points</p>","null","html-keyboard-response","167","823759","0.0-11.0-2.166","5f4380bb7ca9ca5ca407fc04","3y758z","FW","58","F","{""name"":""Chrome"",""chrome"":true,""version"":""106.0"",""blink"":true,""windows"":true,""osname"":""Windows"",""osversion"":""10"",""a"":true}","9:14:30","1","4","Test_3","74","j","1","815.7000000476837","1920 x 1080","1920 x 1080","true","1","10","","","","",""
"null","<p style=""font-size: 80px;"">+ 10 points</p>","null","html-keyboard-response","168","826594","0.0-11.0-2.167","5f4380bb7ca9ca5ca407fc04","3y758z","FW","58","F","{""name"":""Chrome"",""chrome"":true,""version"":""106.0"",""blink"":true,""windows"":true,""osname"":""Windows"",""osversion"":""10"",""a"":true}","9:14:30","1","4","Test_2","70","f","1","815.6999998092651","1920 x 1080","1920 x 1080","true","1","10","","","","",""
"null","<p style=""font-size: 80px;"">+ 0 points</p>","null","html-keyboard-response","169","830157","0.0-11.0-2.168","5f4380bb7ca9ca5ca407fc04","3y758z","FW","58","F","{""name"":""Chrome"",""chrome"":true,""version"":""106.0"",""blink"":true,""windows"":true,""osname"":""Windows"",""osversion"":""10"",""a"":true}","9:14:30","1","4","Test_1","70","j","0","1540.7999999523163","1920 x 1080","1920 x 1080","true","1","0","","","","",""
"null","<p style=""font-size: 80px;"">+ 0 points</p>","null","html-keyboard-response","170","833253","0.0-11.0-2.169","5f4380bb7ca9ca5ca407fc04","3y758z","FW","58","F","{""name"":""Chrome"",""chrome"":true,""version"":""106.0"",""blink"":true,""windows"":true,""osname"":""Windows"",""osversion"":""10"",""a"":true}","9:14:30","1","4","Test_3","70","j","0","1082.3999998569489","1920 x 1080","1920 x 1080","true","1","0","","","","",""
"null","<p style=""font-size: 80px;"">+ 0 points</p>","null","html-keyboard-response","171","835939","0.0-11.0-2.170","5f4380bb7ca9ca5ca407fc04","3y758z","FW","58","F","{""name"":""Chrome"",""chrome"":true,""version"":""106.0"",""blink"":true,""windows"":true,""osname"":""Windows"",""osversion"":""10"",""a"":true}","9:14:30","1","4","Test_2","74","f","0","672.3999998569489","1920 x 1080","1920 x 1080","true","1","0","","","","",""
"null","<p style=""font-size: 80px;"">+ 10 points</p>","null","html-keyboard-response","172","838557","0.0-11.0-2.171","5f4380bb7ca9ca5ca407fc04","3y758z","FW","58","F","{""name"":""Chrome"",""chrome"":true,""version"":""106.0"",""blink"":true,""windows"":true,""osname"":""Windows"",""osversion"":""10"",""a"":true}","9:14:30","1","4","Test_4","70","f","1","598.4000000953674","1920 x 1080","1920 x 1080","true","1","10","","","","",""
"null","<p style=""font-size: 80px;"">+ 10 points</p>","null","html-keyboard-response","173","841295","0.0-11.0-2.172","5f4380bb7ca9ca5ca407fc04","3y758z","FW","58","F","{""name"":""Chrome"",""chrome"":true,""version"":""106.0"",""blink"":true,""windows"":true,""osname"":""Windows"",""osversion"":""10"",""a"":true}","9:14:30","1","4","Test_1","74","j","1","728","1920 x 1080","1920 x 1080","true","1","10","","","","",""
"null","<p style=""font-size: 80px;"">+ 10 points</p>","null","html-keyboard-response","174","844120","0.0-11.0-2.173","5f4380bb7ca9ca5ca407fc04","3y758z","FW","58","F","{""name"":""Chrome"",""chrome"":true,""version"":""106.0"",""blink"":true,""windows"":true,""osname"":""Windows"",""osversion"":""10"",""a"":true}","9:14:30","1","4","Test_4","70","f","1","806.2000000476837","1920 x 1080","1920 x 1080","true","1","10","","","","",""
"null","<p style=""font-size: 80px;"">+ 10 points</p>","null","html-keyboard-response","175","847158","0.0-11.0-2.174","5f4380bb7ca9ca5ca407fc04","3y758z","FW","58","F","{""name"":""Chrome"",""chrome"":true,""version"":""106.0"",""blink"":true,""windows"":true,""osname"":""Windows"",""osversion"":""10"",""a"":true}","9:14:30","1","4","Test_2","70","f","1","998.0999999046326","1920 x 1080","1920 x 1080","true","1","10","","","","",""
"null","<p style=""font-size: 80px;"">+ 10 points</p>","null","html-keyboard-response","176","849920","0.0-11.0-2.175","5f4380bb7ca9ca5ca407fc04","3y758z","FW","58","F","{""name"":""Chrome"",""chrome"":true,""version"":""106.0"",""blink"":true,""windows"":true,""osname"":""Windows"",""osversion"":""10"",""a"":true}","9:14:30","1","4","Test_3","74","j","1","745.1000001430511","1920 x 1080","1920 x 1080","true","1","10","","","","",""
"null","<p style=""font-size: 80px;"">+ 10 points</p>","null","html-keyboard-response","177","853111","0.0-11.0-2.176","5f4380bb7ca9ca5ca407fc04","3y758z","FW","58","F","{""name"":""Chrome"",""chrome"":true,""version"":""106.0"",""blink"":true,""windows"":true,""osname"":""Windows"",""osversion"":""10"",""a"":true}","9:14:30","1","4","Test_4","70","f","1","1163","1920 x 1080","1920 x 1080","true","1","10","","","","",""
"null","<p style=""font-size: 80px;"">+ 10 points</p>","null","html-keyboard-response","178","856189","0.0-11.0-2.177","5f4380bb7ca9ca5ca407fc04","3y758z","FW","58","F","{""name"":""Chrome"",""chrome"":true,""version"":""106.0"",""blink"":true,""windows"":true,""osname"":""Windows"",""osversion"":""10"",""a"":true}","9:14:30","1","4","Test_3","74","j","1","1066.7999999523163","1920 x 1080","1920 x 1080","true","1","10","","","","",""
"null","<p style=""font-size: 80px;"">+ 10 points</p>","null","html-keyboard-response","179","858840","0.0-11.0-2.178","5f4380bb7ca9ca5ca407fc04","3y758z","FW","58","F","{""name"":""Chrome"",""chrome"":true,""version"":""106.0"",""blink"":true,""windows"":true,""osname"":""Windows"",""osversion"":""10"",""a"":true}","9:14:30","1","4","Test_2","70","f","1","629.0999999046326","1920 x 1080","1920 x 1080","true","1","10","","","","",""
"null","<p style=""font-size: 80px;"">+ 10 points</p>","null","html-keyboard-response","180","861774","0.0-11.0-2.179","5f4380bb7ca9ca5ca407fc04","3y758z","FW","58","F","{""name"":""Chrome"",""chrome"":true,""version"":""106.0"",""blink"":true,""windows"":true,""osname"":""Windows"",""osversion"":""10"",""a"":true}","9:14:30","1","4","Test_1","74","j","1","915.6000001430511","1920 x 1080","1920 x 1080","true","1","10","","","","",""
"null","<p style=""font-size: 80px;"">+ 0 points</p>","null","html-keyboard-response","181","864621","0.0-11.0-2.180","5f4380bb7ca9ca5ca407fc04","3y758z","FW","58","F","{""name"":""Chrome"",""chrome"":true,""version"":""106.0"",""blink"":true,""windows"":true,""osname"":""Windows"",""osversion"":""10"",""a"":true}","9:14:30","1","3","Test_3","74","f","0","839.5999999046326","1920 x 1080","1920 x 1080","true","1","0","","","","",""
"null","<p style=""font-size: 80px;"">+ 10 points</p>","null","html-keyboard-response","182","867122","0.0-11.0-2.181","5f4380bb7ca9ca5ca407fc04","3y758z","FW","58","F","{""name"":""Chrome"",""chrome"":true,""version"":""106.0"",""blink"":true,""windows"":true,""osname"":""Windows"",""osversion"":""10"",""a"":true}","9:14:30","1","3","Test_3","70","f","1","470.30000019073486","1920 x 1080","1920 x 1080","true","1","10","","","","",""
"null","<p style=""font-size: 80px;"">+ 10 points</p>","null","html-keyboard-response","183","869742","0.0-11.0-2.182","5f4380bb7ca9ca5ca407fc04","3y758z","FW","58","F","{""name"":""Chrome"",""chrome"":true,""version"":""106.0"",""blink"":true,""windows"":true,""osname"":""Windows"",""osversion"":""10"",""a"":true}","9:14:30","1","3","Test_4","74","j","1","609","1920 x 1080","1920 x 1080","true","1","10","","","","",""
"null","<p style=""font-size: 80px;"">+ 10 points</p>","null","html-keyboard-response","184","872321","0.0-11.0-2.183","5f4380bb7ca9ca5ca407fc04","3y758z","FW","58","F","{""name"":""Chrome"",""chrome"":true,""version"":""106.0"",""blink"":true,""windows"":true,""osname"":""Windows"",""osversion"":""10"",""a"":true}","9:14:30","1","3","Test_1","70","f","1","557.8999998569489","1920 x 1080","1920 x 1080","true","1","10","","","","",""
"null","<p style=""font-size: 80px;"">+ 0 points</p>","null","html-keyboard-response","185","874821","0.0-11.0-2.184","5f4380bb7ca9ca5ca407fc04","3y758z","FW","58","F","{""name"":""Chrome"",""chrome"":true,""version"":""106.0"",""blink"":true,""windows"":true,""osname"":""Windows"",""osversion"":""10"",""a"":true}","9:14:30","1","3","Test_3","74","f","0","487.7000000476837","1920 x 1080","1920 x 1080","true","1","0","","","","",""
"null","<p style=""font-size: 80px;"">+ 10 points</p>","null","html-keyboard-response","186","877406","0.0-11.0-2.185","5f4380bb7ca9ca5ca407fc04","3y758z","FW","58","F","{""name"":""Chrome"",""chrome"":true,""version"":""106.0"",""blink"":true,""windows"":true,""osname"":""Windows"",""osversion"":""10"",""a"":true}","9:14:30","1","3","Test_2","74","j","1","560.7999999523163","1920 x 1080","1920 x 1080","true","1","10","","","","",""
"null","<p style=""font-size: 80px;"">+ 10 points</p>","null","html-keyboard-response","187","880025","0.0-11.0-2.186","5f4380bb7ca9ca5ca407fc04","3y758z","FW","58","F","{""name"":""Chrome"",""chrome"":true,""version"":""106.0"",""blink"":true,""windows"":true,""osname"":""Windows"",""osversion"":""10"",""a"":true}","9:14:30","1","3","Test_2","74","j","1","600.4000000953674","1920 x 1080","1920 x 1080","true","1","10","","","","",""
"null","<p style=""font-size: 80px;"">+ 10 points</p>","null","html-keyboard-response","188","882996","0.0-11.0-2.187","5f4380bb7ca9ca5ca407fc04","3y758z","FW","58","F","{""name"":""Chrome"",""chrome"":true,""version"":""106.0"",""blink"":true,""windows"":true,""osname"":""Windows"",""osversion"":""10"",""a"":true}","9:14:30","1","3","Test_1","70","f","1","961.2000000476837","1920 x 1080","1920 x 1080","true","1","10","","","","",""
