"rt","stimulus","key_press","trial_type","trial_index","time_elapsed","internal_node_id","Prolific_ID","random_ID","initials","age","gender","pc_info","start_time","Phase","Rule","Stimulus","Response","CorrResp","Accuracy","ResponseTime","screen_resolution","window_resolution","focus","relevant","Points","responses","question_order","rev_check","butterfly_check","passed_practice"
"null","<p style=""font-size: 80px;"">+ 10 points</p>","null","html-keyboard-response","1","180794","0.0-7.0-2.0","5778eeb20e49300001ba9ec0","gs3kzr","RS","57","male","{""name"":""Chrome"",""chrome"":true,""version"":""106.0"",""blink"":true,""windows"":true,""osname"":""Windows"",""osversion"":""10"",""a"":true}","9:23:46","0","1","Practice_3","70","f","1","2502.5","1536 x 864","1536 x 864","true","1","10","","","","",""
"null","<p style=""font-size: 80px;"">+ 10 points</p>","null","html-keyboard-response","2","184871","0.0-7.0-2.1","5778eeb20e49300001ba9ec0","gs3kzr","RS","57","male","{""name"":""Chrome"",""chrome"":true,""version"":""106.0"",""blink"":true,""windows"":true,""osname"":""Windows"",""osversion"":""10"",""a"":true}","9:23:46","0","1","Practice_1","70","f","1","2045.6000000089407","1536 x 864","1536 x 864","true","1","10","","","","",""
"null","<p style=""font-size: 80px;"">+ 10 points</p>","null","html-keyboard-response","3","188960","0.0-7.0-2.2","5778eeb20e49300001ba9ec0","gs3kzr","RS","57","male","{""name"":""Chrome"",""chrome"":true,""version"":""106.0"",""blink"":true,""windows"":true,""osname"":""Windows"",""osversion"":""10"",""a"":true}","9:23:46","0","1","Practice_4","74","j","1","2078.5999999940395","1536 x 864","1536 x 864","true","1","10","","","","",""
"null","<p style=""font-size: 80px;"">+ 0 points</p>","null","html-keyboard-response","4","192695","0.0-7.0-2.3","5778eeb20e49300001ba9ec0","gs3kzr","RS","57","male","{""name"":""Chrome"",""chrome"":true,""version"":""106.0"",""blink"":true,""windows"":true,""osname"":""Windows"",""osversion"":""10"",""a"":true}","9:23:46","0","1","Practice_2","70","j","0","1704.2000000029802","1536 x 864","1536 x 864","true","1","0","","","","",""
"null","<p style=""font-size: 80px;"">+ 10 points</p>","null","html-keyboard-response","5","197205","0.0-7.0-2.4","5778eeb20e49300001ba9ec0","gs3kzr","RS","57","male","{""name"":""Chrome"",""chrome"":true,""version"":""106.0"",""blink"":true,""windows"":true,""osname"":""Windows"",""osversion"":""10"",""a"":true}","9:23:46","0","1","Practice_1","70","f","1","2482.9000000059605","1536 x 864","1536 x 864","true","1","10","","","","",""
"null","<p style=""font-size: 80px;"">+ 0 points</p>","null","html-keyboard-response","6","201174","0.0-7.0-2.5","5778eeb20e49300001ba9ec0","gs3kzr","RS","57","male","{""name"":""Chrome"",""chrome"":true,""version"":""106.0"",""blink"":true,""windows"":true,""osname"":""Windows"",""osversion"":""10"",""a"":true}","9:23:46","0","1","Practice_3","74","f","0","1952.4000000059605","1536 x 864","1536 x 864","true","1","0","","","","",""
"null","<p style=""font-size: 80px;"">+ 10 points</p>","null","html-keyboard-response","7","204794","0.0-7.0-2.6","5778eeb20e49300001ba9ec0","gs3kzr","RS","57","male","{""name"":""Chrome"",""chrome"":true,""version"":""106.0"",""blink"":true,""windows"":true,""osname"":""Windows"",""osversion"":""10"",""a"":true}","9:23:46","0","1","Practice_2","74","j","1","1591.2000000029802","1536 x 864","1536 x 864","true","1","10","","","","",""
"null","<p style=""font-size: 80px;"">+ 0 points</p>","null","html-keyboard-response","8","208263","0.0-7.0-2.7","5778eeb20e49300001ba9ec0","gs3kzr","RS","57","male","{""name"":""Chrome"",""chrome"":true,""version"":""106.0"",""blink"":true,""windows"":true,""osname"":""Windows"",""osversion"":""10"",""a"":true}","9:23:46","0","1","Practice_4","70","j","0","1447.4000000059605","1536 x 864","1536 x 864","true","1","0","","","","",""
"null","<p style=""font-size: 80px;"">+ 10 points</p>","null","html-keyboard-response","9","211193","0.0-7.0-2.8","5778eeb20e49300001ba9ec0","gs3kzr","RS","57","male","{""name"":""Chrome"",""chrome"":true,""version"":""106.0"",""blink"":true,""windows"":true,""osname"":""Windows"",""osversion"":""10"",""a"":true}","9:23:46","0","1","Practice_4","74","j","1","896.7000000029802","1536 x 864","1536 x 864","true","1","10","","","","",""
"null","<p style=""font-size: 80px;"">+ 10 points</p>","null","html-keyboard-response","10","214155","0.0-7.0-2.9","5778eeb20e49300001ba9ec0","gs3kzr","RS","57","male","{""name"":""Chrome"",""chrome"":true,""version"":""106.0"",""blink"":true,""windows"":true,""osname"":""Windows"",""osversion"":""10"",""a"":true}","9:23:46","0","1","Practice_1","70","f","1","926.8000000119209","1536 x 864","1536 x 864","true","1","10","","","","",""
"null","<p style=""font-size: 80px;"">+ 10 points</p>","null","html-keyboard-response","11","217103","0.0-7.0-2.10","5778eeb20e49300001ba9ec0","gs3kzr","RS","57","male","{""name"":""Chrome"",""chrome"":true,""version"":""106.0"",""blink"":true,""windows"":true,""osname"":""Windows"",""osversion"":""10"",""a"":true}","9:23:46","0","1","Practice_1","70","f","1","919.2000000029802","1536 x 864","1536 x 864","true","1","10","","","","",""
"null","<p style=""font-size: 80px;"">+ 10 points</p>","null","html-keyboard-response","12","220634","0.0-7.0-2.11","5778eeb20e49300001ba9ec0","gs3kzr","RS","57","male","{""name"":""Chrome"",""chrome"":true,""version"":""106.0"",""blink"":true,""windows"":true,""osname"":""Windows"",""osversion"":""10"",""a"":true}","9:23:46","0","1","Practice_3","70","f","1","1510","1536 x 864","1536 x 864","true","1","10","","","","",""
"null","<p style=""font-size: 80px;"">+ 10 points</p>","null","html-keyboard-response","13","223363","0.0-7.0-2.12","5778eeb20e49300001ba9ec0","gs3kzr","RS","57","male","{""name"":""Chrome"",""chrome"":true,""version"":""106.0"",""blink"":true,""windows"":true,""osname"":""Windows"",""osversion"":""10"",""a"":true}","9:23:46","0","1","Practice_3","70","f","1","713.7999999970198","1536 x 864","1536 x 864","true","1","10","","","","",""
"null","<p style=""font-size: 80px;"">+ 10 points</p>","null","html-keyboard-response","14","226246","0.0-7.0-2.13","5778eeb20e49300001ba9ec0","gs3kzr","RS","57","male","{""name"":""Chrome"",""chrome"":true,""version"":""106.0"",""blink"":true,""windows"":true,""osname"":""Windows"",""osversion"":""10"",""a"":true}","9:23:46","0","1","Practice_1","70","f","1","856.7000000029802","1536 x 864","1536 x 864","true","1","10","","","","",""
"null","<p style=""font-size: 80px;"">+ 10 points</p>","null","html-keyboard-response","15","230048","0.0-7.0-2.14","5778eeb20e49300001ba9ec0","gs3kzr","RS","57","male","{""name"":""Chrome"",""chrome"":true,""version"":""106.0"",""blink"":true,""windows"":true,""osname"":""Windows"",""osversion"":""10"",""a"":true}","9:23:46","0","1","Practice_2","74","j","1","1773","1536 x 864","1536 x 864","true","1","10","","","","",""
"null","<p style=""font-size: 80px;"">+ 10 points</p>","null","html-keyboard-response","16","232915","0.0-7.0-2.15","5778eeb20e49300001ba9ec0","gs3kzr","RS","57","male","{""name"":""Chrome"",""chrome"":true,""version"":""106.0"",""blink"":true,""windows"":true,""osname"":""Windows"",""osversion"":""10"",""a"":true}","9:23:46","0","1","Practice_4","74","j","1","839.6000000089407","1536 x 864","1536 x 864","true","1","10","","","","",""
"null","<p style=""font-size: 80px;"">+ 10 points</p>","null","html-keyboard-response","17","236118","0.0-7.0-2.16","5778eeb20e49300001ba9ec0","gs3kzr","RS","57","male","{""name"":""Chrome"",""chrome"":true,""version"":""106.0"",""blink"":true,""windows"":true,""osname"":""Windows"",""osversion"":""10"",""a"":true}","9:23:46","0","1","Practice_2","74","j","1","1185.5999999940395","1536 x 864","1536 x 864","true","1","10","","","","",""
"null","<p style=""font-size: 80px;"">+ 10 points</p>","null","html-keyboard-response","18","239260","0.0-7.0-2.17","5778eeb20e49300001ba9ec0","gs3kzr","RS","57","male","{""name"":""Chrome"",""chrome"":true,""version"":""106.0"",""blink"":true,""windows"":true,""osname"":""Windows"",""osversion"":""10"",""a"":true}","9:23:46","0","1","Practice_3","70","f","1","1114.2000000029802","1536 x 864","1536 x 864","true","1","10","","","","",""
"null","<p style=""font-size: 80px;"">+ 10 points</p>","null","html-keyboard-response","19","241940","0.0-7.0-2.18","5778eeb20e49300001ba9ec0","gs3kzr","RS","57","male","{""name"":""Chrome"",""chrome"":true,""version"":""106.0"",""blink"":true,""windows"":true,""osname"":""Windows"",""osversion"":""10"",""a"":true}","9:23:46","0","1","Practice_4","74","j","1","649.0999999940395","1536 x 864","1536 x 864","true","1","10","","","","",""
"null","<p style=""font-size: 80px;"">+ 0 points</p>","null","html-keyboard-response","20","246235","0.0-7.0-2.19","5778eeb20e49300001ba9ec0","gs3kzr","RS","57","male","{""name"":""Chrome"",""chrome"":true,""version"":""106.0"",""blink"":true,""windows"":true,""osname"":""Windows"",""osversion"":""10"",""a"":true}","9:23:46","0","1","Practice_2","70","j","0","2266.2999999970198","1536 x 864","1536 x 864","true","1","0","","","","",""
"null","<p style=""font-size: 80px;"">+ 0 points</p>","null","html-keyboard-response","21","249301","0.0-7.0-2.20","5778eeb20e49300001ba9ec0","gs3kzr","RS","57","male","{""name"":""Chrome"",""chrome"":true,""version"":""106.0"",""blink"":true,""windows"":true,""osname"":""Windows"",""osversion"":""10"",""a"":true}","9:23:46","0","2","Practice_4","74","f","0","1048.1000000089407","1536 x 864","1536 x 864","true","1","0","","","","",""
"null","<p style=""font-size: 80px;"">+ 0 points</p>","null","html-keyboard-response","22","252206","0.0-7.0-2.21","5778eeb20e49300001ba9ec0","gs3kzr","RS","57","male","{""name"":""Chrome"",""chrome"":true,""version"":""106.0"",""blink"":true,""windows"":true,""osname"":""Windows"",""osversion"":""10"",""a"":true}","9:23:46","0","2","Practice_1","70","j","0","871.5999999940395","1536 x 864","1536 x 864","true","1","0","","","","",""
"null","<p style=""font-size: 80px;"">+ 0 points</p>","null","html-keyboard-response","23","255209","0.0-7.0-2.22","5778eeb20e49300001ba9ec0","gs3kzr","RS","57","male","{""name"":""Chrome"",""chrome"":true,""version"":""106.0"",""blink"":true,""windows"":true,""osname"":""Windows"",""osversion"":""10"",""a"":true}","9:23:46","0","2","Practice_2","74","f","0","988.8999999910593","1536 x 864","1536 x 864","true","1","0","","","","",""
"null","<p style=""font-size: 80px;"">+ 0 points</p>","null","html-keyboard-response","24","257989","0.0-7.0-2.23","5778eeb20e49300001ba9ec0","gs3kzr","RS","57","male","{""name"":""Chrome"",""chrome"":true,""version"":""106.0"",""blink"":true,""windows"":true,""osname"":""Windows"",""osversion"":""10"",""a"":true}","9:23:46","0","2","Practice_1","70","j","0","758.0999999940395","1536 x 864","1536 x 864","true","1","0","","","","",""
"null","<p style=""font-size: 80px;"">+ 0 points</p>","null","html-keyboard-response","25","261087","0.0-7.0-2.24","5778eeb20e49300001ba9ec0","gs3kzr","RS","57","male","{""name"":""Chrome"",""chrome"":true,""version"":""106.0"",""blink"":true,""windows"":true,""osname"":""Windows"",""osversion"":""10"",""a"":true}","9:23:46","0","2","Practice_2","74","f","0","1072.5","1536 x 864","1536 x 864","true","1","0","","","","",""
"null","<p style=""font-size: 80px;"">+ 10 points</p>","null","html-keyboard-response","26","264035","0.0-7.0-2.25","5778eeb20e49300001ba9ec0","gs3kzr","RS","57","male","{""name"":""Chrome"",""chrome"":true,""version"":""106.0"",""blink"":true,""windows"":true,""osname"":""Windows"",""osversion"":""10"",""a"":true}","9:23:46","0","2","Practice_3","74","j","1","923.6999999880791","1536 x 864","1536 x 864","true","1","10","","","","",""
"null","<p style=""font-size: 80px;"">+ 10 points</p>","null","html-keyboard-response","27","266967","0.0-7.0-2.26","5778eeb20e49300001ba9ec0","gs3kzr","RS","57","male","{""name"":""Chrome"",""chrome"":true,""version"":""106.0"",""blink"":true,""windows"":true,""osname"":""Windows"",""osversion"":""10"",""a"":true}","9:23:46","0","2","Practice_4","70","f","1","912.0999999940395","1536 x 864","1536 x 864","true","1","10","","","","",""
"null","<p style=""font-size: 80px;"">+ 0 points</p>","null","html-keyboard-response","28","269615","0.0-7.0-2.27","5778eeb20e49300001ba9ec0","gs3kzr","RS","57","male","{""name"":""Chrome"",""chrome"":true,""version"":""106.0"",""blink"":true,""windows"":true,""osname"":""Windows"",""osversion"":""10"",""a"":true}","9:23:46","0","2","Practice_3","70","j","0","613.9000000059605","1536 x 864","1536 x 864","true","1","0","","","","",""
"null","<p style=""font-size: 80px;"">+ 10 points</p>","null","html-keyboard-response","29","272263","0.0-7.0-2.28","5778eeb20e49300001ba9ec0","gs3kzr","RS","57","male","{""name"":""Chrome"",""chrome"":true,""version"":""106.0"",""blink"":true,""windows"":true,""osname"":""Windows"",""osversion"":""10"",""a"":true}","9:23:46","0","2","Practice_4","70","f","1","613.2999999970198","1536 x 864","1536 x 864","true","1","10","","","","",""
"null","<p style=""font-size: 80px;"">+ 0 points</p>","null","html-keyboard-response","30","275108","0.0-7.0-2.29","5778eeb20e49300001ba9ec0","gs3kzr","RS","57","male","{""name"":""Chrome"",""chrome"":true,""version"":""106.0"",""blink"":true,""windows"":true,""osname"":""Windows"",""osversion"":""10"",""a"":true}","9:23:46","0","2","Practice_1","70","j","0","826.7999999970198","1536 x 864","1536 x 864","true","1","0","","","","",""
"null","<p style=""font-size: 80px;"">+ 10 points</p>","null","html-keyboard-response","31","277786","0.0-7.0-2.30","5778eeb20e49300001ba9ec0","gs3kzr","RS","57","male","{""name"":""Chrome"",""chrome"":true,""version"":""106.0"",""blink"":true,""windows"":true,""osname"":""Windows"",""osversion"":""10"",""a"":true}","9:23:46","0","2","Practice_1","74","j","1","652.4000000059605","1536 x 864","1536 x 864","true","1","10","","","","",""
"null","<p style=""font-size: 80px;"">+ 0 points</p>","null","html-keyboard-response","32","280754","0.0-7.0-2.31","5778eeb20e49300001ba9ec0","gs3kzr","RS","57","male","{""name"":""Chrome"",""chrome"":true,""version"":""106.0"",""blink"":true,""windows"":true,""osname"":""Windows"",""osversion"":""10"",""a"":true}","9:23:46","0","2","Practice_3","70","j","0","948.7999999970198","1536 x 864","1536 x 864","true","1","0","","","","",""
"null","<p style=""font-size: 80px;"">+ 10 points</p>","null","html-keyboard-response","33","285047","0.0-7.0-2.32","5778eeb20e49300001ba9ec0","gs3kzr","RS","57","male","{""name"":""Chrome"",""chrome"":true,""version"":""106.0"",""blink"":true,""windows"":true,""osname"":""Windows"",""osversion"":""10"",""a"":true}","9:23:46","0","2","Practice_4","70","f","1","2268.2000000029802","1536 x 864","1536 x 864","true","1","10","","","","",""
"null","<p style=""font-size: 80px;"">+ 10 points</p>","null","html-keyboard-response","34","287646","0.0-7.0-2.33","5778eeb20e49300001ba9ec0","gs3kzr","RS","57","male","{""name"":""Chrome"",""chrome"":true,""version"":""106.0"",""blink"":true,""windows"":true,""osname"":""Windows"",""osversion"":""10"",""a"":true}","9:23:46","0","2","Practice_3","74","j","1","573.2000000029802","1536 x 864","1536 x 864","true","1","10","","","","",""
"null","<p style=""font-size: 80px;"">+ 0 points</p>","null","html-keyboard-response","35","292725","0.0-7.0-2.34","5778eeb20e49300001ba9ec0","gs3kzr","RS","57","male","{""name"":""Chrome"",""chrome"":true,""version"":""106.0"",""blink"":true,""windows"":true,""osname"":""Windows"",""osversion"":""10"",""a"":true}","9:23:46","0","2","Practice_3","70","j","0","3061.5","1536 x 864","1536 x 864","true","1","0","","","","",""
"null","<p style=""font-size: 80px;"">+ 0 points</p>","null","html-keyboard-response","36","295855","0.0-7.0-2.35","5778eeb20e49300001ba9ec0","gs3kzr","RS","57","male","{""name"":""Chrome"",""chrome"":true,""version"":""106.0"",""blink"":true,""windows"":true,""osname"":""Windows"",""osversion"":""10"",""a"":true}","9:23:46","0","2","Practice_2","74","f","0","1120.0999999940395","1536 x 864","1536 x 864","true","1","0","","","","",""
"null","<p style=""font-size: 80px;"">+ 0 points</p>","null","html-keyboard-response","37","298693","0.0-7.0-2.36","5778eeb20e49300001ba9ec0","gs3kzr","RS","57","male","{""name"":""Chrome"",""chrome"":true,""version"":""106.0"",""blink"":true,""windows"":true,""osname"":""Windows"",""osversion"":""10"",""a"":true}","9:23:46","0","2","Practice_2","74","f","0","815.8000000119209","1536 x 864","1536 x 864","true","1","0","","","","",""
"null","<p style=""font-size: 80px;"">+ 10 points</p>","null","html-keyboard-response","38","302474","0.0-7.0-2.37","5778eeb20e49300001ba9ec0","gs3kzr","RS","57","male","{""name"":""Chrome"",""chrome"":true,""version"":""106.0"",""blink"":true,""windows"":true,""osname"":""Windows"",""osversion"":""10"",""a"":true}","9:23:46","0","2","Practice_4","70","f","1","1750.2000000029802","1536 x 864","1536 x 864","true","1","10","","","","",""
"null","<p style=""font-size: 80px;"">+ 10 points</p>","null","html-keyboard-response","39","305890","0.0-7.0-2.38","5778eeb20e49300001ba9ec0","gs3kzr","RS","57","male","{""name"":""Chrome"",""chrome"":true,""version"":""106.0"",""blink"":true,""windows"":true,""osname"":""Windows"",""osversion"":""10"",""a"":true}","9:23:46","0","2","Practice_1","74","j","1","1380.300000011921","1536 x 864","1536 x 864","true","1","10","","","","",""
"null","<p style=""font-size: 80px;"">+ 10 points</p>","null","html-keyboard-response","40","308564","0.0-7.0-2.39","5778eeb20e49300001ba9ec0","gs3kzr","RS","57","male","{""name"":""Chrome"",""chrome"":true,""version"":""106.0"",""blink"":true,""windows"":true,""osname"":""Windows"",""osversion"":""10"",""a"":true}","9:23:46","0","2","Practice_2","70","f","1","647.9000000059605","1536 x 864","1536 x 864","true","1","10","","","","",""
"14171.20000000298","","","survey-multi-choice","127","322748","0.0-8.0","5778eeb20e49300001ba9ec0","gs3kzr","RS","57","male","{""name"":""Chrome"",""chrome"":true,""version"":""106.0"",""blink"":true,""windows"":true,""osname"":""Windows"",""osversion"":""10"",""a"":true}","9:23:46","","","","","","","","","","","1","","{""Q0"":""The green one"",""Q1"":""1""}","[0,1]","1","The green one","1"
"null","<p style=""font-size: 80px;"">+ 10 points</p>","null","html-keyboard-response","1","340187","0.0-9.0-1.0-2.0","5778eeb20e49300001ba9ec0","gs3kzr","RS","57","male","{""name"":""Chrome"",""chrome"":true,""version"":""106.0"",""blink"":true,""windows"":true,""osname"":""Windows"",""osversion"":""10"",""a"":true}","9:23:46","0","1","Practice_3","70","f","1","2722.2000000029802","1536 x 864","1536 x 864","true","1","10","","","","",""
"null","<p style=""font-size: 80px;"">+ 10 points</p>","null","html-keyboard-response","2","344247","0.0-9.0-1.0-2.1","5778eeb20e49300001ba9ec0","gs3kzr","RS","57","male","{""name"":""Chrome"",""chrome"":true,""version"":""106.0"",""blink"":true,""windows"":true,""osname"":""Windows"",""osversion"":""10"",""a"":true}","9:23:46","0","1","Practice_1","70","f","1","2042.7000000029802","1536 x 864","1536 x 864","true","1","10","","","","",""
"null","<p style=""font-size: 80px;"">+ 0 points</p>","null","html-keyboard-response","3","349093","0.0-9.0-1.0-2.2","5778eeb20e49300001ba9ec0","gs3kzr","RS","57","male","{""name"":""Chrome"",""chrome"":true,""version"":""106.0"",""blink"":true,""windows"":true,""osname"":""Windows"",""osversion"":""10"",""a"":true}","9:23:46","0","1","Practice_4","70","j","0","2829.2999999970198","1536 x 864","1536 x 864","true","1","0","","","","",""
"null","<p style=""font-size: 80px;"">+ 0 points</p>","null","html-keyboard-response","4","353389","0.0-9.0-1.0-2.3","5778eeb20e49300001ba9ec0","gs3kzr","RS","57","male","{""name"":""Chrome"",""chrome"":true,""version"":""106.0"",""blink"":true,""windows"":true,""osname"":""Windows"",""osversion"":""10"",""a"":true}","9:23:46","0","1","Practice_2","70","j","0","2278.2999999970198","1536 x 864","1536 x 864","true","1","0","","","","",""
"null","<p style=""font-size: 80px;"">+ 0 points</p>","null","html-keyboard-response","5","356190","0.0-9.0-1.0-2.4","5778eeb20e49300001ba9ec0","gs3kzr","RS","57","male","{""name"":""Chrome"",""chrome"":true,""version"":""106.0"",""blink"":true,""windows"":true,""osname"":""Windows"",""osversion"":""10"",""a"":true}","9:23:46","0","1","Practice_1","74","f","0","784","1536 x 864","1536 x 864","true","1","0","","","","",""
"null","<p style=""font-size: 80px;"">+ 10 points</p>","null","html-keyboard-response","6","359366","0.0-9.0-1.0-2.5","5778eeb20e49300001ba9ec0","gs3kzr","RS","57","male","{""name"":""Chrome"",""chrome"":true,""version"":""106.0"",""blink"":true,""windows"":true,""osname"":""Windows"",""osversion"":""10"",""a"":true}","9:23:46","0","1","Practice_3","70","f","1","1148.0999999940395","1536 x 864","1536 x 864","true","1","10","","","","",""
"null","<p style=""font-size: 80px;"">+ 0 points</p>","null","html-keyboard-response","7","364947","0.0-9.0-1.0-2.6","5778eeb20e49300001ba9ec0","gs3kzr","RS","57","male","{""name"":""Chrome"",""chrome"":true,""version"":""106.0"",""blink"":true,""windows"":true,""osname"":""Windows"",""osversion"":""10"",""a"":true}","9:23:46","0","1","Practice_2","70","j","0","3568.2999999970198","1536 x 864","1536 x 864","true","1","0","","","","",""
"null","<p style=""font-size: 80px;"">+ 10 points</p>","null","html-keyboard-response","8","368471","0.0-9.0-1.0-2.7","5778eeb20e49300001ba9ec0","gs3kzr","RS","57","male","{""name"":""Chrome"",""chrome"":true,""version"":""106.0"",""blink"":true,""windows"":true,""osname"":""Windows"",""osversion"":""10"",""a"":true}","9:23:46","0","1","Practice_4","74","j","1","1505.1000000089407","1536 x 864","1536 x 864","true","1","10","","","","",""
"null","<p style=""font-size: 80px;"">+ 10 points</p>","null","html-keyboard-response","9","371525","0.0-9.0-1.0-2.8","5778eeb20e49300001ba9ec0","gs3kzr","RS","57","male","{""name"":""Chrome"",""chrome"":true,""version"":""106.0"",""blink"":true,""windows"":true,""osname"":""Windows"",""osversion"":""10"",""a"":true}","9:23:46","0","1","Practice_4","74","j","1","1036.0999999940395","1536 x 864","1536 x 864","true","1","10","","","","",""
"null","<p style=""font-size: 80px;"">+ 10 points</p>","null","html-keyboard-response","10","374887","0.0-9.0-1.0-2.9","5778eeb20e49300001ba9ec0","gs3kzr","RS","57","male","{""name"":""Chrome"",""chrome"":true,""version"":""106.0"",""blink"":true,""windows"":true,""osname"":""Windows"",""osversion"":""10"",""a"":true}","9:23:46","0","1","Practice_1","70","f","1","1340.7000000029802","1536 x 864","1536 x 864","true","1","10","","","","",""
"null","<p style=""font-size: 80px;"">+ 10 points</p>","null","html-keyboard-response","11","379582","0.0-9.0-1.0-2.10","5778eeb20e49300001ba9ec0","gs3kzr","RS","57","male","{""name"":""Chrome"",""chrome"":true,""version"":""106.0"",""blink"":true,""windows"":true,""osname"":""Windows"",""osversion"":""10"",""a"":true}","9:23:46","0","1","Practice_1","70","f","1","2678.7000000029802","1536 x 864","1536 x 864","true","1","10","","","","",""
"null","<p style=""font-size: 80px;"">+ 0 points</p>","null","html-keyboard-response","12","382612","0.0-9.0-1.0-2.11","5778eeb20e49300001ba9ec0","gs3kzr","RS","57","male","{""name"":""Chrome"",""chrome"":true,""version"":""106.0"",""blink"":true,""windows"":true,""osname"":""Windows"",""osversion"":""10"",""a"":true}","9:23:46","0","1","Practice_3","74","f","0","1008.2000000029802","1536 x 864","1536 x 864","true","1","0","","","","",""
"null","<p style=""font-size: 80px;"">+ 10 points</p>","null","html-keyboard-response","13","385673","0.0-9.0-1.0-2.12","5778eeb20e49300001ba9ec0","gs3kzr","RS","57","male","{""name"":""Chrome"",""chrome"":true,""version"":""106.0"",""blink"":true,""windows"":true,""osname"":""Windows"",""osversion"":""10"",""a"":true}","9:23:46","0","1","Practice_3","70","f","1","1042.5999999940395","1536 x 864","1536 x 864","true","1","10","","","","",""
"null","<p style=""font-size: 80px;"">+ 10 points</p>","null","html-keyboard-response","14","390487","0.0-9.0-1.0-2.13","5778eeb20e49300001ba9ec0","gs3kzr","RS","57","male","{""name"":""Chrome"",""chrome"":true,""version"":""106.0"",""blink"":true,""windows"":true,""osname"":""Windows"",""osversion"":""10"",""a"":true}","9:23:46","0","1","Practice_1","70","f","1","2789.7000000029802","1536 x 864","1536 x 864","true","1","10","","","","",""
"null","<p style=""font-size: 80px;"">+ 10 points</p>","null","html-keyboard-response","15","394916","0.0-9.0-1.0-2.14","5778eeb20e49300001ba9ec0","gs3kzr","RS","57","male","{""name"":""Chrome"",""chrome"":true,""version"":""106.0"",""blink"":true,""windows"":true,""osname"":""Windows"",""osversion"":""10"",""a"":true}","9:23:46","0","1","Practice_2","74","j","1","2398.7999999970198","1536 x 864","1536 x 864","true","1","10","","","","",""
"null","<p style=""font-size: 80px;"">+ 10 points</p>","null","html-keyboard-response","16","398425","0.0-9.0-1.0-2.15","5778eeb20e49300001ba9ec0","gs3kzr","RS","57","male","{""name"":""Chrome"",""chrome"":true,""version"":""106.0"",""blink"":true,""windows"":true,""osname"":""Windows"",""osversion"":""10"",""a"":true}","9:23:46","0","1","Practice_4","74","j","1","1489.4000000059605","1536 x 864","1536 x 864","true","1","10","","","","",""
"null","<p style=""font-size: 80px;"">+ 10 points</p>","null","html-keyboard-response","17","401798","0.0-9.0-1.0-2.16","5778eeb20e49300001ba9ec0","gs3kzr","RS","57","male","{""name"":""Chrome"",""chrome"":true,""version"":""106.0"",""blink"":true,""windows"":true,""osname"":""Windows"",""osversion"":""10"",""a"":true}","9:23:46","0","1","Practice_2","74","j","1","1354.2000000029802","1536 x 864","1536 x 864","true","1","10","","","","",""
"null","<p style=""font-size: 80px;"">+ 10 points</p>","null","html-keyboard-response","18","405562","0.0-9.0-1.0-2.17","5778eeb20e49300001ba9ec0","gs3kzr","RS","57","male","{""name"":""Chrome"",""chrome"":true,""version"":""106.0"",""blink"":true,""windows"":true,""osname"":""Windows"",""osversion"":""10"",""a"":true}","9:23:46","0","1","Practice_3","70","f","1","1745.2999999970198","1536 x 864","1536 x 864","true","1","10","","","","",""
"null","<p style=""font-size: 80px;"">+ 10 points</p>","null","html-keyboard-response","19","409404","0.0-9.0-1.0-2.18","5778eeb20e49300001ba9ec0","gs3kzr","RS","57","male","{""name"":""Chrome"",""chrome"":true,""version"":""106.0"",""blink"":true,""windows"":true,""osname"":""Windows"",""osversion"":""10"",""a"":true}","9:23:46","0","1","Practice_4","74","j","1","1821.5999999940395","1536 x 864","1536 x 864","true","1","10","","","","",""
"null","<p style=""font-size: 80px;"">+ 10 points</p>","null","html-keyboard-response","20","412557","0.0-9.0-1.0-2.19","5778eeb20e49300001ba9ec0","gs3kzr","RS","57","male","{""name"":""Chrome"",""chrome"":true,""version"":""106.0"",""blink"":true,""windows"":true,""osname"":""Windows"",""osversion"":""10"",""a"":true}","9:23:46","0","1","Practice_2","74","j","1","1142.5999999940395","1536 x 864","1536 x 864","true","1","10","","","","",""
"null","<p style=""font-size: 80px;"">+ 0 points</p>","null","html-keyboard-response","21","415533","0.0-9.0-1.0-2.20","5778eeb20e49300001ba9ec0","gs3kzr","RS","57","male","{""name"":""Chrome"",""chrome"":true,""version"":""106.0"",""blink"":true,""windows"":true,""osname"":""Windows"",""osversion"":""10"",""a"":true}","9:23:46","0","2","Practice_4","74","f","0","948.7000000029802","1536 x 864","1536 x 864","true","1","0","","","","",""
"null","<p style=""font-size: 80px;"">+ 10 points</p>","null","html-keyboard-response","22","419191","0.0-9.0-1.0-2.21","5778eeb20e49300001ba9ec0","gs3kzr","RS","57","male","{""name"":""Chrome"",""chrome"":true,""version"":""106.0"",""blink"":true,""windows"":true,""osname"":""Windows"",""osversion"":""10"",""a"":true}","9:23:46","0","2","Practice_1","74","j","1","1640.9000000059605","1536 x 864","1536 x 864","true","1","10","","","","",""
"null","<p style=""font-size: 80px;"">+ 10 points</p>","null","html-keyboard-response","23","423036","0.0-9.0-1.0-2.22","5778eeb20e49300001ba9ec0","gs3kzr","RS","57","male","{""name"":""Chrome"",""chrome"":true,""version"":""106.0"",""blink"":true,""windows"":true,""osname"":""Windows"",""osversion"":""10"",""a"":true}","9:23:46","0","2","Practice_2","70","f","1","1820.4000000059605","1536 x 864","1536 x 864","true","1","10","","","","",""
"null","<p style=""font-size: 80px;"">+ 10 points</p>","null","html-keyboard-response","24","426598","0.0-9.0-1.0-2.23","5778eeb20e49300001ba9ec0","gs3kzr","RS","57","male","{""name"":""Chrome"",""chrome"":true,""version"":""106.0"",""blink"":true,""windows"":true,""osname"":""Windows"",""osversion"":""10"",""a"":true}","9:23:46","0","2","Practice_1","74","j","1","1530.2000000029802","1536 x 864","1536 x 864","true","1","10","","","","",""
"null","<p style=""font-size: 80px;"">+ 10 points</p>","null","html-keyboard-response","25","430676","0.0-9.0-1.0-2.24","5778eeb20e49300001ba9ec0","gs3kzr","RS","57","male","{""name"":""Chrome"",""chrome"":true,""version"":""106.0"",""blink"":true,""windows"":true,""osname"":""Windows"",""osversion"":""10"",""a"":true}","9:23:46","0","2","Practice_2","70","f","1","2052.7999999970198","1536 x 864","1536 x 864","true","1","10","","","","",""
"null","<p style=""font-size: 80px;"">+ 10 points</p>","null","html-keyboard-response","26","434574","0.0-9.0-1.0-2.25","5778eeb20e49300001ba9ec0","gs3kzr","RS","57","male","{""name"":""Chrome"",""chrome"":true,""version"":""106.0"",""blink"":true,""windows"":true,""osname"":""Windows"",""osversion"":""10"",""a"":true}","9:23:46","0","2","Practice_3","74","j","1","1870.1000000089407","1536 x 864","1536 x 864","true","1","10","","","","",""
"null","<p style=""font-size: 80px;"">+ 10 points</p>","null","html-keyboard-response","27","439004","0.0-9.0-1.0-2.26","5778eeb20e49300001ba9ec0","gs3kzr","RS","57","male","{""name"":""Chrome"",""chrome"":true,""version"":""106.0"",""blink"":true,""windows"":true,""osname"":""Windows"",""osversion"":""10"",""a"":true}","9:23:46","0","2","Practice_4","70","f","1","2404.6000000089407","1536 x 864","1536 x 864","true","1","10","","","","",""
"null","<p style=""font-size: 80px;"">+ 10 points</p>","null","html-keyboard-response","28","443059","0.0-9.0-1.0-2.27","5778eeb20e49300001ba9ec0","gs3kzr","RS","57","male","{""name"":""Chrome"",""chrome"":true,""version"":""106.0"",""blink"":true,""windows"":true,""osname"":""Windows"",""osversion"":""10"",""a"":true}","9:23:46","0","2","Practice_3","74","j","1","2026.9000000059605","1536 x 864","1536 x 864","true","1","10","","","","",""
"null","<p style=""font-size: 80px;"">+ 10 points</p>","null","html-keyboard-response","29","446027","0.0-9.0-1.0-2.28","5778eeb20e49300001ba9ec0","gs3kzr","RS","57","male","{""name"":""Chrome"",""chrome"":true,""version"":""106.0"",""blink"":true,""windows"":true,""osname"":""Windows"",""osversion"":""10"",""a"":true}","9:23:46","0","2","Practice_4","70","f","1","954.9000000059605","1536 x 864","1536 x 864","true","1","10","","","","",""
"null","<p style=""font-size: 80px;"">+ 10 points</p>","null","html-keyboard-response","30","449472","0.0-9.0-1.0-2.29","5778eeb20e49300001ba9ec0","gs3kzr","RS","57","male","{""name"":""Chrome"",""chrome"":true,""version"":""106.0"",""blink"":true,""windows"":true,""osname"":""Windows"",""osversion"":""10"",""a"":true}","9:23:46","0","2","Practice_1","74","j","1","1421.8999999910593","1536 x 864","1536 x 864","true","1","10","","","","",""
"null","<p style=""font-size: 80px;"">+ 10 points</p>","null","html-keyboard-response","31","453138","0.0-9.0-1.0-2.30","5778eeb20e49300001ba9ec0","gs3kzr","RS","57","male","{""name"":""Chrome"",""chrome"":true,""version"":""106.0"",""blink"":true,""windows"":true,""osname"":""Windows"",""osversion"":""10"",""a"":true}","9:23:46","0","2","Practice_1","74","j","1","1630.7000000029802","1536 x 864","1536 x 864","true","1","10","","","","",""
"null","<p style=""font-size: 80px;"">+ 0 points</p>","null","html-keyboard-response","32","457185","0.0-9.0-1.0-2.31","5778eeb20e49300001ba9ec0","gs3kzr","RS","57","male","{""name"":""Chrome"",""chrome"":true,""version"":""106.0"",""blink"":true,""windows"":true,""osname"":""Windows"",""osversion"":""10"",""a"":true}","9:23:46","0","2","Practice_3","70","j","0","2011.699999988079","1536 x 864","1536 x 864","true","1","0","","","","",""
"null","<p style=""font-size: 80px;"">+ 10 points</p>","null","html-keyboard-response","33","460365","0.0-9.0-1.0-2.32","5778eeb20e49300001ba9ec0","gs3kzr","RS","57","male","{""name"":""Chrome"",""chrome"":true,""version"":""106.0"",""blink"":true,""windows"":true,""osname"":""Windows"",""osversion"":""10"",""a"":true}","9:23:46","0","2","Practice_4","70","f","1","1167.4000000059605","1536 x 864","1536 x 864","true","1","10","","","","",""
"null","<p style=""font-size: 80px;"">+ 10 points</p>","null","html-keyboard-response","34","463164","0.0-9.0-1.0-2.33","5778eeb20e49300001ba9ec0","gs3kzr","RS","57","male","{""name"":""Chrome"",""chrome"":true,""version"":""106.0"",""blink"":true,""windows"":true,""osname"":""Windows"",""osversion"":""10"",""a"":true}","9:23:46","0","2","Practice_3","74","j","1","766","1536 x 864","1536 x 864","true","1","10","","","","",""
"null","<p style=""font-size: 80px;"">+ 10 points</p>","null","html-keyboard-response","35","466710","0.0-9.0-1.0-2.34","5778eeb20e49300001ba9ec0","gs3kzr","RS","57","male","{""name"":""Chrome"",""chrome"":true,""version"":""106.0"",""blink"":true,""windows"":true,""osname"":""Windows"",""osversion"":""10"",""a"":true}","9:23:46","0","2","Practice_3","74","j","1","1526.2999999970198","1536 x 864","1536 x 864","true","1","10","","","","",""
"null","<p style=""font-size: 80px;"">+ 10 points</p>","null","html-keyboard-response","36","470487","0.0-9.0-1.0-2.35","5778eeb20e49300001ba9ec0","gs3kzr","RS","57","male","{""name"":""Chrome"",""chrome"":true,""version"":""106.0"",""blink"":true,""windows"":true,""osname"":""Windows"",""osversion"":""10"",""a"":true}","9:23:46","0","2","Practice_2","70","f","1","1748.5999999940395","1536 x 864","1536 x 864","true","1","10","","","","",""
"null","<p style=""font-size: 80px;"">+ 10 points</p>","null","html-keyboard-response","37","474266","0.0-9.0-1.0-2.36","5778eeb20e49300001ba9ec0","gs3kzr","RS","57","male","{""name"":""Chrome"",""chrome"":true,""version"":""106.0"",""blink"":true,""windows"":true,""osname"":""Windows"",""osversion"":""10"",""a"":true}","9:23:46","0","2","Practice_2","70","f","1","1751.2000000029802","1536 x 864","1536 x 864","true","1","10","","","","",""
"null","<p style=""font-size: 80px;"">+ 10 points</p>","null","html-keyboard-response","38","477698","0.0-9.0-1.0-2.37","5778eeb20e49300001ba9ec0","gs3kzr","RS","57","male","{""name"":""Chrome"",""chrome"":true,""version"":""106.0"",""blink"":true,""windows"":true,""osname"":""Windows"",""osversion"":""10"",""a"":true}","9:23:46","0","2","Practice_4","70","f","1","1399.300000011921","1536 x 864","1536 x 864","true","1","10","","","","",""
"null","<p style=""font-size: 80px;"">+ 10 points</p>","null","html-keyboard-response","39","481668","0.0-9.0-1.0-2.38","5778eeb20e49300001ba9ec0","gs3kzr","RS","57","male","{""name"":""Chrome"",""chrome"":true,""version"":""106.0"",""blink"":true,""windows"":true,""osname"":""Windows"",""osversion"":""10"",""a"":true}","9:23:46","0","2","Practice_1","74","j","1","1960.7999999970198","1536 x 864","1536 x 864","true","1","10","","","","",""
"null","<p style=""font-size: 80px;"">+ 10 points</p>","null","html-keyboard-response","40","487980","0.0-9.0-1.0-2.39","5778eeb20e49300001ba9ec0","gs3kzr","RS","57","male","{""name"":""Chrome"",""chrome"":true,""version"":""106.0"",""blink"":true,""windows"":true,""osname"":""Windows"",""osversion"":""10"",""a"":true}","9:23:46","0","2","Practice_2","70","f","1","4291.4000000059605","1536 x 864","1536 x 864","true","1","10","","","","",""
"7650.79999999702","","","survey-multi-choice","249","495633","0.0-9.0-2.0","5778eeb20e49300001ba9ec0","gs3kzr","RS","57","male","{""name"":""Chrome"",""chrome"":true,""version"":""106.0"",""blink"":true,""windows"":true,""osname"":""Windows"",""osversion"":""10"",""a"":true}","9:23:46","","","","","","","","","","","1","","{""Q0"":""The green one"",""Q1"":""1""}","[0,1]","1","The green one","1"
"null","<p style=""font-size: 80px;"">+ 0 points</p>","null","html-keyboard-response","1","735289","0.0-11.0-2.0","5778eeb20e49300001ba9ec0","gs3kzr","RS","57","male","{""name"":""Chrome"",""chrome"":true,""version"":""106.0"",""blink"":true,""windows"":true,""osname"":""Windows"",""osversion"":""10"",""a"":true}","9:23:46","1","4","Test_1","70","j","0","1823","1536 x 864","1536 x 864","true","1","0","","","","",""
"null","<p style=""font-size: 80px;"">+ 0 points</p>","null","html-keyboard-response","2","739019","0.0-11.0-2.1","5778eeb20e49300001ba9ec0","gs3kzr","RS","57","male","{""name"":""Chrome"",""chrome"":true,""version"":""106.0"",""blink"":true,""windows"":true,""osname"":""Windows"",""osversion"":""10"",""a"":true}","9:23:46","1","4","Test_3","70","j","0","1692.5999999940395","1536 x 864","1536 x 864","true","1","0","","","","",""
"null","<p style=""font-size: 80px;"">+ 10 points</p>","null","html-keyboard-response","3","742184","0.0-11.0-2.2","5778eeb20e49300001ba9ec0","gs3kzr","RS","57","male","{""name"":""Chrome"",""chrome"":true,""version"":""106.0"",""blink"":true,""windows"":true,""osname"":""Windows"",""osversion"":""10"",""a"":true}","9:23:46","1","4","Test_4","70","f","1","1134.2000000029802","1536 x 864","1536 x 864","true","1","10","","","","",""
"null","<p style=""font-size: 80px;"">+ 0 points</p>","null","html-keyboard-response","4","745153","0.0-11.0-2.3","5778eeb20e49300001ba9ec0","gs3kzr","RS","57","male","{""name"":""Chrome"",""chrome"":true,""version"":""106.0"",""blink"":true,""windows"":true,""osname"":""Windows"",""osversion"":""10"",""a"":true}","9:23:46","1","4","Test_2","74","f","0","942","1536 x 864","1536 x 864","true","1","0","","","","",""
"null","<p style=""font-size: 80px;"">+ 0 points</p>","null","html-keyboard-response","5","749257","0.0-11.0-2.4","5778eeb20e49300001ba9ec0","gs3kzr","RS","57","male","{""name"":""Chrome"",""chrome"":true,""version"":""106.0"",""blink"":true,""windows"":true,""osname"":""Windows"",""osversion"":""10"",""a"":true}","9:23:46","1","4","Test_4","74","f","0","2084.4000000059605","1536 x 864","1536 x 864","true","1","0","","","","",""
"null","<p style=""font-size: 80px;"">+ 10 points</p>","null","html-keyboard-response","6","752093","0.0-11.0-2.5","5778eeb20e49300001ba9ec0","gs3kzr","RS","57","male","{""name"":""Chrome"",""chrome"":true,""version"":""106.0"",""blink"":true,""windows"":true,""osname"":""Windows"",""osversion"":""10"",""a"":true}","9:23:46","1","4","Test_4","70","f","1","804.8999999910593","1536 x 864","1536 x 864","true","1","10","","","","",""
"null","<p style=""font-size: 80px;"">+ 10 points</p>","null","html-keyboard-response","7","754937","0.0-11.0-2.6","5778eeb20e49300001ba9ec0","gs3kzr","RS","57","male","{""name"":""Chrome"",""chrome"":true,""version"":""106.0"",""blink"":true,""windows"":true,""osname"":""Windows"",""osversion"":""10"",""a"":true}","9:23:46","1","4","Test_2","70","f","1","814.1999999880791","1536 x 864","1536 x 864","true","1","10","","","","",""
"null","<p style=""font-size: 80px;"">+ 10 points</p>","null","html-keyboard-response","8","757951","0.0-11.0-2.7","5778eeb20e49300001ba9ec0","gs3kzr","RS","57","male","{""name"":""Chrome"",""chrome"":true,""version"":""106.0"",""blink"":true,""windows"":true,""osname"":""Windows"",""osversion"":""10"",""a"":true}","9:23:46","1","4","Test_3","74","j","1","997.1000000089407","1536 x 864","1536 x 864","true","1","10","","","","",""
"null","<p style=""font-size: 80px;"">+ 10 points</p>","null","html-keyboard-response","9","761435","0.0-11.0-2.8","5778eeb20e49300001ba9ec0","gs3kzr","RS","57","male","{""name"":""Chrome"",""chrome"":true,""version"":""106.0"",""blink"":true,""windows"":true,""osname"":""Windows"",""osversion"":""10"",""a"":true}","9:23:46","1","4","Test_2","70","f","1","1461","1536 x 864","1536 x 864","true","1","10","","","","",""
"null","<p style=""font-size: 80px;"">+ 10 points</p>","null","html-keyboard-response","10","764961","0.0-11.0-2.9","5778eeb20e49300001ba9ec0","gs3kzr","RS","57","male","{""name"":""Chrome"",""chrome"":true,""version"":""106.0"",""blink"":true,""windows"":true,""osname"":""Windows"",""osversion"":""10"",""a"":true}","9:23:46","1","4","Test_1","74","j","1","1509.2000000029802","1536 x 864","1536 x 864","true","1","10","","","","",""
"null","<p style=""font-size: 80px;"">+ 10 points</p>","null","html-keyboard-response","11","769104","0.0-11.0-2.10","5778eeb20e49300001ba9ec0","gs3kzr","RS","57","male","{""name"":""Chrome"",""chrome"":true,""version"":""106.0"",""blink"":true,""windows"":true,""osname"":""Windows"",""osversion"":""10"",""a"":true}","9:23:46","1","4","Test_3","74","j","1","2108.5","1536 x 864","1536 x 864","true","1","10","","","","",""
"null","<p style=""font-size: 80px;"">+ 10 points</p>","null","html-keyboard-response","12","772220","0.0-11.0-2.11","5778eeb20e49300001ba9ec0","gs3kzr","RS","57","male","{""name"":""Chrome"",""chrome"":true,""version"":""106.0"",""blink"":true,""windows"":true,""osname"":""Windows"",""osversion"":""10"",""a"":true}","9:23:46","1","4","Test_3","74","j","1","1092.8999999910593","1536 x 864","1536 x 864","true","1","10","","","","",""
"null","<p style=""font-size: 80px;"">+ 10 points</p>","null","html-keyboard-response","13","775316","0.0-11.0-2.12","5778eeb20e49300001ba9ec0","gs3kzr","RS","57","male","{""name"":""Chrome"",""chrome"":true,""version"":""106.0"",""blink"":true,""windows"":true,""osname"":""Windows"",""osversion"":""10"",""a"":true}","9:23:46","1","4","Test_4","70","f","1","1060.5","1536 x 864","1536 x 864","true","1","10","","","","",""
"null","<p style=""font-size: 80px;"">+ 10 points</p>","null","html-keyboard-response","14","778765","0.0-11.0-2.13","5778eeb20e49300001ba9ec0","gs3kzr","RS","57","male","{""name"":""Chrome"",""chrome"":true,""version"":""106.0"",""blink"":true,""windows"":true,""osname"":""Windows"",""osversion"":""10"",""a"":true}","9:23:46","1","4","Test_1","74","j","1","1425.7000000029802","1536 x 864","1536 x 864","true","1","10","","","","",""
"null","<p style=""font-size: 80px;"">+ 10 points</p>","null","html-keyboard-response","15","783226","0.0-11.0-2.14","5778eeb20e49300001ba9ec0","gs3kzr","RS","57","male","{""name"":""Chrome"",""chrome"":true,""version"":""106.0"",""blink"":true,""windows"":true,""osname"":""Windows"",""osversion"":""10"",""a"":true}","9:23:46","1","4","Test_2","70","f","1","2434.2000000029802","1536 x 864","1536 x 864","true","1","10","","","","",""
"null","<p style=""font-size: 80px;"">+ 10 points</p>","null","html-keyboard-response","16","786934","0.0-11.0-2.15","5778eeb20e49300001ba9ec0","gs3kzr","RS","57","male","{""name"":""Chrome"",""chrome"":true,""version"":""106.0"",""blink"":true,""windows"":true,""osname"":""Windows"",""osversion"":""10"",""a"":true}","9:23:46","1","4","Test_1","74","j","1","1683.7999999970198","1536 x 864","1536 x 864","true","1","10","","","","",""
"null","<p style=""font-size: 80px;"">+ 10 points</p>","null","html-keyboard-response","17","790653","0.0-11.0-2.16","5778eeb20e49300001ba9ec0","gs3kzr","RS","57","male","{""name"":""Chrome"",""chrome"":true,""version"":""106.0"",""blink"":true,""windows"":true,""osname"":""Windows"",""osversion"":""10"",""a"":true}","9:23:46","1","4","Test_1","74","j","1","1699","1536 x 864","1536 x 864","true","1","10","","","","",""
"null","<p style=""font-size: 80px;"">+ 10 points</p>","null","html-keyboard-response","18","794648","0.0-11.0-2.17","5778eeb20e49300001ba9ec0","gs3kzr","RS","57","male","{""name"":""Chrome"",""chrome"":true,""version"":""106.0"",""blink"":true,""windows"":true,""osname"":""Windows"",""osversion"":""10"",""a"":true}","9:23:46","1","4","Test_2","70","f","1","1960.800000011921","1536 x 864","1536 x 864","true","1","10","","","","",""
"null","<p style=""font-size: 80px;"">+ 0 points</p>","null","html-keyboard-response","19","797531","0.0-11.0-2.18","5778eeb20e49300001ba9ec0","gs3kzr","RS","57","male","{""name"":""Chrome"",""chrome"":true,""version"":""106.0"",""blink"":true,""windows"":true,""osname"":""Windows"",""osversion"":""10"",""a"":true}","9:23:46","1","3","Test_4","70","j","0","857.1000000089407","1536 x 864","1536 x 864","true","1","0","","","","",""
"null","<p style=""font-size: 80px;"">+ 0 points</p>","null","html-keyboard-response","20","800908","0.0-11.0-2.19","5778eeb20e49300001ba9ec0","gs3kzr","RS","57","male","{""name"":""Chrome"",""chrome"":true,""version"":""106.0"",""blink"":true,""windows"":true,""osname"":""Windows"",""osversion"":""10"",""a"":true}","9:23:46","1","3","Test_3","74","f","0","1351.2000000029802","1536 x 864","1536 x 864","true","1","0","","","","",""
"null","<p style=""font-size: 80px;"">+ 10 points</p>","null","html-keyboard-response","21","803634","0.0-11.0-2.20","5778eeb20e49300001ba9ec0","gs3kzr","RS","57","male","{""name"":""Chrome"",""chrome"":true,""version"":""106.0"",""blink"":true,""windows"":true,""osname"":""Windows"",""osversion"":""10"",""a"":true}","9:23:46","1","3","Test_3","70","f","1","698.1000000089407","1536 x 864","1536 x 864","true","1","10","","","","",""
"null","<p style=""font-size: 80px;"">+ 10 points</p>","null","html-keyboard-response","22","807457","0.0-11.0-2.21","5778eeb20e49300001ba9ec0","gs3kzr","RS","57","male","{""name"":""Chrome"",""chrome"":true,""version"":""106.0"",""blink"":true,""windows"":true,""osname"":""Windows"",""osversion"":""10"",""a"":true}","9:23:46","1","3","Test_4","74","j","1","1798.3999999910593","1536 x 864","1536 x 864","true","1","10","","","","",""
"null","<p style=""font-size: 80px;"">+ 10 points</p>","null","html-keyboard-response","23","810402","0.0-11.0-2.22","5778eeb20e49300001ba9ec0","gs3kzr","RS","57","male","{""name"":""Chrome"",""chrome"":true,""version"":""106.0"",""blink"":true,""windows"":true,""osname"":""Windows"",""osversion"":""10"",""a"":true}","9:23:46","1","3","Test_4","74","j","1","915","1536 x 864","1536 x 864","true","1","10","","","","",""
"null","<p style=""font-size: 80px;"">+ 10 points</p>","null","html-keyboard-response","24","813412","0.0-11.0-2.23","5778eeb20e49300001ba9ec0","gs3kzr","RS","57","male","{""name"":""Chrome"",""chrome"":true,""version"":""106.0"",""blink"":true,""windows"":true,""osname"":""Windows"",""osversion"":""10"",""a"":true}","9:23:46","1","3","Test_3","70","f","1","988.0999999940395","1536 x 864","1536 x 864","true","1","10","","","","",""
"null","<p style=""font-size: 80px;"">+ 10 points</p>","null","html-keyboard-response","25","816459","0.0-11.0-2.24","5778eeb20e49300001ba9ec0","gs3kzr","RS","57","male","{""name"":""Chrome"",""chrome"":true,""version"":""106.0"",""blink"":true,""windows"":true,""osname"":""Windows"",""osversion"":""10"",""a"":true}","9:23:46","1","3","Test_3","70","f","1","1031.7999999970198","1536 x 864","1536 x 864","true","1","10","","","","",""
"null","<p style=""font-size: 80px;"">+ 10 points</p>","null","html-keyboard-response","26","819872","0.0-11.0-2.25","5778eeb20e49300001ba9ec0","gs3kzr","RS","57","male","{""name"":""Chrome"",""chrome"":true,""version"":""106.0"",""blink"":true,""windows"":true,""osname"":""Windows"",""osversion"":""10"",""a"":true}","9:23:46","1","3","Test_2","74","j","1","1379.9000000059605","1536 x 864","1536 x 864","true","1","10","","","","",""
"null","<p style=""font-size: 80px;"">+ 10 points</p>","null","html-keyboard-response","27","822839","0.0-11.0-2.26","5778eeb20e49300001ba9ec0","gs3kzr","RS","57","male","{""name"":""Chrome"",""chrome"":true,""version"":""106.0"",""blink"":true,""windows"":true,""osname"":""Windows"",""osversion"":""10"",""a"":true}","9:23:46","1","3","Test_4","74","j","1","939.0999999940395","1536 x 864","1536 x 864","true","1","10","","","","",""
"null","<p style=""font-size: 80px;"">+ 0 points</p>","null","html-keyboard-response","28","825836","0.0-11.0-2.27","5778eeb20e49300001ba9ec0","gs3kzr","RS","57","male","{""name"":""Chrome"",""chrome"":true,""version"":""106.0"",""blink"":true,""windows"":true,""osname"":""Windows"",""osversion"":""10"",""a"":true}","9:23:46","1","3","Test_2","70","j","0","972.5","1536 x 864","1536 x 864","true","1","0","","","","",""
"null","<p style=""font-size: 80px;"">+ 10 points</p>","null","html-keyboard-response","29","829799","0.0-11.0-2.28","5778eeb20e49300001ba9ec0","gs3kzr","RS","57","male","{""name"":""Chrome"",""chrome"":true,""version"":""106.0"",""blink"":true,""windows"":true,""osname"":""Windows"",""osversion"":""10"",""a"":true}","9:23:46","1","3","Test_1","70","f","1","1941","1536 x 864","1536 x 864","true","1","10","","","","",""
"null","<p style=""font-size: 80px;"">+ 10 points</p>","null","html-keyboard-response","30","832613","0.0-11.0-2.29","5778eeb20e49300001ba9ec0","gs3kzr","RS","57","male","{""name"":""Chrome"",""chrome"":true,""version"":""106.0"",""blink"":true,""windows"":true,""osname"":""Windows"",""osversion"":""10"",""a"":true}","9:23:46","1","3","Test_1","70","f","1","791.2999999970198","1536 x 864","1536 x 864","true","1","10","","","","",""
"null","<p style=""font-size: 80px;"">+ 10 points</p>","null","html-keyboard-response","31","835348","0.0-11.0-2.30","5778eeb20e49300001ba9ec0","gs3kzr","RS","57","male","{""name"":""Chrome"",""chrome"":true,""version"":""106.0"",""blink"":true,""windows"":true,""osname"":""Windows"",""osversion"":""10"",""a"":true}","9:23:46","1","3","Test_3","70","f","1","702.7999999970198","1536 x 864","1536 x 864","true","1","10","","","","",""
"null","<p style=""font-size: 80px;"">+ 10 points</p>","null","html-keyboard-response","32","838662","0.0-11.0-2.31","5778eeb20e49300001ba9ec0","gs3kzr","RS","57","male","{""name"":""Chrome"",""chrome"":true,""version"":""106.0"",""blink"":true,""windows"":true,""osname"":""Windows"",""osversion"":""10"",""a"":true}","9:23:46","1","3","Test_4","74","j","1","1288.2000000029802","1536 x 864","1536 x 864","true","1","10","","","","",""
"null","<p style=""font-size: 80px;"">+ 10 points</p>","null","html-keyboard-response","33","841942","0.0-11.0-2.32","5778eeb20e49300001ba9ec0","gs3kzr","RS","57","male","{""name"":""Chrome"",""chrome"":true,""version"":""106.0"",""blink"":true,""windows"":true,""osname"":""Windows"",""osversion"":""10"",""a"":true}","9:23:46","1","3","Test_1","70","f","1","1259.8999999910593","1536 x 864","1536 x 864","true","1","10","","","","",""
"null","<p style=""font-size: 80px;"">+ 10 points</p>","null","html-keyboard-response","34","845351","0.0-11.0-2.33","5778eeb20e49300001ba9ec0","gs3kzr","RS","57","male","{""name"":""Chrome"",""chrome"":true,""version"":""106.0"",""blink"":true,""windows"":true,""osname"":""Windows"",""osversion"":""10"",""a"":true}","9:23:46","1","3","Test_2","74","j","1","1390.7000000029802","1536 x 864","1536 x 864","true","1","10","","","","",""
"null","<p style=""font-size: 80px;"">+ 10 points</p>","null","html-keyboard-response","35","848117","0.0-11.0-2.34","5778eeb20e49300001ba9ec0","gs3kzr","RS","57","male","{""name"":""Chrome"",""chrome"":true,""version"":""106.0"",""blink"":true,""windows"":true,""osname"":""Windows"",""osversion"":""10"",""a"":true}","9:23:46","1","3","Test_2","74","j","1","736.8999999910593","1536 x 864","1536 x 864","true","1","10","","","","",""
"null","<p style=""font-size: 80px;"">+ 10 points</p>","null","html-keyboard-response","36","851842","0.0-11.0-2.35","5778eeb20e49300001ba9ec0","gs3kzr","RS","57","male","{""name"":""Chrome"",""chrome"":true,""version"":""106.0"",""blink"":true,""windows"":true,""osname"":""Windows"",""osversion"":""10"",""a"":true}","9:23:46","1","3","Test_2","74","j","1","1691.5999999940395","1536 x 864","1536 x 864","true","1","10","","","","",""
"null","<p style=""font-size: 80px;"">+ 10 points</p>","null","html-keyboard-response","37","854634","0.0-11.0-2.36","5778eeb20e49300001ba9ec0","gs3kzr","RS","57","male","{""name"":""Chrome"",""chrome"":true,""version"":""106.0"",""blink"":true,""windows"":true,""osname"":""Windows"",""osversion"":""10"",""a"":true}","9:23:46","1","3","Test_2","74","j","1","780.2000000029802","1536 x 864","1536 x 864","true","1","10","","","","",""
"null","<p style=""font-size: 80px;"">+ 10 points</p>","null","html-keyboard-response","38","857625","0.0-11.0-2.37","5778eeb20e49300001ba9ec0","gs3kzr","RS","57","male","{""name"":""Chrome"",""chrome"":true,""version"":""106.0"",""blink"":true,""windows"":true,""osname"":""Windows"",""osversion"":""10"",""a"":true}","9:23:46","1","3","Test_1","70","f","1","974","1536 x 864","1536 x 864","true","1","10","","","","",""
"null","<p style=""font-size: 80px;"">+ 10 points</p>","null","html-keyboard-response","39","860456","0.0-11.0-2.38","5778eeb20e49300001ba9ec0","gs3kzr","RS","57","male","{""name"":""Chrome"",""chrome"":true,""version"":""106.0"",""blink"":true,""windows"":true,""osname"":""Windows"",""osversion"":""10"",""a"":true}","9:23:46","1","3","Test_1","70","f","1","793.4000000059605","1536 x 864","1536 x 864","true","1","10","","","","",""
"null","<p style=""font-size: 80px;"">+ 10 points</p>","null","html-keyboard-response","40","864099","0.0-11.0-2.39","5778eeb20e49300001ba9ec0","gs3kzr","RS","57","male","{""name"":""Chrome"",""chrome"":true,""version"":""106.0"",""blink"":true,""windows"":true,""osname"":""Windows"",""osversion"":""10"",""a"":true}","9:23:46","1","3","Test_4","74","j","1","1623.2000000029802","1536 x 864","1536 x 864","true","1","10","","","","",""
"null","<p style=""font-size: 80px;"">+ 10 points</p>","null","html-keyboard-response","41","867696","0.0-11.0-2.40","5778eeb20e49300001ba9ec0","gs3kzr","RS","57","male","{""name"":""Chrome"",""chrome"":true,""version"":""106.0"",""blink"":true,""windows"":true,""osname"":""Windows"",""osversion"":""10"",""a"":true}","9:23:46","1","3","Test_1","70","f","1","1562.1000000089407","1536 x 864","1536 x 864","true","1","10","","","","",""
"null","<p style=""font-size: 80px;"">+ 10 points</p>","null","html-keyboard-response","42","871128","0.0-11.0-2.41","5778eeb20e49300001ba9ec0","gs3kzr","RS","57","male","{""name"":""Chrome"",""chrome"":true,""version"":""106.0"",""blink"":true,""windows"":true,""osname"":""Windows"",""osversion"":""10"",""a"":true}","9:23:46","1","3","Test_3","70","f","1","1407.3999999910593","1536 x 864","1536 x 864","true","1","10","","","","",""
"null","<p style=""font-size: 80px;"">+ 0 points</p>","null","html-keyboard-response","43","874707","0.0-11.0-2.42","5778eeb20e49300001ba9ec0","gs3kzr","RS","57","male","{""name"":""Chrome"",""chrome"":true,""version"":""106.0"",""blink"":true,""windows"":true,""osname"":""Windows"",""osversion"":""10"",""a"":true}","9:23:46","1","4","Test_1","70","j","0","1556.2000000029802","1536 x 864","1536 x 864","true","1","0","","","","",""
"null","<p style=""font-size: 80px;"">+ 10 points</p>","null","html-keyboard-response","44","878208","0.0-11.0-2.43","5778eeb20e49300001ba9ec0","gs3kzr","RS","57","male","{""name"":""Chrome"",""chrome"":true,""version"":""106.0"",""blink"":true,""windows"":true,""osname"":""Windows"",""osversion"":""10"",""a"":true}","9:23:46","1","4","Test_4","70","f","1","1478.2999999970198","1536 x 864","1536 x 864","true","1","10","","","","",""
"null","<p style=""font-size: 80px;"">+ 10 points</p>","null","html-keyboard-response","45","881149","0.0-11.0-2.44","5778eeb20e49300001ba9ec0","gs3kzr","RS","57","male","{""name"":""Chrome"",""chrome"":true,""version"":""106.0"",""blink"":true,""windows"":true,""osname"":""Windows"",""osversion"":""10"",""a"":true}","9:23:46","1","4","Test_3","74","j","1","915.2999999970198","1536 x 864","1536 x 864","true","1","10","","","","",""
"null","<p style=""font-size: 80px;"">+ 10 points</p>","null","html-keyboard-response","46","884049","0.0-11.0-2.45","5778eeb20e49300001ba9ec0","gs3kzr","RS","57","male","{""name"":""Chrome"",""chrome"":true,""version"":""106.0"",""blink"":true,""windows"":true,""osname"":""Windows"",""osversion"":""10"",""a"":true}","9:23:46","1","4","Test_1","74","j","1","871.2000000029802","1536 x 864","1536 x 864","true","1","10","","","","",""
"null","<p style=""font-size: 80px;"">+ 10 points</p>","null","html-keyboard-response","47","887095","0.0-11.0-2.46","5778eeb20e49300001ba9ec0","gs3kzr","RS","57","male","{""name"":""Chrome"",""chrome"":true,""version"":""106.0"",""blink"":true,""windows"":true,""osname"":""Windows"",""osversion"":""10"",""a"":true}","9:23:46","1","4","Test_2","70","f","1","1013.2000000029802","1536 x 864","1536 x 864","true","1","10","","","","",""
"null","<p style=""font-size: 80px;"">+ 10 points</p>","null","html-keyboard-response","48","890124","0.0-11.0-2.47","5778eeb20e49300001ba9ec0","gs3kzr","RS","57","male","{""name"":""Chrome"",""chrome"":true,""version"":""106.0"",""blink"":true,""windows"":true,""osname"":""Windows"",""osversion"":""10"",""a"":true}","9:23:46","1","4","Test_3","74","j","1","1002","1536 x 864","1536 x 864","true","1","10","","","","",""
"null","<p style=""font-size: 80px;"">+ 10 points</p>","null","html-keyboard-response","49","892925","0.0-11.0-2.48","5778eeb20e49300001ba9ec0","gs3kzr","RS","57","male","{""name"":""Chrome"",""chrome"":true,""version"":""106.0"",""blink"":true,""windows"":true,""osname"":""Windows"",""osversion"":""10"",""a"":true}","9:23:46","1","4","Test_1","74","j","1","771.2999999970198","1536 x 864","1536 x 864","true","1","10","","","","",""
"null","<p style=""font-size: 80px;"">+ 10 points</p>","null","html-keyboard-response","50","896185","0.0-11.0-2.49","5778eeb20e49300001ba9ec0","gs3kzr","RS","57","male","{""name"":""Chrome"",""chrome"":true,""version"":""106.0"",""blink"":true,""windows"":true,""osname"":""Windows"",""osversion"":""10"",""a"":true}","9:23:46","1","4","Test_4","70","f","1","1237.7000000029802","1536 x 864","1536 x 864","true","1","10","","","","",""
"null","<p style=""font-size: 80px;"">+ 10 points</p>","null","html-keyboard-response","51","899118","0.0-11.0-2.50","5778eeb20e49300001ba9ec0","gs3kzr","RS","57","male","{""name"":""Chrome"",""chrome"":true,""version"":""106.0"",""blink"":true,""windows"":true,""osname"":""Windows"",""osversion"":""10"",""a"":true}","9:23:46","1","4","Test_4","70","f","1","906.0999999940395","1536 x 864","1536 x 864","true","1","10","","","","",""
"null","<p style=""font-size: 80px;"">+ 10 points</p>","null","html-keyboard-response","52","902464","0.0-11.0-2.51","5778eeb20e49300001ba9ec0","gs3kzr","RS","57","male","{""name"":""Chrome"",""chrome"":true,""version"":""106.0"",""blink"":true,""windows"":true,""osname"":""Windows"",""osversion"":""10"",""a"":true}","9:23:46","1","4","Test_1","74","j","1","1319.0999999940395","1536 x 864","1536 x 864","true","1","10","","","","",""
"null","<p style=""font-size: 80px;"">+ 10 points</p>","null","html-keyboard-response","53","905503","0.0-11.0-2.52","5778eeb20e49300001ba9ec0","gs3kzr","RS","57","male","{""name"":""Chrome"",""chrome"":true,""version"":""106.0"",""blink"":true,""windows"":true,""osname"":""Windows"",""osversion"":""10"",""a"":true}","9:23:46","1","4","Test_2","70","f","1","1004.8999999910593","1536 x 864","1536 x 864","true","1","10","","","","",""
"null","<p style=""font-size: 80px;"">+ 10 points</p>","null","html-keyboard-response","54","908421","0.0-11.0-2.53","5778eeb20e49300001ba9ec0","gs3kzr","RS","57","male","{""name"":""Chrome"",""chrome"":true,""version"":""106.0"",""blink"":true,""windows"":true,""osname"":""Windows"",""osversion"":""10"",""a"":true}","9:23:46","1","4","Test_4","70","f","1","901.5999999940395","1536 x 864","1536 x 864","true","1","10","","","","",""
"null","<p style=""font-size: 80px;"">+ 10 points</p>","null","html-keyboard-response","55","911252","0.0-11.0-2.54","5778eeb20e49300001ba9ec0","gs3kzr","RS","57","male","{""name"":""Chrome"",""chrome"":true,""version"":""106.0"",""blink"":true,""windows"":true,""osname"":""Windows"",""osversion"":""10"",""a"":true}","9:23:46","1","4","Test_1","74","j","1","796.5","1536 x 864","1536 x 864","true","1","10","","","","",""
"null","<p style=""font-size: 80px;"">+ 10 points</p>","null","html-keyboard-response","56","914187","0.0-11.0-2.55","5778eeb20e49300001ba9ec0","gs3kzr","RS","57","male","{""name"":""Chrome"",""chrome"":true,""version"":""106.0"",""blink"":true,""windows"":true,""osname"":""Windows"",""osversion"":""10"",""a"":true}","9:23:46","1","4","Test_2","70","f","1","901.1000000089407","1536 x 864","1536 x 864","true","1","10","","","","",""
"null","<p style=""font-size: 80px;"">+ 10 points</p>","null","html-keyboard-response","57","916943","0.0-11.0-2.56","5778eeb20e49300001ba9ec0","gs3kzr","RS","57","male","{""name"":""Chrome"",""chrome"":true,""version"":""106.0"",""blink"":true,""windows"":true,""osname"":""Windows"",""osversion"":""10"",""a"":true}","9:23:46","1","4","Test_2","70","f","1","722.7000000029802","1536 x 864","1536 x 864","true","1","10","","","","",""
"null","<p style=""font-size: 80px;"">+ 10 points</p>","null","html-keyboard-response","58","919799","0.0-11.0-2.57","5778eeb20e49300001ba9ec0","gs3kzr","RS","57","male","{""name"":""Chrome"",""chrome"":true,""version"":""106.0"",""blink"":true,""windows"":true,""osname"":""Windows"",""osversion"":""10"",""a"":true}","9:23:46","1","4","Test_4","70","f","1","837.1000000089407","1536 x 864","1536 x 864","true","1","10","","","","",""
"null","<p style=""font-size: 80px;"">+ 10 points</p>","null","html-keyboard-response","59","922762","0.0-11.0-2.58","5778eeb20e49300001ba9ec0","gs3kzr","RS","57","male","{""name"":""Chrome"",""chrome"":true,""version"":""106.0"",""blink"":true,""windows"":true,""osname"":""Windows"",""osversion"":""10"",""a"":true}","9:23:46","1","4","Test_3","74","j","1","928.7999999970198","1536 x 864","1536 x 864","true","1","10","","","","",""
"null","<p style=""font-size: 80px;"">+ 10 points</p>","null","html-keyboard-response","60","925454","0.0-11.0-2.59","5778eeb20e49300001ba9ec0","gs3kzr","RS","57","male","{""name"":""Chrome"",""chrome"":true,""version"":""106.0"",""blink"":true,""windows"":true,""osname"":""Windows"",""osversion"":""10"",""a"":true}","9:23:46","1","4","Test_3","74","j","1","672.5","1536 x 864","1536 x 864","true","1","10","","","","",""
"null","<p style=""font-size: 80px;"">+ 10 points</p>","null","html-keyboard-response","61","928160","0.0-11.0-2.60","5778eeb20e49300001ba9ec0","gs3kzr","RS","57","male","{""name"":""Chrome"",""chrome"":true,""version"":""106.0"",""blink"":true,""windows"":true,""osname"":""Windows"",""osversion"":""10"",""a"":true}","9:23:46","1","4","Test_3","74","j","1","688.5999999940395","1536 x 864","1536 x 864","true","1","10","","","","",""
"null","<p style=""font-size: 80px;"">+ 0 points</p>","null","html-keyboard-response","62","931120","0.0-11.0-2.61","5778eeb20e49300001ba9ec0","gs3kzr","RS","57","male","{""name"":""Chrome"",""chrome"":true,""version"":""106.0"",""blink"":true,""windows"":true,""osname"":""Windows"",""osversion"":""10"",""a"":true}","9:23:46","1","3","Test_1","74","f","0","938.3999999910593","1536 x 864","1536 x 864","true","1","0","","","","",""
"null","<p style=""font-size: 80px;"">+ 10 points</p>","null","html-keyboard-response","63","933917","0.0-11.0-2.62","5778eeb20e49300001ba9ec0","gs3kzr","RS","57","male","{""name"":""Chrome"",""chrome"":true,""version"":""106.0"",""blink"":true,""windows"":true,""osname"":""Windows"",""osversion"":""10"",""a"":true}","9:23:46","1","3","Test_4","74","j","1","770.2000000029802","1536 x 864","1536 x 864","true","1","10","","","","",""
"null","<p style=""font-size: 80px;"">+ 10 points</p>","null","html-keyboard-response","64","936565","0.0-11.0-2.63","5778eeb20e49300001ba9ec0","gs3kzr","RS","57","male","{""name"":""Chrome"",""chrome"":true,""version"":""106.0"",""blink"":true,""windows"":true,""osname"":""Windows"",""osversion"":""10"",""a"":true}","9:23:46","1","3","Test_3","70","f","1","625.2999999970198","1536 x 864","1536 x 864","true","1","10","","","","",""
"null","<p style=""font-size: 80px;"">+ 10 points</p>","null","html-keyboard-response","65","939625","0.0-11.0-2.64","5778eeb20e49300001ba9ec0","gs3kzr","RS","57","male","{""name"":""Chrome"",""chrome"":true,""version"":""106.0"",""blink"":true,""windows"":true,""osname"":""Windows"",""osversion"":""10"",""a"":true}","9:23:46","1","3","Test_1","70","f","1","1025.8999999910593","1536 x 864","1536 x 864","true","1","10","","","","",""
"null","<p style=""font-size: 80px;"">+ 10 points</p>","null","html-keyboard-response","66","942522","0.0-11.0-2.65","5778eeb20e49300001ba9ec0","gs3kzr","RS","57","male","{""name"":""Chrome"",""chrome"":true,""version"":""106.0"",""blink"":true,""windows"":true,""osname"":""Windows"",""osversion"":""10"",""a"":true}","9:23:46","1","3","Test_3","70","f","1","882.9000000059605","1536 x 864","1536 x 864","true","1","10","","","","",""
"null","<p style=""font-size: 80px;"">+ 10 points</p>","null","html-keyboard-response","67","945423","0.0-11.0-2.66","5778eeb20e49300001ba9ec0","gs3kzr","RS","57","male","{""name"":""Chrome"",""chrome"":true,""version"":""106.0"",""blink"":true,""windows"":true,""osname"":""Windows"",""osversion"":""10"",""a"":true}","9:23:46","1","3","Test_2","74","j","1","865.8000000119209","1536 x 864","1536 x 864","true","1","10","","","","",""
"null","<p style=""font-size: 80px;"">+ 10 points</p>","null","html-keyboard-response","68","948320","0.0-11.0-2.67","5778eeb20e49300001ba9ec0","gs3kzr","RS","57","male","{""name"":""Chrome"",""chrome"":true,""version"":""106.0"",""blink"":true,""windows"":true,""osname"":""Windows"",""osversion"":""10"",""a"":true}","9:23:46","1","3","Test_3","70","f","1","872.7999999970198","1536 x 864","1536 x 864","true","1","10","","","","",""
"null","<p style=""font-size: 80px;"">+ 10 points</p>","null","html-keyboard-response","69","951740","0.0-11.0-2.68","5778eeb20e49300001ba9ec0","gs3kzr","RS","57","male","{""name"":""Chrome"",""chrome"":true,""version"":""106.0"",""blink"":true,""windows"":true,""osname"":""Windows"",""osversion"":""10"",""a"":true}","9:23:46","1","3","Test_1","70","f","1","1402","1536 x 864","1536 x 864","true","1","10","","","","",""
"null","<p style=""font-size: 80px;"">+ 10 points</p>","null","html-keyboard-response","70","954583","0.0-11.0-2.69","5778eeb20e49300001ba9ec0","gs3kzr","RS","57","male","{""name"":""Chrome"",""chrome"":true,""version"":""106.0"",""blink"":true,""windows"":true,""osname"":""Windows"",""osversion"":""10"",""a"":true}","9:23:46","1","3","Test_1","70","f","1","816.2000000029802","1536 x 864","1536 x 864","true","1","10","","","","",""
"null","<p style=""font-size: 80px;"">+ 10 points</p>","null","html-keyboard-response","71","957312","0.0-11.0-2.70","5778eeb20e49300001ba9ec0","gs3kzr","RS","57","male","{""name"":""Chrome"",""chrome"":true,""version"":""106.0"",""blink"":true,""windows"":true,""osname"":""Windows"",""osversion"":""10"",""a"":true}","9:23:46","1","3","Test_2","74","j","1","696.5999999940395","1536 x 864","1536 x 864","true","1","10","","","","",""
"null","<p style=""font-size: 80px;"">+ 0 points</p>","null","html-keyboard-response","72","960159","0.0-11.0-2.71","5778eeb20e49300001ba9ec0","gs3kzr","RS","57","male","{""name"":""Chrome"",""chrome"":true,""version"":""106.0"",""blink"":true,""windows"":true,""osname"":""Windows"",""osversion"":""10"",""a"":true}","9:23:46","1","3","Test_4","70","j","0","836.6000000089407","1536 x 864","1536 x 864","true","1","0","","","","",""
"null","<p style=""font-size: 80px;"">+ 10 points</p>","null","html-keyboard-response","73","963807","0.0-11.0-2.72","5778eeb20e49300001ba9ec0","gs3kzr","RS","57","male","{""name"":""Chrome"",""chrome"":true,""version"":""106.0"",""blink"":true,""windows"":true,""osname"":""Windows"",""osversion"":""10"",""a"":true}","9:23:46","1","3","Test_2","74","j","1","1620.7000000029802","1536 x 864","1536 x 864","true","1","10","","","","",""
"null","<p style=""font-size: 80px;"">+ 0 points</p>","null","html-keyboard-response","74","966507","0.0-11.0-2.73","5778eeb20e49300001ba9ec0","gs3kzr","RS","57","male","{""name"":""Chrome"",""chrome"":true,""version"":""106.0"",""blink"":true,""windows"":true,""osname"":""Windows"",""osversion"":""10"",""a"":true}","9:23:46","1","3","Test_4","70","j","0","665.2999999970198","1536 x 864","1536 x 864","true","1","0","","","","",""
"null","<p style=""font-size: 80px;"">+ 10 points</p>","null","html-keyboard-response","75","969243","0.0-11.0-2.74","5778eeb20e49300001ba9ec0","gs3kzr","RS","57","male","{""name"":""Chrome"",""chrome"":true,""version"":""106.0"",""blink"":true,""windows"":true,""osname"":""Windows"",""osversion"":""10"",""a"":true}","9:23:46","1","3","Test_4","74","j","1","710.8000000119209","1536 x 864","1536 x 864","true","1","10","","","","",""
"null","<p style=""font-size: 80px;"">+ 10 points</p>","null","html-keyboard-response","76","971892","0.0-11.0-2.75","5778eeb20e49300001ba9ec0","gs3kzr","RS","57","male","{""name"":""Chrome"",""chrome"":true,""version"":""106.0"",""blink"":true,""windows"":true,""osname"":""Windows"",""osversion"":""10"",""a"":true}","9:23:46","1","3","Test_3","70","f","1","638","1536 x 864","1536 x 864","true","1","10","","","","",""
"null","<p style=""font-size: 80px;"">+ 10 points</p>","null","html-keyboard-response","77","975481","0.0-11.0-2.76","5778eeb20e49300001ba9ec0","gs3kzr","RS","57","male","{""name"":""Chrome"",""chrome"":true,""version"":""106.0"",""blink"":true,""windows"":true,""osname"":""Windows"",""osversion"":""10"",""a"":true}","9:23:46","1","3","Test_2","74","j","1","1565.9000000059605","1536 x 864","1536 x 864","true","1","10","","","","",""
"null","<p style=""font-size: 80px;"">+ 0 points</p>","null","html-keyboard-response","78","978841","0.0-11.0-2.77","5778eeb20e49300001ba9ec0","gs3kzr","RS","57","male","{""name"":""Chrome"",""chrome"":true,""version"":""106.0"",""blink"":true,""windows"":true,""osname"":""Windows"",""osversion"":""10"",""a"":true}","9:23:46","1","4","Test_1","70","j","0","1340.2999999970198","1536 x 864","1536 x 864","true","1","0","","","","",""
"null","<p style=""font-size: 80px;"">+ 0 points</p>","null","html-keyboard-response","79","982279","0.0-11.0-2.78","5778eeb20e49300001ba9ec0","gs3kzr","RS","57","male","{""name"":""Chrome"",""chrome"":true,""version"":""106.0"",""blink"":true,""windows"":true,""osname"":""Windows"",""osversion"":""10"",""a"":true}","9:23:46","1","4","Test_4","74","f","0","1402.1000000089407","1536 x 864","1536 x 864","true","1","0","","","","",""
"null","<p style=""font-size: 80px;"">+ 0 points</p>","null","html-keyboard-response","80","984974","0.0-11.0-2.79","5778eeb20e49300001ba9ec0","gs3kzr","RS","57","male","{""name"":""Chrome"",""chrome"":true,""version"":""106.0"",""blink"":true,""windows"":true,""osname"":""Windows"",""osversion"":""10"",""a"":true}","9:23:46","1","4","Test_1","70","j","0","666.5999999940395","1536 x 864","1536 x 864","true","1","0","","","","",""
"null","<p style=""font-size: 80px;"">+ 10 points</p>","null","html-keyboard-response","81","987901","0.0-11.0-2.80","5778eeb20e49300001ba9ec0","gs3kzr","RS","57","male","{""name"":""Chrome"",""chrome"":true,""version"":""106.0"",""blink"":true,""windows"":true,""osname"":""Windows"",""osversion"":""10"",""a"":true}","9:23:46","1","4","Test_2","70","f","1","895.2999999970198","1536 x 864","1536 x 864","true","1","10","","","","",""
"null","<p style=""font-size: 80px;"">+ 10 points</p>","null","html-keyboard-response","82","991237","0.0-11.0-2.81","5778eeb20e49300001ba9ec0","gs3kzr","RS","57","male","{""name"":""Chrome"",""chrome"":true,""version"":""106.0"",""blink"":true,""windows"":true,""osname"":""Windows"",""osversion"":""10"",""a"":true}","9:23:46","1","4","Test_4","70","f","1","1308.4000000059605","1536 x 864","1536 x 864","true","1","10","","","","",""
"null","<p style=""font-size: 80px;"">+ 10 points</p>","null","html-keyboard-response","83","994039","0.0-11.0-2.82","5778eeb20e49300001ba9ec0","gs3kzr","RS","57","male","{""name"":""Chrome"",""chrome"":true,""version"":""106.0"",""blink"":true,""windows"":true,""osname"":""Windows"",""osversion"":""10"",""a"":true}","9:23:46","1","4","Test_2","70","f","1","781.5999999940395","1536 x 864","1536 x 864","true","1","10","","","","",""
"null","<p style=""font-size: 80px;"">+ 10 points</p>","null","html-keyboard-response","84","997055","0.0-11.0-2.83","5778eeb20e49300001ba9ec0","gs3kzr","RS","57","male","{""name"":""Chrome"",""chrome"":true,""version"":""106.0"",""blink"":true,""windows"":true,""osname"":""Windows"",""osversion"":""10"",""a"":true}","9:23:46","1","4","Test_1","74","j","1","992.5","1536 x 864","1536 x 864","true","1","10","","","","",""
"null","<p style=""font-size: 80px;"">+ 10 points</p>","null","html-keyboard-response","85","999601","0.0-11.0-2.84","5778eeb20e49300001ba9ec0","gs3kzr","RS","57","male","{""name"":""Chrome"",""chrome"":true,""version"":""106.0"",""blink"":true,""windows"":true,""osname"":""Windows"",""osversion"":""10"",""a"":true}","9:23:46","1","4","Test_2","70","f","1","515","1536 x 864","1536 x 864","true","1","10","","","","",""
"null","<p style=""font-size: 80px;"">+ 10 points</p>","null","html-keyboard-response","86","1002698","0.0-11.0-2.85","5778eeb20e49300001ba9ec0","gs3kzr","RS","57","male","{""name"":""Chrome"",""chrome"":true,""version"":""106.0"",""blink"":true,""windows"":true,""osname"":""Windows"",""osversion"":""10"",""a"":true}","9:23:46","1","4","Test_1","74","j","1","1065.7000000029802","1536 x 864","1536 x 864","true","1","10","","","","",""
"null","<p style=""font-size: 80px;"">+ 10 points</p>","null","html-keyboard-response","87","1005782","0.0-11.0-2.86","5778eeb20e49300001ba9ec0","gs3kzr","RS","57","male","{""name"":""Chrome"",""chrome"":true,""version"":""106.0"",""blink"":true,""windows"":true,""osname"":""Windows"",""osversion"":""10"",""a"":true}","9:23:46","1","4","Test_3","74","j","1","1055.6000000089407","1536 x 864","1536 x 864","true","1","10","","","","",""
"null","<p style=""font-size: 80px;"">+ 10 points</p>","null","html-keyboard-response","88","1008510","0.0-11.0-2.87","5778eeb20e49300001ba9ec0","gs3kzr","RS","57","male","{""name"":""Chrome"",""chrome"":true,""version"":""106.0"",""blink"":true,""windows"":true,""osname"":""Windows"",""osversion"":""10"",""a"":true}","9:23:46","1","4","Test_4","70","f","1","705.1000000089407","1536 x 864","1536 x 864","true","1","10","","","","",""
"null","<p style=""font-size: 80px;"">+ 10 points</p>","null","html-keyboard-response","89","1011441","0.0-11.0-2.88","5778eeb20e49300001ba9ec0","gs3kzr","RS","57","male","{""name"":""Chrome"",""chrome"":true,""version"":""106.0"",""blink"":true,""windows"":true,""osname"":""Windows"",""osversion"":""10"",""a"":true}","9:23:46","1","4","Test_3","74","j","1","911.6000000089407","1536 x 864","1536 x 864","true","1","10","","","","",""
"null","<p style=""font-size: 80px;"">+ 10 points</p>","null","html-keyboard-response","90","1014636","0.0-11.0-2.89","5778eeb20e49300001ba9ec0","gs3kzr","RS","57","male","{""name"":""Chrome"",""chrome"":true,""version"":""106.0"",""blink"":true,""windows"":true,""osname"":""Windows"",""osversion"":""10"",""a"":true}","9:23:46","1","4","Test_2","70","f","1","1164.5","1536 x 864","1536 x 864","true","1","10","","","","",""
"null","<p style=""font-size: 80px;"">+ 10 points</p>","null","html-keyboard-response","91","1017903","0.0-11.0-2.90","5778eeb20e49300001ba9ec0","gs3kzr","RS","57","male","{""name"":""Chrome"",""chrome"":true,""version"":""106.0"",""blink"":true,""windows"":true,""osname"":""Windows"",""osversion"":""10"",""a"":true}","9:23:46","1","4","Test_4","70","f","1","1239","1536 x 864","1536 x 864","true","1","10","","","","",""
"null","<p style=""font-size: 80px;"">+ 10 points</p>","null","html-keyboard-response","92","1020765","0.0-11.0-2.91","5778eeb20e49300001ba9ec0","gs3kzr","RS","57","male","{""name"":""Chrome"",""chrome"":true,""version"":""106.0"",""blink"":true,""windows"":true,""osname"":""Windows"",""osversion"":""10"",""a"":true}","9:23:46","1","4","Test_3","74","j","1","828.7000000029802","1536 x 864","1536 x 864","true","1","10","","","","",""
"null","<p style=""font-size: 80px;"">+ 10 points</p>","null","html-keyboard-response","93","1023396","0.0-11.0-2.92","5778eeb20e49300001ba9ec0","gs3kzr","RS","57","male","{""name"":""Chrome"",""chrome"":true,""version"":""106.0"",""blink"":true,""windows"":true,""osname"":""Windows"",""osversion"":""10"",""a"":true}","9:23:46","1","4","Test_3","74","j","1","596.5","1536 x 864","1536 x 864","true","1","10","","","","",""
"null","<p style=""font-size: 80px;"">+ 0 points</p>","null","html-keyboard-response","94","1025961","0.0-11.0-2.93","5778eeb20e49300001ba9ec0","gs3kzr","RS","57","male","{""name"":""Chrome"",""chrome"":true,""version"":""106.0"",""blink"":true,""windows"":true,""osname"":""Windows"",""osversion"":""10"",""a"":true}","9:23:46","1","3","Test_3","74","f","0","541.9000000059605","1536 x 864","1536 x 864","true","1","0","","","","",""
"null","<p style=""font-size: 80px;"">+ 10 points</p>","null","html-keyboard-response","95","1028946","0.0-11.0-2.94","5778eeb20e49300001ba9ec0","gs3kzr","RS","57","male","{""name"":""Chrome"",""chrome"":true,""version"":""106.0"",""blink"":true,""windows"":true,""osname"":""Windows"",""osversion"":""10"",""a"":true}","9:23:46","1","3","Test_1","70","f","1","956.0999999940395","1536 x 864","1536 x 864","true","1","10","","","","",""
"null","<p style=""font-size: 80px;"">+ 10 points</p>","null","html-keyboard-response","96","1032721","0.0-11.0-2.95","5778eeb20e49300001ba9ec0","gs3kzr","RS","57","male","{""name"":""Chrome"",""chrome"":true,""version"":""106.0"",""blink"":true,""windows"":true,""osname"":""Windows"",""osversion"":""10"",""a"":true}","9:23:46","1","3","Test_2","74","j","1","1756.7000000029802","1536 x 864","1536 x 864","true","1","10","","","","",""
"null","<p style=""font-size: 80px;"">+ 10 points</p>","null","html-keyboard-response","97","1035631","0.0-11.0-2.96","5778eeb20e49300001ba9ec0","gs3kzr","RS","57","male","{""name"":""Chrome"",""chrome"":true,""version"":""106.0"",""blink"":true,""windows"":true,""osname"":""Windows"",""osversion"":""10"",""a"":true}","9:23:46","1","3","Test_2","74","j","1","886.5999999940395","1536 x 864","1536 x 864","true","1","10","","","","",""
"null","<p style=""font-size: 80px;"">+ 0 points</p>","null","html-keyboard-response","98","1038715","0.0-11.0-2.97","5778eeb20e49300001ba9ec0","gs3kzr","RS","57","male","{""name"":""Chrome"",""chrome"":true,""version"":""106.0"",""blink"":true,""windows"":true,""osname"":""Windows"",""osversion"":""10"",""a"":true}","9:23:46","1","3","Test_3","74","f","0","1051","1536 x 864","1536 x 864","true","1","0","","","","",""
"null","<p style=""font-size: 80px;"">+ 10 points</p>","null","html-keyboard-response","99","1042497","0.0-11.0-2.98","5778eeb20e49300001ba9ec0","gs3kzr","RS","57","male","{""name"":""Chrome"",""chrome"":true,""version"":""106.0"",""blink"":true,""windows"":true,""osname"":""Windows"",""osversion"":""10"",""a"":true}","9:23:46","1","3","Test_4","74","j","1","1749.7999999970198","1536 x 864","1536 x 864","true","1","10","","","","",""
"null","<p style=""font-size: 80px;"">+ 10 points</p>","null","html-keyboard-response","100","1045080","0.0-11.0-2.99","5778eeb20e49300001ba9ec0","gs3kzr","RS","57","male","{""name"":""Chrome"",""chrome"":true,""version"":""106.0"",""blink"":true,""windows"":true,""osname"":""Windows"",""osversion"":""10"",""a"":true}","9:23:46","1","3","Test_3","70","f","1","566.5","1536 x 864","1536 x 864","true","1","10","","","","",""
"null","<p style=""font-size: 80px;"">+ 10 points</p>","null","html-keyboard-response","101","1047721","0.0-11.0-2.100","5778eeb20e49300001ba9ec0","gs3kzr","RS","57","male","{""name"":""Chrome"",""chrome"":true,""version"":""106.0"",""blink"":true,""windows"":true,""osname"":""Windows"",""osversion"":""10"",""a"":true}","9:23:46","1","3","Test_3","70","f","1","624.0999999940395","1536 x 864","1536 x 864","true","1","10","","","","",""
"null","<p style=""font-size: 80px;"">+ 10 points</p>","null","html-keyboard-response","102","1050738","0.0-11.0-2.101","5778eeb20e49300001ba9ec0","gs3kzr","RS","57","male","{""name"":""Chrome"",""chrome"":true,""version"":""106.0"",""blink"":true,""windows"":true,""osname"":""Windows"",""osversion"":""10"",""a"":true}","9:23:46","1","3","Test_2","74","j","1","975.6000000089407","1536 x 864","1536 x 864","true","1","10","","","","",""
"null","<p style=""font-size: 80px;"">+ 10 points</p>","null","html-keyboard-response","103","1053635","0.0-11.0-2.102","5778eeb20e49300001ba9ec0","gs3kzr","RS","57","male","{""name"":""Chrome"",""chrome"":true,""version"":""106.0"",""blink"":true,""windows"":true,""osname"":""Windows"",""osversion"":""10"",""a"":true}","9:23:46","1","3","Test_1","70","f","1","869.3999999910593","1536 x 864","1536 x 864","true","1","10","","","","",""
"null","<p style=""font-size: 80px;"">+ 10 points</p>","null","html-keyboard-response","104","1056687","0.0-11.0-2.103","5778eeb20e49300001ba9ec0","gs3kzr","RS","57","male","{""name"":""Chrome"",""chrome"":true,""version"":""106.0"",""blink"":true,""windows"":true,""osname"":""Windows"",""osversion"":""10"",""a"":true}","9:23:46","1","3","Test_4","74","j","1","1025.2999999970198","1536 x 864","1536 x 864","true","1","10","","","","",""
"null","<p style=""font-size: 80px;"">+ 10 points</p>","null","html-keyboard-response","105","1059612","0.0-11.0-2.104","5778eeb20e49300001ba9ec0","gs3kzr","RS","57","male","{""name"":""Chrome"",""chrome"":true,""version"":""106.0"",""blink"":true,""windows"":true,""osname"":""Windows"",""osversion"":""10"",""a"":true}","9:23:46","1","3","Test_2","74","j","1","904.9000000059605","1536 x 864","1536 x 864","true","1","10","","","","",""
"null","<p style=""font-size: 80px;"">+ 10 points</p>","null","html-keyboard-response","106","1062560","0.0-11.0-2.105","5778eeb20e49300001ba9ec0","gs3kzr","RS","57","male","{""name"":""Chrome"",""chrome"":true,""version"":""106.0"",""blink"":true,""windows"":true,""osname"":""Windows"",""osversion"":""10"",""a"":true}","9:23:46","1","3","Test_1","70","f","1","928.5","1536 x 864","1536 x 864","true","1","10","","","","",""
"null","<p style=""font-size: 80px;"">+ 10 points</p>","null","html-keyboard-response","107","1066172","0.0-11.0-2.106","5778eeb20e49300001ba9ec0","gs3kzr","RS","57","male","{""name"":""Chrome"",""chrome"":true,""version"":""106.0"",""blink"":true,""windows"":true,""osname"":""Windows"",""osversion"":""10"",""a"":true}","9:23:46","1","3","Test_3","70","f","1","1580.5","1536 x 864","1536 x 864","true","1","10","","","","",""
"null","<p style=""font-size: 80px;"">+ 10 points</p>","null","html-keyboard-response","108","1069270","0.0-11.0-2.107","5778eeb20e49300001ba9ec0","gs3kzr","RS","57","male","{""name"":""Chrome"",""chrome"":true,""version"":""106.0"",""blink"":true,""windows"":true,""osname"":""Windows"",""osversion"":""10"",""a"":true}","9:23:46","1","3","Test_2","74","j","1","1078.2000000029802","1536 x 864","1536 x 864","true","1","10","","","","",""
"null","<p style=""font-size: 80px;"">+ 10 points</p>","null","html-keyboard-response","109","1072266","0.0-11.0-2.108","5778eeb20e49300001ba9ec0","gs3kzr","RS","57","male","{""name"":""Chrome"",""chrome"":true,""version"":""106.0"",""blink"":true,""windows"":true,""osname"":""Windows"",""osversion"":""10"",""a"":true}","9:23:46","1","3","Test_2","74","j","1","976.2999999970198","1536 x 864","1536 x 864","true","1","10","","","","",""
"null","<p style=""font-size: 80px;"">+ 0 points</p>","null","html-keyboard-response","110","1084057","0.0-11.0-2.109","5778eeb20e49300001ba9ec0","gs3kzr","RS","57","male","{""name"":""Chrome"",""chrome"":true,""version"":""106.0"",""blink"":true,""windows"":true,""osname"":""Windows"",""osversion"":""10"",""a"":true}","9:23:46","1","3","Test_4","70","j","0","1505.4000000059605","1536 x 864","1536 x 864","true","1","0","","","","",""
"null","<p style=""font-size: 80px;"">+ 10 points</p>","null","html-keyboard-response","111","1086723","0.0-11.0-2.110","5778eeb20e49300001ba9ec0","gs3kzr","RS","57","male","{""name"":""Chrome"",""chrome"":true,""version"":""106.0"",""blink"":true,""windows"":true,""osname"":""Windows"",""osversion"":""10"",""a"":true}","9:23:46","1","3","Test_4","74","j","1","633.4000000059605","1536 x 864","1536 x 864","true","1","10","","","","",""
"null","<p style=""font-size: 80px;"">+ 10 points</p>","null","html-keyboard-response","112","1089454","0.0-11.0-2.111","5778eeb20e49300001ba9ec0","gs3kzr","RS","57","male","{""name"":""Chrome"",""chrome"":true,""version"":""106.0"",""blink"":true,""windows"":true,""osname"":""Windows"",""osversion"":""10"",""a"":true}","9:23:46","1","3","Test_4","74","j","1","686.9000000059605","1536 x 864","1536 x 864","true","1","10","","","","",""
"null","<p style=""font-size: 80px;"">+ 10 points</p>","null","html-keyboard-response","113","1092333","0.0-11.0-2.112","5778eeb20e49300001ba9ec0","gs3kzr","RS","57","male","{""name"":""Chrome"",""chrome"":true,""version"":""106.0"",""blink"":true,""windows"":true,""osname"":""Windows"",""osversion"":""10"",""a"":true}","9:23:46","1","3","Test_3","70","f","1","858.2999999970198","1536 x 864","1536 x 864","true","1","10","","","","",""
"null","<p style=""font-size: 80px;"">+ 0 points</p>","null","html-keyboard-response","114","1095836","0.0-11.0-2.113","5778eeb20e49300001ba9ec0","gs3kzr","RS","57","male","{""name"":""Chrome"",""chrome"":true,""version"":""106.0"",""blink"":true,""windows"":true,""osname"":""Windows"",""osversion"":""10"",""a"":true}","9:23:46","1","3","Test_1","74","f","0","1472.7999999970198","1536 x 864","1536 x 864","true","1","0","","","","",""
"null","<p style=""font-size: 80px;"">+ 10 points</p>","null","html-keyboard-response","115","1098643","0.0-11.0-2.114","5778eeb20e49300001ba9ec0","gs3kzr","RS","57","male","{""name"":""Chrome"",""chrome"":true,""version"":""106.0"",""blink"":true,""windows"":true,""osname"":""Windows"",""osversion"":""10"",""a"":true}","9:23:46","1","3","Test_1","70","f","1","788.5","1536 x 864","1536 x 864","true","1","10","","","","",""
"null","<p style=""font-size: 80px;"">+ 10 points</p>","null","html-keyboard-response","116","1101757","0.0-11.0-2.115","5778eeb20e49300001ba9ec0","gs3kzr","RS","57","male","{""name"":""Chrome"",""chrome"":true,""version"":""106.0"",""blink"":true,""windows"":true,""osname"":""Windows"",""osversion"":""10"",""a"":true}","9:23:46","1","3","Test_4","74","j","1","1089.2999999970198","1536 x 864","1536 x 864","true","1","10","","","","",""
"null","<p style=""font-size: 80px;"">+ 0 points</p>","null","html-keyboard-response","117","1104602","0.0-11.0-2.116","5778eeb20e49300001ba9ec0","gs3kzr","RS","57","male","{""name"":""Chrome"",""chrome"":true,""version"":""106.0"",""blink"":true,""windows"":true,""osname"":""Windows"",""osversion"":""10"",""a"":true}","9:23:46","1","4","Test_4","74","f","0","816.5","1536 x 864","1536 x 864","true","1","0","","","","",""
"null","<p style=""font-size: 80px;"">+ 0 points</p>","null","html-keyboard-response","118","1107686","0.0-11.0-2.117","5778eeb20e49300001ba9ec0","gs3kzr","RS","57","male","{""name"":""Chrome"",""chrome"":true,""version"":""106.0"",""blink"":true,""windows"":true,""osname"":""Windows"",""osversion"":""10"",""a"":true}","9:23:46","1","4","Test_2","74","f","0","1061.0999999940395","1536 x 864","1536 x 864","true","1","0","","","","",""
"null","<p style=""font-size: 80px;"">+ 10 points</p>","null","html-keyboard-response","119","1110394","0.0-11.0-2.118","5778eeb20e49300001ba9ec0","gs3kzr","RS","57","male","{""name"":""Chrome"",""chrome"":true,""version"":""106.0"",""blink"":true,""windows"":true,""osname"":""Windows"",""osversion"":""10"",""a"":true}","9:23:46","1","4","Test_4","70","f","1","682.5999999940395","1536 x 864","1536 x 864","true","1","10","","","","",""
"null","<p style=""font-size: 80px;"">+ 10 points</p>","null","html-keyboard-response","120","1113465","0.0-11.0-2.119","5778eeb20e49300001ba9ec0","gs3kzr","RS","57","male","{""name"":""Chrome"",""chrome"":true,""version"":""106.0"",""blink"":true,""windows"":true,""osname"":""Windows"",""osversion"":""10"",""a"":true}","9:23:46","1","4","Test_1","74","j","1","1053.300000011921","1536 x 864","1536 x 864","true","1","10","","","","",""
"null","<p style=""font-size: 80px;"">+ 10 points</p>","null","html-keyboard-response","121","1116909","0.0-11.0-2.120","5778eeb20e49300001ba9ec0","gs3kzr","RS","57","male","{""name"":""Chrome"",""chrome"":true,""version"":""106.0"",""blink"":true,""windows"":true,""osname"":""Windows"",""osversion"":""10"",""a"":true}","9:23:46","1","4","Test_4","70","f","1","1418.5","1536 x 864","1536 x 864","true","1","10","","","","",""
"null","<p style=""font-size: 80px;"">+ 10 points</p>","null","html-keyboard-response","122","1119801","0.0-11.0-2.121","5778eeb20e49300001ba9ec0","gs3kzr","RS","57","male","{""name"":""Chrome"",""chrome"":true,""version"":""106.0"",""blink"":true,""windows"":true,""osname"":""Windows"",""osversion"":""10"",""a"":true}","9:23:46","1","4","Test_3","74","j","1","863.7000000029802","1536 x 864","1536 x 864","true","1","10","","","","",""
"null","<p style=""font-size: 80px;"">+ 10 points</p>","null","html-keyboard-response","123","1122834","0.0-11.0-2.122","5778eeb20e49300001ba9ec0","gs3kzr","RS","57","male","{""name"":""Chrome"",""chrome"":true,""version"":""106.0"",""blink"":true,""windows"":true,""osname"":""Windows"",""osversion"":""10"",""a"":true}","9:23:46","1","4","Test_2","70","f","1","997.5","1536 x 864","1536 x 864","true","1","10","","","","",""
"null","<p style=""font-size: 80px;"">+ 10 points</p>","null","html-keyboard-response","124","1125802","0.0-11.0-2.123","5778eeb20e49300001ba9ec0","gs3kzr","RS","57","male","{""name"":""Chrome"",""chrome"":true,""version"":""106.0"",""blink"":true,""windows"":true,""osname"":""Windows"",""osversion"":""10"",""a"":true}","9:23:46","1","4","Test_4","70","f","1","952.7000000029802","1536 x 864","1536 x 864","true","1","10","","","","",""
"null","<p style=""font-size: 80px;"">+ 10 points</p>","null","html-keyboard-response","125","1128514","0.0-11.0-2.124","5778eeb20e49300001ba9ec0","gs3kzr","RS","57","male","{""name"":""Chrome"",""chrome"":true,""version"":""106.0"",""blink"":true,""windows"":true,""osname"":""Windows"",""osversion"":""10"",""a"":true}","9:23:46","1","4","Test_4","70","f","1","688.1999999880791","1536 x 864","1536 x 864","true","1","10","","","","",""
"null","<p style=""font-size: 80px;"">+ 10 points</p>","null","html-keyboard-response","126","1131513","0.0-11.0-2.125","5778eeb20e49300001ba9ec0","gs3kzr","RS","57","male","{""name"":""Chrome"",""chrome"":true,""version"":""106.0"",""blink"":true,""windows"":true,""osname"":""Windows"",""osversion"":""10"",""a"":true}","9:23:46","1","4","Test_2","70","f","1","969.8999999910593","1536 x 864","1536 x 864","true","1","10","","","","",""
"null","<p style=""font-size: 80px;"">+ 10 points</p>","null","html-keyboard-response","127","1134657","0.0-11.0-2.126","5778eeb20e49300001ba9ec0","gs3kzr","RS","57","male","{""name"":""Chrome"",""chrome"":true,""version"":""106.0"",""blink"":true,""windows"":true,""osname"":""Windows"",""osversion"":""10"",""a"":true}","9:23:46","1","4","Test_1","74","j","1","1118.9000000059605","1536 x 864","1536 x 864","true","1","10","","","","",""
"null","<p style=""font-size: 80px;"">+ 10 points</p>","null","html-keyboard-response","128","1137575","0.0-11.0-2.127","5778eeb20e49300001ba9ec0","gs3kzr","RS","57","male","{""name"":""Chrome"",""chrome"":true,""version"":""106.0"",""blink"":true,""windows"":true,""osname"":""Windows"",""osversion"":""10"",""a"":true}","9:23:46","1","4","Test_1","74","j","1","889.4000000059605","1536 x 864","1536 x 864","true","1","10","","","","",""
"null","<p style=""font-size: 80px;"">+ 10 points</p>","null","html-keyboard-response","129","1140420","0.0-11.0-2.128","5778eeb20e49300001ba9ec0","gs3kzr","RS","57","male","{""name"":""Chrome"",""chrome"":true,""version"":""106.0"",""blink"":true,""windows"":true,""osname"":""Windows"",""osversion"":""10"",""a"":true}","9:23:46","1","4","Test_3","74","j","1","820.8999999910593","1536 x 864","1536 x 864","true","1","10","","","","",""
"null","<p style=""font-size: 80px;"">+ 10 points</p>","null","html-keyboard-response","130","1144035","0.0-11.0-2.129","5778eeb20e49300001ba9ec0","gs3kzr","RS","57","male","{""name"":""Chrome"",""chrome"":true,""version"":""106.0"",""blink"":true,""windows"":true,""osname"":""Windows"",""osversion"":""10"",""a"":true}","9:23:46","1","4","Test_3","74","j","1","1586.1000000089407","1536 x 864","1536 x 864","true","1","10","","","","",""
"null","<p style=""font-size: 80px;"">+ 10 points</p>","null","html-keyboard-response","131","1147055","0.0-11.0-2.130","5778eeb20e49300001ba9ec0","gs3kzr","RS","57","male","{""name"":""Chrome"",""chrome"":true,""version"":""106.0"",""blink"":true,""windows"":true,""osname"":""Windows"",""osversion"":""10"",""a"":true}","9:23:46","1","4","Test_2","70","f","1","986.9000000059605","1536 x 864","1536 x 864","true","1","10","","","","",""
"null","<p style=""font-size: 80px;"">+ 10 points</p>","null","html-keyboard-response","132","1150026","0.0-11.0-2.131","5778eeb20e49300001ba9ec0","gs3kzr","RS","57","male","{""name"":""Chrome"",""chrome"":true,""version"":""106.0"",""blink"":true,""windows"":true,""osname"":""Windows"",""osversion"":""10"",""a"":true}","9:23:46","1","4","Test_2","70","f","1","952.8999999910593","1536 x 864","1536 x 864","true","1","10","","","","",""
"null","<p style=""font-size: 80px;"">+ 10 points</p>","null","html-keyboard-response","133","1152759","0.0-11.0-2.132","5778eeb20e49300001ba9ec0","gs3kzr","RS","57","male","{""name"":""Chrome"",""chrome"":true,""version"":""106.0"",""blink"":true,""windows"":true,""osname"":""Windows"",""osversion"":""10"",""a"":true}","9:23:46","1","4","Test_1","74","j","1","699.5","1536 x 864","1536 x 864","true","1","10","","","","",""
"null","<p style=""font-size: 80px;"">+ 0 points</p>","null","html-keyboard-response","134","1155526","0.0-11.0-2.133","5778eeb20e49300001ba9ec0","gs3kzr","RS","57","male","{""name"":""Chrome"",""chrome"":true,""version"":""106.0"",""blink"":true,""windows"":true,""osname"":""Windows"",""osversion"":""10"",""a"":true}","9:23:46","1","3","Test_2","70","j","0","741.1000000089407","1536 x 864","1536 x 864","true","1","0","","","","",""
"null","<p style=""font-size: 80px;"">+ 10 points</p>","null","html-keyboard-response","135","1158506","0.0-11.0-2.134","5778eeb20e49300001ba9ec0","gs3kzr","RS","57","male","{""name"":""Chrome"",""chrome"":true,""version"":""106.0"",""blink"":true,""windows"":true,""osname"":""Windows"",""osversion"":""10"",""a"":true}","9:23:46","1","3","Test_2","74","j","1","947.1000000089407","1536 x 864","1536 x 864","true","1","10","","","","",""
"null","<p style=""font-size: 80px;"">+ 10 points</p>","null","html-keyboard-response","136","1164005","0.0-11.0-2.135","5778eeb20e49300001ba9ec0","gs3kzr","RS","57","male","{""name"":""Chrome"",""chrome"":true,""version"":""106.0"",""blink"":true,""windows"":true,""osname"":""Windows"",""osversion"":""10"",""a"":true}","9:23:46","1","3","Test_4","74","j","1","3465.9000000059605","1536 x 864","1536 x 864","true","1","10","","","","",""
"null","<p style=""font-size: 80px;"">+ 10 points</p>","null","html-keyboard-response","137","1166933","0.0-11.0-2.136","5778eeb20e49300001ba9ec0","gs3kzr","RS","57","male","{""name"":""Chrome"",""chrome"":true,""version"":""106.0"",""blink"":true,""windows"":true,""osname"":""Windows"",""osversion"":""10"",""a"":true}","9:23:46","1","3","Test_3","70","f","1","903.7000000029802","1536 x 864","1536 x 864","true","1","10","","","","",""
"null","<p style=""font-size: 80px;"">+ 10 points</p>","null","html-keyboard-response","138","1170297","0.0-11.0-2.137","5778eeb20e49300001ba9ec0","gs3kzr","RS","57","male","{""name"":""Chrome"",""chrome"":true,""version"":""106.0"",""blink"":true,""windows"":true,""osname"":""Windows"",""osversion"":""10"",""a"":true}","9:23:46","1","3","Test_1","70","f","1","1341.5999999940395","1536 x 864","1536 x 864","true","1","10","","","","",""
"null","<p style=""font-size: 80px;"">+ 0 points</p>","null","html-keyboard-response","139","1173211","0.0-11.0-2.138","5778eeb20e49300001ba9ec0","gs3kzr","RS","57","male","{""name"":""Chrome"",""chrome"":true,""version"":""106.0"",""blink"":true,""windows"":true,""osname"":""Windows"",""osversion"":""10"",""a"":true}","9:23:46","1","3","Test_3","74","f","0","887.7999999970198","1536 x 864","1536 x 864","true","1","0","","","","",""
"null","<p style=""font-size: 80px;"">+ 10 points</p>","null","html-keyboard-response","140","1175707","0.0-11.0-2.139","5778eeb20e49300001ba9ec0","gs3kzr","RS","57","male","{""name"":""Chrome"",""chrome"":true,""version"":""106.0"",""blink"":true,""windows"":true,""osname"":""Windows"",""osversion"":""10"",""a"":true}","9:23:46","1","3","Test_3","70","f","1","479.40000000596046","1536 x 864","1536 x 864","true","1","10","","","","",""
"null","<p style=""font-size: 80px;"">+ 10 points</p>","null","html-keyboard-response","141","1178270","0.0-11.0-2.140","5778eeb20e49300001ba9ec0","gs3kzr","RS","57","male","{""name"":""Chrome"",""chrome"":true,""version"":""106.0"",""blink"":true,""windows"":true,""osname"":""Windows"",""osversion"":""10"",""a"":true}","9:23:46","1","3","Test_3","70","f","1","536.7000000029802","1536 x 864","1536 x 864","true","1","10","","","","",""
"null","<p style=""font-size: 80px;"">+ 10 points</p>","null","html-keyboard-response","142","1181183","0.0-11.0-2.141","5778eeb20e49300001ba9ec0","gs3kzr","RS","57","male","{""name"":""Chrome"",""chrome"":true,""version"":""106.0"",""blink"":true,""windows"":true,""osname"":""Windows"",""osversion"":""10"",""a"":true}","9:23:46","1","3","Test_2","74","j","1","892.0999999940395","1536 x 864","1536 x 864","true","1","10","","","","",""
"null","<p style=""font-size: 80px;"">+ 10 points</p>","null","html-keyboard-response","143","1183784","0.0-11.0-2.142","5778eeb20e49300001ba9ec0","gs3kzr","RS","57","male","{""name"":""Chrome"",""chrome"":true,""version"":""106.0"",""blink"":true,""windows"":true,""osname"":""Windows"",""osversion"":""10"",""a"":true}","9:23:46","1","3","Test_2","74","j","1","570.2000000029802","1536 x 864","1536 x 864","true","1","10","","","","",""
"null","<p style=""font-size: 80px;"">+ 10 points</p>","null","html-keyboard-response","144","1186811","0.0-11.0-2.143","5778eeb20e49300001ba9ec0","gs3kzr","RS","57","male","{""name"":""Chrome"",""chrome"":true,""version"":""106.0"",""blink"":true,""windows"":true,""osname"":""Windows"",""osversion"":""10"",""a"":true}","9:23:46","1","3","Test_3","70","f","1","995.2000000029802","1536 x 864","1536 x 864","true","1","10","","","","",""
"null","<p style=""font-size: 80px;"">+ 10 points</p>","null","html-keyboard-response","145","1189540","0.0-11.0-2.144","5778eeb20e49300001ba9ec0","gs3kzr","RS","57","male","{""name"":""Chrome"",""chrome"":true,""version"":""106.0"",""blink"":true,""windows"":true,""osname"":""Windows"",""osversion"":""10"",""a"":true}","9:23:46","1","3","Test_4","74","j","1","704.5","1536 x 864","1536 x 864","true","1","10","","","","",""
"null","<p style=""font-size: 80px;"">+ 10 points</p>","null","html-keyboard-response","146","1192507","0.0-11.0-2.145","5778eeb20e49300001ba9ec0","gs3kzr","RS","57","male","{""name"":""Chrome"",""chrome"":true,""version"":""106.0"",""blink"":true,""windows"":true,""osname"":""Windows"",""osversion"":""10"",""a"":true}","9:23:46","1","3","Test_4","74","j","1","935.5","1536 x 864","1536 x 864","true","1","10","","","","",""
