"rt","stimulus","key_press","trial_type","trial_index","time_elapsed","internal_node_id","Prolific_ID","random_ID","initials","age","gender","pc_info","start_time","Phase","Rule","Stimulus","Response","CorrResp","Accuracy","ResponseTime","screen_resolution","window_resolution","focus","relevant","Points","responses","question_order","rev_check","butterfly_check","passed_practice"
"null","<p style=""font-size: 80px;"">+ 10 points</p>","null","html-keyboard-response","1","121060","0.0-7.0-2.0","5b20d17f5e45c000012ac154","nw7b0p","MB","37","F","{""name"":""Chrome"",""chrome"":true,""version"":""106.0"",""blink"":true,""windows"":true,""osname"":""Windows"",""osversion"":""10"",""a"":true}","9:16:3","0","1","Practice_1","70","f","1","1244.2000000476837","1920 x 1080","1920 x 1080","true","1","10","","","","",""
"null","<p style=""font-size: 80px;"">+ 10 points</p>","null","html-keyboard-response","2","124253","0.0-7.0-2.1","5b20d17f5e45c000012ac154","nw7b0p","MB","37","F","{""name"":""Chrome"",""chrome"":true,""version"":""106.0"",""blink"":true,""windows"":true,""osname"":""Windows"",""osversion"":""10"",""a"":true}","9:16:3","0","1","Practice_2","74","j","1","1167.3999998569489","1920 x 1080","1920 x 1080","true","1","10","","","","",""
"null","<p style=""font-size: 80px;"">+ 10 points</p>","null","html-keyboard-response","3","128038","0.0-7.0-2.2","5b20d17f5e45c000012ac154","nw7b0p","MB","37","F","{""name"":""Chrome"",""chrome"":true,""version"":""106.0"",""blink"":true,""windows"":true,""osname"":""Windows"",""osversion"":""10"",""a"":true}","9:16:3","0","1","Practice_3","70","f","1","1765.2000000476837","1920 x 1080","1920 x 1080","true","1","10","","","","",""
"null","<p style=""font-size: 80px;"">+ 10 points</p>","null","html-keyboard-response","4","130843","0.0-7.0-2.3","5b20d17f5e45c000012ac154","nw7b0p","MB","37","F","{""name"":""Chrome"",""chrome"":true,""version"":""106.0"",""blink"":true,""windows"":true,""osname"":""Windows"",""osversion"":""10"",""a"":true}","9:16:3","0","1","Practice_2","74","j","1","782.7000000476837","1920 x 1080","1920 x 1080","true","1","10","","","","",""
"null","<p style=""font-size: 80px;"">+ 10 points</p>","null","html-keyboard-response","5","133512","0.0-7.0-2.4","5b20d17f5e45c000012ac154","nw7b0p","MB","37","F","{""name"":""Chrome"",""chrome"":true,""version"":""106.0"",""blink"":true,""windows"":true,""osname"":""Windows"",""osversion"":""10"",""a"":true}","9:16:3","0","1","Practice_1","70","f","1","648.5","1920 x 1080","1920 x 1080","true","1","10","","","","",""
"null","<p style=""font-size: 80px;"">+ 10 points</p>","null","html-keyboard-response","6","136489","0.0-7.0-2.5","5b20d17f5e45c000012ac154","nw7b0p","MB","37","F","{""name"":""Chrome"",""chrome"":true,""version"":""106.0"",""blink"":true,""windows"":true,""osname"":""Windows"",""osversion"":""10"",""a"":true}","9:16:3","0","1","Practice_3","70","f","1","960.3000001907349","1920 x 1080","1920 x 1080","true","1","10","","","","",""
"null","<p style=""font-size: 80px;"">+ 10 points</p>","null","html-keyboard-response","7","139187","0.0-7.0-2.6","5b20d17f5e45c000012ac154","nw7b0p","MB","37","F","{""name"":""Chrome"",""chrome"":true,""version"":""106.0"",""blink"":true,""windows"":true,""osname"":""Windows"",""osversion"":""10"",""a"":true}","9:16:3","0","1","Practice_2","74","j","1","677","1920 x 1080","1920 x 1080","true","1","10","","","","",""
"null","<p style=""font-size: 80px;"">+ 10 points</p>","null","html-keyboard-response","8","142556","0.0-7.0-2.7","5b20d17f5e45c000012ac154","nw7b0p","MB","37","F","{""name"":""Chrome"",""chrome"":true,""version"":""106.0"",""blink"":true,""windows"":true,""osname"":""Windows"",""osversion"":""10"",""a"":true}","9:16:3","0","1","Practice_4","74","j","1","1356.5","1920 x 1080","1920 x 1080","true","1","10","","","","",""
"null","<p style=""font-size: 80px;"">+ 10 points</p>","null","html-keyboard-response","9","145105","0.0-7.0-2.8","5b20d17f5e45c000012ac154","nw7b0p","MB","37","F","{""name"":""Chrome"",""chrome"":true,""version"":""106.0"",""blink"":true,""windows"":true,""osname"":""Windows"",""osversion"":""10"",""a"":true}","9:16:3","0","1","Practice_3","70","f","1","528","1920 x 1080","1920 x 1080","true","1","10","","","","",""
"null","<p style=""font-size: 80px;"">+ 10 points</p>","null","html-keyboard-response","10","148164","0.0-7.0-2.9","5b20d17f5e45c000012ac154","nw7b0p","MB","37","F","{""name"":""Chrome"",""chrome"":true,""version"":""106.0"",""blink"":true,""windows"":true,""osname"":""Windows"",""osversion"":""10"",""a"":true}","9:16:3","0","1","Practice_1","70","f","1","1037.5999999046326","1920 x 1080","1920 x 1080","true","1","10","","","","",""
"null","<p style=""font-size: 80px;"">+ 10 points</p>","null","html-keyboard-response","11","151322","0.0-7.0-2.10","5b20d17f5e45c000012ac154","nw7b0p","MB","37","F","{""name"":""Chrome"",""chrome"":true,""version"":""106.0"",""blink"":true,""windows"":true,""osname"":""Windows"",""osversion"":""10"",""a"":true}","9:16:3","0","1","Practice_4","74","j","1","1137.9000000953674","1920 x 1080","1920 x 1080","true","1","10","","","","",""
"null","<p style=""font-size: 80px;"">+ 10 points</p>","null","html-keyboard-response","12","154192","0.0-7.0-2.11","5b20d17f5e45c000012ac154","nw7b0p","MB","37","F","{""name"":""Chrome"",""chrome"":true,""version"":""106.0"",""blink"":true,""windows"":true,""osname"":""Windows"",""osversion"":""10"",""a"":true}","9:16:3","0","1","Practice_1","70","f","1","862.1000001430511","1920 x 1080","1920 x 1080","true","1","10","","","","",""
"null","<p style=""font-size: 80px;"">+ 10 points</p>","null","html-keyboard-response","13","156955","0.0-7.0-2.12","5b20d17f5e45c000012ac154","nw7b0p","MB","37","F","{""name"":""Chrome"",""chrome"":true,""version"":""106.0"",""blink"":true,""windows"":true,""osname"":""Windows"",""osversion"":""10"",""a"":true}","9:16:3","0","1","Practice_2","74","j","1","739.8999998569489","1920 x 1080","1920 x 1080","true","1","10","","","","",""
"null","<p style=""font-size: 80px;"">+ 10 points</p>","null","html-keyboard-response","14","159827","0.0-7.0-2.13","5b20d17f5e45c000012ac154","nw7b0p","MB","37","F","{""name"":""Chrome"",""chrome"":true,""version"":""106.0"",""blink"":true,""windows"":true,""osname"":""Windows"",""osversion"":""10"",""a"":true}","9:16:3","0","1","Practice_4","74","j","1","850.9000000953674","1920 x 1080","1920 x 1080","true","1","10","","","","",""
"null","<p style=""font-size: 80px;"">+ 10 points</p>","null","html-keyboard-response","15","162469","0.0-7.0-2.14","5b20d17f5e45c000012ac154","nw7b0p","MB","37","F","{""name"":""Chrome"",""chrome"":true,""version"":""106.0"",""blink"":true,""windows"":true,""osname"":""Windows"",""osversion"":""10"",""a"":true}","9:16:3","0","1","Practice_3","70","f","1","629.0999999046326","1920 x 1080","1920 x 1080","true","1","10","","","","",""
"null","<p style=""font-size: 80px;"">+ 10 points</p>","null","html-keyboard-response","16","165192","0.0-7.0-2.15","5b20d17f5e45c000012ac154","nw7b0p","MB","37","F","{""name"":""Chrome"",""chrome"":true,""version"":""106.0"",""blink"":true,""windows"":true,""osname"":""Windows"",""osversion"":""10"",""a"":true}","9:16:3","0","1","Practice_3","70","f","1","702.3000001907349","1920 x 1080","1920 x 1080","true","1","10","","","","",""
"null","<p style=""font-size: 80px;"">+ 10 points</p>","null","html-keyboard-response","17","168363","0.0-7.0-2.16","5b20d17f5e45c000012ac154","nw7b0p","MB","37","F","{""name"":""Chrome"",""chrome"":true,""version"":""106.0"",""blink"":true,""windows"":true,""osname"":""Windows"",""osversion"":""10"",""a"":true}","9:16:3","0","1","Practice_1","70","f","1","1138.1999998092651","1920 x 1080","1920 x 1080","true","1","10","","","","",""
"null","<p style=""font-size: 80px;"">+ 10 points</p>","null","html-keyboard-response","18","171117","0.0-7.0-2.17","5b20d17f5e45c000012ac154","nw7b0p","MB","37","F","{""name"":""Chrome"",""chrome"":true,""version"":""106.0"",""blink"":true,""windows"":true,""osname"":""Windows"",""osversion"":""10"",""a"":true}","9:16:3","0","1","Practice_4","74","j","1","729.3999998569489","1920 x 1080","1920 x 1080","true","1","10","","","","",""
"null","<p style=""font-size: 80px;"">+ 10 points</p>","null","html-keyboard-response","19","173661","0.0-7.0-2.18","5b20d17f5e45c000012ac154","nw7b0p","MB","37","F","{""name"":""Chrome"",""chrome"":true,""version"":""106.0"",""blink"":true,""windows"":true,""osname"":""Windows"",""osversion"":""10"",""a"":true}","9:16:3","0","1","Practice_2","74","j","1","515.4000000953674","1920 x 1080","1920 x 1080","true","1","10","","","","",""
"null","<p style=""font-size: 80px;"">+ 10 points</p>","null","html-keyboard-response","20","176290","0.0-7.0-2.19","5b20d17f5e45c000012ac154","nw7b0p","MB","37","F","{""name"":""Chrome"",""chrome"":true,""version"":""106.0"",""blink"":true,""windows"":true,""osname"":""Windows"",""osversion"":""10"",""a"":true}","9:16:3","0","1","Practice_4","74","j","1","610.9000000953674","1920 x 1080","1920 x 1080","true","1","10","","","","",""
"null","<p style=""font-size: 80px;"">+ 0 points</p>","null","html-keyboard-response","21","178822","0.0-7.0-2.20","5b20d17f5e45c000012ac154","nw7b0p","MB","37","F","{""name"":""Chrome"",""chrome"":true,""version"":""106.0"",""blink"":true,""windows"":true,""osname"":""Windows"",""osversion"":""10"",""a"":true}","9:16:3","0","2","Practice_3","70","j","0","504.2000000476837","1920 x 1080","1920 x 1080","true","1","0","","","","",""
"null","<p style=""font-size: 80px;"">+ 0 points</p>","null","html-keyboard-response","22","181810","0.0-7.0-2.21","5b20d17f5e45c000012ac154","nw7b0p","MB","37","F","{""name"":""Chrome"",""chrome"":true,""version"":""106.0"",""blink"":true,""windows"":true,""osname"":""Windows"",""osversion"":""10"",""a"":true}","9:16:3","0","2","Practice_1","70","j","0","965","1920 x 1080","1920 x 1080","true","1","0","","","","",""
"null","<p style=""font-size: 80px;"">+ 10 points</p>","null","html-keyboard-response","23","184699","0.0-7.0-2.22","5b20d17f5e45c000012ac154","nw7b0p","MB","37","F","{""name"":""Chrome"",""chrome"":true,""version"":""106.0"",""blink"":true,""windows"":true,""osname"":""Windows"",""osversion"":""10"",""a"":true}","9:16:3","0","2","Practice_2","70","f","1","866.3000001907349","1920 x 1080","1920 x 1080","true","1","10","","","","",""
"null","<p style=""font-size: 80px;"">+ 10 points</p>","null","html-keyboard-response","24","187753","0.0-7.0-2.23","5b20d17f5e45c000012ac154","nw7b0p","MB","37","F","{""name"":""Chrome"",""chrome"":true,""version"":""106.0"",""blink"":true,""windows"":true,""osname"":""Windows"",""osversion"":""10"",""a"":true}","9:16:3","0","2","Practice_2","70","f","1","1032.2999999523163","1920 x 1080","1920 x 1080","true","1","10","","","","",""
"null","<p style=""font-size: 80px;"">+ 10 points</p>","null","html-keyboard-response","25","190596","0.0-7.0-2.24","5b20d17f5e45c000012ac154","nw7b0p","MB","37","F","{""name"":""Chrome"",""chrome"":true,""version"":""106.0"",""blink"":true,""windows"":true,""osname"":""Windows"",""osversion"":""10"",""a"":true}","9:16:3","0","2","Practice_2","70","f","1","830.9000000953674","1920 x 1080","1920 x 1080","true","1","10","","","","",""
"null","<p style=""font-size: 80px;"">+ 10 points</p>","null","html-keyboard-response","26","193565","0.0-7.0-2.25","5b20d17f5e45c000012ac154","nw7b0p","MB","37","F","{""name"":""Chrome"",""chrome"":true,""version"":""106.0"",""blink"":true,""windows"":true,""osname"":""Windows"",""osversion"":""10"",""a"":true}","9:16:3","0","2","Practice_4","70","f","1","944.4000000953674","1920 x 1080","1920 x 1080","true","1","10","","","","",""
"null","<p style=""font-size: 80px;"">+ 10 points</p>","null","html-keyboard-response","27","196573","0.0-7.0-2.26","5b20d17f5e45c000012ac154","nw7b0p","MB","37","F","{""name"":""Chrome"",""chrome"":true,""version"":""106.0"",""blink"":true,""windows"":true,""osname"":""Windows"",""osversion"":""10"",""a"":true}","9:16:3","0","2","Practice_3","74","j","1","981.2000000476837","1920 x 1080","1920 x 1080","true","1","10","","","","",""
"null","<p style=""font-size: 80px;"">+ 10 points</p>","null","html-keyboard-response","28","200209","0.0-7.0-2.27","5b20d17f5e45c000012ac154","nw7b0p","MB","37","F","{""name"":""Chrome"",""chrome"":true,""version"":""106.0"",""blink"":true,""windows"":true,""osname"":""Windows"",""osversion"":""10"",""a"":true}","9:16:3","0","2","Practice_1","74","j","1","1607","1920 x 1080","1920 x 1080","true","1","10","","","","",""
"null","<p style=""font-size: 80px;"">+ 10 points</p>","null","html-keyboard-response","29","203047","0.0-7.0-2.28","5b20d17f5e45c000012ac154","nw7b0p","MB","37","F","{""name"":""Chrome"",""chrome"":true,""version"":""106.0"",""blink"":true,""windows"":true,""osname"":""Windows"",""osversion"":""10"",""a"":true}","9:16:3","0","2","Practice_1","74","j","1","815.0999999046326","1920 x 1080","1920 x 1080","true","1","10","","","","",""
"null","<p style=""font-size: 80px;"">+ 10 points</p>","null","html-keyboard-response","30","206165","0.0-7.0-2.29","5b20d17f5e45c000012ac154","nw7b0p","MB","37","F","{""name"":""Chrome"",""chrome"":true,""version"":""106.0"",""blink"":true,""windows"":true,""osname"":""Windows"",""osversion"":""10"",""a"":true}","9:16:3","0","2","Practice_3","74","j","1","1102.8000001907349","1920 x 1080","1920 x 1080","true","1","10","","","","",""
"null","<p style=""font-size: 80px;"">+ 10 points</p>","null","html-keyboard-response","31","209205","0.0-7.0-2.30","5b20d17f5e45c000012ac154","nw7b0p","MB","37","F","{""name"":""Chrome"",""chrome"":true,""version"":""106.0"",""blink"":true,""windows"":true,""osname"":""Windows"",""osversion"":""10"",""a"":true}","9:16:3","0","2","Practice_4","70","f","1","1006.8999998569489","1920 x 1080","1920 x 1080","true","1","10","","","","",""
"null","<p style=""font-size: 80px;"">+ 10 points</p>","null","html-keyboard-response","32","212417","0.0-7.0-2.31","5b20d17f5e45c000012ac154","nw7b0p","MB","37","F","{""name"":""Chrome"",""chrome"":true,""version"":""106.0"",""blink"":true,""windows"":true,""osname"":""Windows"",""osversion"":""10"",""a"":true}","9:16:3","0","2","Practice_4","70","f","1","1192.2000000476837","1920 x 1080","1920 x 1080","true","1","10","","","","",""
"null","<p style=""font-size: 80px;"">+ 10 points</p>","null","html-keyboard-response","33","215243","0.0-7.0-2.32","5b20d17f5e45c000012ac154","nw7b0p","MB","37","F","{""name"":""Chrome"",""chrome"":true,""version"":""106.0"",""blink"":true,""windows"":true,""osname"":""Windows"",""osversion"":""10"",""a"":true}","9:16:3","0","2","Practice_3","74","j","1","806.2000000476837","1920 x 1080","1920 x 1080","true","1","10","","","","",""
"null","<p style=""font-size: 80px;"">+ 10 points</p>","null","html-keyboard-response","34","218651","0.0-7.0-2.33","5b20d17f5e45c000012ac154","nw7b0p","MB","37","F","{""name"":""Chrome"",""chrome"":true,""version"":""106.0"",""blink"":true,""windows"":true,""osname"":""Windows"",""osversion"":""10"",""a"":true}","9:16:3","0","2","Practice_3","74","j","1","1396.8999998569489","1920 x 1080","1920 x 1080","true","1","10","","","","",""
"null","<p style=""font-size: 80px;"">+ 10 points</p>","null","html-keyboard-response","35","221443","0.0-7.0-2.34","5b20d17f5e45c000012ac154","nw7b0p","MB","37","F","{""name"":""Chrome"",""chrome"":true,""version"":""106.0"",""blink"":true,""windows"":true,""osname"":""Windows"",""osversion"":""10"",""a"":true}","9:16:3","0","2","Practice_4","70","f","1","768.2999999523163","1920 x 1080","1920 x 1080","true","1","10","","","","",""
"null","<p style=""font-size: 80px;"">+ 10 points</p>","null","html-keyboard-response","36","224835","0.0-7.0-2.35","5b20d17f5e45c000012ac154","nw7b0p","MB","37","F","{""name"":""Chrome"",""chrome"":true,""version"":""106.0"",""blink"":true,""windows"":true,""osname"":""Windows"",""osversion"":""10"",""a"":true}","9:16:3","0","2","Practice_2","70","f","1","1360.5","1920 x 1080","1920 x 1080","true","1","10","","","","",""
"null","<p style=""font-size: 80px;"">+ 10 points</p>","null","html-keyboard-response","37","227830","0.0-7.0-2.36","5b20d17f5e45c000012ac154","nw7b0p","MB","37","F","{""name"":""Chrome"",""chrome"":true,""version"":""106.0"",""blink"":true,""windows"":true,""osname"":""Windows"",""osversion"":""10"",""a"":true}","9:16:3","0","2","Practice_2","70","f","1","980.1000001430511","1920 x 1080","1920 x 1080","true","1","10","","","","",""
"null","<p style=""font-size: 80px;"">+ 10 points</p>","null","html-keyboard-response","38","230795","0.0-7.0-2.37","5b20d17f5e45c000012ac154","nw7b0p","MB","37","F","{""name"":""Chrome"",""chrome"":true,""version"":""106.0"",""blink"":true,""windows"":true,""osname"":""Windows"",""osversion"":""10"",""a"":true}","9:16:3","0","2","Practice_1","74","j","1","947.6000001430511","1920 x 1080","1920 x 1080","true","1","10","","","","",""
"null","<p style=""font-size: 80px;"">+ 10 points</p>","null","html-keyboard-response","39","234077","0.0-7.0-2.38","5b20d17f5e45c000012ac154","nw7b0p","MB","37","F","{""name"":""Chrome"",""chrome"":true,""version"":""106.0"",""blink"":true,""windows"":true,""osname"":""Windows"",""osversion"":""10"",""a"":true}","9:16:3","0","2","Practice_4","70","f","1","1254.8999998569489","1920 x 1080","1920 x 1080","true","1","10","","","","",""
"null","<p style=""font-size: 80px;"">+ 10 points</p>","null","html-keyboard-response","40","237126","0.0-7.0-2.39","5b20d17f5e45c000012ac154","nw7b0p","MB","37","F","{""name"":""Chrome"",""chrome"":true,""version"":""106.0"",""blink"":true,""windows"":true,""osname"":""Windows"",""osversion"":""10"",""a"":true}","9:16:3","0","2","Practice_1","74","j","1","1026.5999999046326","1920 x 1080","1920 x 1080","true","1","10","","","","",""
"7790","","","survey-multi-choice","127","244925","0.0-8.0","5b20d17f5e45c000012ac154","nw7b0p","MB","37","F","{""name"":""Chrome"",""chrome"":true,""version"":""106.0"",""blink"":true,""windows"":true,""osname"":""Windows"",""osversion"":""10"",""a"":true}","9:16:3","","","","","","","","","","","1","","{""Q0"":""The red one"",""Q1"":""1""}","[0,1]","1","The red one","2"
"null","<p style=""font-size: 80px;"">+ 10 points</p>","null","html-keyboard-response","1","253969","0.0-11.0-2.0","5b20d17f5e45c000012ac154","nw7b0p","MB","37","F","{""name"":""Chrome"",""chrome"":true,""version"":""106.0"",""blink"":true,""windows"":true,""osname"":""Windows"",""osversion"":""10"",""a"":true}","9:16:3","1","3","Test_3","70","f","1","992.6999998092651","1920 x 1080","1920 x 1080","true","1","10","","","","",""
"null","<p style=""font-size: 80px;"">+ 10 points</p>","null","html-keyboard-response","2","257186","0.0-11.0-2.1","5b20d17f5e45c000012ac154","nw7b0p","MB","37","F","{""name"":""Chrome"",""chrome"":true,""version"":""106.0"",""blink"":true,""windows"":true,""osname"":""Windows"",""osversion"":""10"",""a"":true}","9:16:3","1","3","Test_2","74","j","1","1187.6000001430511","1920 x 1080","1920 x 1080","true","1","10","","","","",""
"null","<p style=""font-size: 80px;"">+ 10 points</p>","null","html-keyboard-response","3","260675","0.0-11.0-2.2","5b20d17f5e45c000012ac154","nw7b0p","MB","37","F","{""name"":""Chrome"",""chrome"":true,""version"":""106.0"",""blink"":true,""windows"":true,""osname"":""Windows"",""osversion"":""10"",""a"":true}","9:16:3","1","3","Test_1","70","f","1","1472.3000001907349","1920 x 1080","1920 x 1080","true","1","10","","","","",""
"null","<p style=""font-size: 80px;"">+ 10 points</p>","null","html-keyboard-response","4","263776","0.0-11.0-2.3","5b20d17f5e45c000012ac154","nw7b0p","MB","37","F","{""name"":""Chrome"",""chrome"":true,""version"":""106.0"",""blink"":true,""windows"":true,""osname"":""Windows"",""osversion"":""10"",""a"":true}","9:16:3","1","3","Test_1","70","f","1","1075.2999999523163","1920 x 1080","1920 x 1080","true","1","10","","","","",""
"null","<p style=""font-size: 80px;"">+ 10 points</p>","null","html-keyboard-response","5","266679","0.0-11.0-2.4","5b20d17f5e45c000012ac154","nw7b0p","MB","37","F","{""name"":""Chrome"",""chrome"":true,""version"":""106.0"",""blink"":true,""windows"":true,""osname"":""Windows"",""osversion"":""10"",""a"":true}","9:16:3","1","3","Test_3","70","f","1","874","1920 x 1080","1920 x 1080","true","1","10","","","","",""
"null","<p style=""font-size: 80px;"">+ 10 points</p>","null","html-keyboard-response","6","269700","0.0-11.0-2.5","5b20d17f5e45c000012ac154","nw7b0p","MB","37","F","{""name"":""Chrome"",""chrome"":true,""version"":""106.0"",""blink"":true,""windows"":true,""osname"":""Windows"",""osversion"":""10"",""a"":true}","9:16:3","1","3","Test_4","74","j","1","998.5","1920 x 1080","1920 x 1080","true","1","10","","","","",""
"null","<p style=""font-size: 80px;"">+ 10 points</p>","null","html-keyboard-response","7","272779","0.0-11.0-2.6","5b20d17f5e45c000012ac154","nw7b0p","MB","37","F","{""name"":""Chrome"",""chrome"":true,""version"":""106.0"",""blink"":true,""windows"":true,""osname"":""Windows"",""osversion"":""10"",""a"":true}","9:16:3","1","3","Test_2","74","j","1","1045.2999999523163","1920 x 1080","1920 x 1080","true","1","10","","","","",""
"null","<p style=""font-size: 80px;"">+ 10 points</p>","null","html-keyboard-response","8","275670","0.0-11.0-2.7","5b20d17f5e45c000012ac154","nw7b0p","MB","37","F","{""name"":""Chrome"",""chrome"":true,""version"":""106.0"",""blink"":true,""windows"":true,""osname"":""Windows"",""osversion"":""10"",""a"":true}","9:16:3","1","3","Test_2","74","j","1","868.8000001907349","1920 x 1080","1920 x 1080","true","1","10","","","","",""
"null","<p style=""font-size: 80px;"">+ 10 points</p>","null","html-keyboard-response","9","278583","0.0-11.0-2.8","5b20d17f5e45c000012ac154","nw7b0p","MB","37","F","{""name"":""Chrome"",""chrome"":true,""version"":""106.0"",""blink"":true,""windows"":true,""osname"":""Windows"",""osversion"":""10"",""a"":true}","9:16:3","1","3","Test_1","70","f","1","895.9000000953674","1920 x 1080","1920 x 1080","true","1","10","","","","",""
"null","<p style=""font-size: 80px;"">+ 10 points</p>","null","html-keyboard-response","10","281711","0.0-11.0-2.9","5b20d17f5e45c000012ac154","nw7b0p","MB","37","F","{""name"":""Chrome"",""chrome"":true,""version"":""106.0"",""blink"":true,""windows"":true,""osname"":""Windows"",""osversion"":""10"",""a"":true}","9:16:3","1","3","Test_4","74","j","1","1100.5","1920 x 1080","1920 x 1080","true","1","10","","","","",""
"null","<p style=""font-size: 80px;"">+ 10 points</p>","null","html-keyboard-response","11","284727","0.0-11.0-2.10","5b20d17f5e45c000012ac154","nw7b0p","MB","37","F","{""name"":""Chrome"",""chrome"":true,""version"":""106.0"",""blink"":true,""windows"":true,""osname"":""Windows"",""osversion"":""10"",""a"":true}","9:16:3","1","3","Test_3","70","f","1","999.8999998569489","1920 x 1080","1920 x 1080","true","1","10","","","","",""
"null","<p style=""font-size: 80px;"">+ 10 points</p>","null","html-keyboard-response","12","287466","0.0-11.0-2.11","5b20d17f5e45c000012ac154","nw7b0p","MB","37","F","{""name"":""Chrome"",""chrome"":true,""version"":""106.0"",""blink"":true,""windows"":true,""osname"":""Windows"",""osversion"":""10"",""a"":true}","9:16:3","1","3","Test_1","70","f","1","723.2000000476837","1920 x 1080","1920 x 1080","true","1","10","","","","",""
"null","<p style=""font-size: 80px;"">+ 10 points</p>","null","html-keyboard-response","13","290663","0.0-11.0-2.12","5b20d17f5e45c000012ac154","nw7b0p","MB","37","F","{""name"":""Chrome"",""chrome"":true,""version"":""106.0"",""blink"":true,""windows"":true,""osname"":""Windows"",""osversion"":""10"",""a"":true}","9:16:3","1","3","Test_4","74","j","1","1172.8999998569489","1920 x 1080","1920 x 1080","true","1","10","","","","",""
"null","<p style=""font-size: 80px;"">+ 10 points</p>","null","html-keyboard-response","14","293455","0.0-11.0-2.13","5b20d17f5e45c000012ac154","nw7b0p","MB","37","F","{""name"":""Chrome"",""chrome"":true,""version"":""106.0"",""blink"":true,""windows"":true,""osname"":""Windows"",""osversion"":""10"",""a"":true}","9:16:3","1","3","Test_3","70","f","1","777.2000000476837","1920 x 1080","1920 x 1080","true","1","10","","","","",""
"null","<p style=""font-size: 80px;"">+ 10 points</p>","null","html-keyboard-response","15","296410","0.0-11.0-2.14","5b20d17f5e45c000012ac154","nw7b0p","MB","37","F","{""name"":""Chrome"",""chrome"":true,""version"":""106.0"",""blink"":true,""windows"":true,""osname"":""Windows"",""osversion"":""10"",""a"":true}","9:16:3","1","3","Test_2","74","j","1","927.0999999046326","1920 x 1080","1920 x 1080","true","1","10","","","","",""
"null","<p style=""font-size: 80px;"">+ 0 points</p>","null","html-keyboard-response","16","299330","0.0-11.0-2.15","5b20d17f5e45c000012ac154","nw7b0p","MB","37","F","{""name"":""Chrome"",""chrome"":true,""version"":""106.0"",""blink"":true,""windows"":true,""osname"":""Windows"",""osversion"":""10"",""a"":true}","9:16:3","1","4","Test_1","70","j","0","892.1000001430511","1920 x 1080","1920 x 1080","true","1","0","","","","",""
"null","<p style=""font-size: 80px;"">+ 10 points</p>","null","html-keyboard-response","17","302355","0.0-11.0-2.16","5b20d17f5e45c000012ac154","nw7b0p","MB","37","F","{""name"":""Chrome"",""chrome"":true,""version"":""106.0"",""blink"":true,""windows"":true,""osname"":""Windows"",""osversion"":""10"",""a"":true}","9:16:3","1","4","Test_2","70","f","1","1010.1999998092651","1920 x 1080","1920 x 1080","true","1","10","","","","",""
"null","<p style=""font-size: 80px;"">+ 10 points</p>","null","html-keyboard-response","18","305182","0.0-11.0-2.17","5b20d17f5e45c000012ac154","nw7b0p","MB","37","F","{""name"":""Chrome"",""chrome"":true,""version"":""106.0"",""blink"":true,""windows"":true,""osname"":""Windows"",""osversion"":""10"",""a"":true}","9:16:3","1","4","Test_4","70","f","1","812.5999999046326","1920 x 1080","1920 x 1080","true","1","10","","","","",""
"null","<p style=""font-size: 80px;"">+ 10 points</p>","null","html-keyboard-response","19","308090","0.0-11.0-2.18","5b20d17f5e45c000012ac154","nw7b0p","MB","37","F","{""name"":""Chrome"",""chrome"":true,""version"":""106.0"",""blink"":true,""windows"":true,""osname"":""Windows"",""osversion"":""10"",""a"":true}","9:16:3","1","4","Test_1","74","j","1","878.2000000476837","1920 x 1080","1920 x 1080","true","1","10","","","","",""
"null","<p style=""font-size: 80px;"">+ 10 points</p>","null","html-keyboard-response","20","310974","0.0-11.0-2.19","5b20d17f5e45c000012ac154","nw7b0p","MB","37","F","{""name"":""Chrome"",""chrome"":true,""version"":""106.0"",""blink"":true,""windows"":true,""osname"":""Windows"",""osversion"":""10"",""a"":true}","9:16:3","1","4","Test_1","74","j","1","850.5","1920 x 1080","1920 x 1080","true","1","10","","","","",""
"null","<p style=""font-size: 80px;"">+ 10 points</p>","null","html-keyboard-response","21","313662","0.0-11.0-2.20","5b20d17f5e45c000012ac154","nw7b0p","MB","37","F","{""name"":""Chrome"",""chrome"":true,""version"":""106.0"",""blink"":true,""windows"":true,""osname"":""Windows"",""osversion"":""10"",""a"":true}","9:16:3","1","4","Test_3","74","j","1","673.7000000476837","1920 x 1080","1920 x 1080","true","1","10","","","","",""
"null","<p style=""font-size: 80px;"">+ 10 points</p>","null","html-keyboard-response","22","316440","0.0-11.0-2.21","5b20d17f5e45c000012ac154","nw7b0p","MB","37","F","{""name"":""Chrome"",""chrome"":true,""version"":""106.0"",""blink"":true,""windows"":true,""osname"":""Windows"",""osversion"":""10"",""a"":true}","9:16:3","1","4","Test_2","70","f","1","769","1920 x 1080","1920 x 1080","true","1","10","","","","",""
"null","<p style=""font-size: 80px;"">+ 10 points</p>","null","html-keyboard-response","23","319128","0.0-11.0-2.22","5b20d17f5e45c000012ac154","nw7b0p","MB","37","F","{""name"":""Chrome"",""chrome"":true,""version"":""106.0"",""blink"":true,""windows"":true,""osname"":""Windows"",""osversion"":""10"",""a"":true}","9:16:3","1","4","Test_3","74","j","1","660.5","1920 x 1080","1920 x 1080","true","1","10","","","","",""
"null","<p style=""font-size: 80px;"">+ 10 points</p>","null","html-keyboard-response","24","321859","0.0-11.0-2.23","5b20d17f5e45c000012ac154","nw7b0p","MB","37","F","{""name"":""Chrome"",""chrome"":true,""version"":""106.0"",""blink"":true,""windows"":true,""osname"":""Windows"",""osversion"":""10"",""a"":true}","9:16:3","1","4","Test_3","74","j","1","711.1000001430511","1920 x 1080","1920 x 1080","true","1","10","","","","",""
"null","<p style=""font-size: 80px;"">+ 10 points</p>","null","html-keyboard-response","25","324794","0.0-11.0-2.24","5b20d17f5e45c000012ac154","nw7b0p","MB","37","F","{""name"":""Chrome"",""chrome"":true,""version"":""106.0"",""blink"":true,""windows"":true,""osname"":""Windows"",""osversion"":""10"",""a"":true}","9:16:3","1","4","Test_2","70","f","1","925.7000000476837","1920 x 1080","1920 x 1080","true","1","10","","","","",""
"null","<p style=""font-size: 80px;"">+ 10 points</p>","null","html-keyboard-response","26","327324","0.0-11.0-2.25","5b20d17f5e45c000012ac154","nw7b0p","MB","37","F","{""name"":""Chrome"",""chrome"":true,""version"":""106.0"",""blink"":true,""windows"":true,""osname"":""Windows"",""osversion"":""10"",""a"":true}","9:16:3","1","4","Test_2","70","f","1","511.09999990463257","1920 x 1080","1920 x 1080","true","1","10","","","","",""
"null","<p style=""font-size: 80px;"">+ 10 points</p>","null","html-keyboard-response","27","329791","0.0-11.0-2.26","5b20d17f5e45c000012ac154","nw7b0p","MB","37","F","{""name"":""Chrome"",""chrome"":true,""version"":""106.0"",""blink"":true,""windows"":true,""osname"":""Windows"",""osversion"":""10"",""a"":true}","9:16:3","1","4","Test_2","70","f","1","455.2999999523163","1920 x 1080","1920 x 1080","true","1","10","","","","",""
"null","<p style=""font-size: 80px;"">+ 10 points</p>","null","html-keyboard-response","28","333090","0.0-11.0-2.27","5b20d17f5e45c000012ac154","nw7b0p","MB","37","F","{""name"":""Chrome"",""chrome"":true,""version"":""106.0"",""blink"":true,""windows"":true,""osname"":""Windows"",""osversion"":""10"",""a"":true}","9:16:3","1","4","Test_4","70","f","1","1282.0999999046326","1920 x 1080","1920 x 1080","true","1","10","","","","",""
"null","<p style=""font-size: 80px;"">+ 10 points</p>","null","html-keyboard-response","29","336030","0.0-11.0-2.28","5b20d17f5e45c000012ac154","nw7b0p","MB","37","F","{""name"":""Chrome"",""chrome"":true,""version"":""106.0"",""blink"":true,""windows"":true,""osname"":""Windows"",""osversion"":""10"",""a"":true}","9:16:3","1","4","Test_3","74","j","1","923.7999999523163","1920 x 1080","1920 x 1080","true","1","10","","","","",""
"null","<p style=""font-size: 80px;"">+ 10 points</p>","null","html-keyboard-response","30","338739","0.0-11.0-2.29","5b20d17f5e45c000012ac154","nw7b0p","MB","37","F","{""name"":""Chrome"",""chrome"":true,""version"":""106.0"",""blink"":true,""windows"":true,""osname"":""Windows"",""osversion"":""10"",""a"":true}","9:16:3","1","4","Test_2","70","f","1","677.1999998092651","1920 x 1080","1920 x 1080","true","1","10","","","","",""
"null","<p style=""font-size: 80px;"">+ 10 points</p>","null","html-keyboard-response","31","342409","0.0-11.0-2.30","5b20d17f5e45c000012ac154","nw7b0p","MB","37","F","{""name"":""Chrome"",""chrome"":true,""version"":""106.0"",""blink"":true,""windows"":true,""osname"":""Windows"",""osversion"":""10"",""a"":true}","9:16:3","1","4","Test_1","74","j","1","1647.5","1920 x 1080","1920 x 1080","true","1","10","","","","",""
"null","<p style=""font-size: 80px;"">+ 10 points</p>","null","html-keyboard-response","32","345296","0.0-11.0-2.31","5b20d17f5e45c000012ac154","nw7b0p","MB","37","F","{""name"":""Chrome"",""chrome"":true,""version"":""106.0"",""blink"":true,""windows"":true,""osname"":""Windows"",""osversion"":""10"",""a"":true}","9:16:3","1","4","Test_4","70","f","1","868.1999998092651","1920 x 1080","1920 x 1080","true","1","10","","","","",""
"null","<p style=""font-size: 80px;"">+ 10 points</p>","null","html-keyboard-response","33","348201","0.0-11.0-2.32","5b20d17f5e45c000012ac154","nw7b0p","MB","37","F","{""name"":""Chrome"",""chrome"":true,""version"":""106.0"",""blink"":true,""windows"":true,""osname"":""Windows"",""osversion"":""10"",""a"":true}","9:16:3","1","4","Test_1","74","j","1","879.2000000476837","1920 x 1080","1920 x 1080","true","1","10","","","","",""
"null","<p style=""font-size: 80px;"">+ 10 points</p>","null","html-keyboard-response","34","351294","0.0-11.0-2.33","5b20d17f5e45c000012ac154","nw7b0p","MB","37","F","{""name"":""Chrome"",""chrome"":true,""version"":""106.0"",""blink"":true,""windows"":true,""osname"":""Windows"",""osversion"":""10"",""a"":true}","9:16:3","1","4","Test_4","70","f","1","1075.7000000476837","1920 x 1080","1920 x 1080","true","1","10","","","","",""
"null","<p style=""font-size: 80px;"">+ 10 points</p>","null","html-keyboard-response","35","354833","0.0-11.0-2.34","5b20d17f5e45c000012ac154","nw7b0p","MB","37","F","{""name"":""Chrome"",""chrome"":true,""version"":""106.0"",""blink"":true,""windows"":true,""osname"":""Windows"",""osversion"":""10"",""a"":true}","9:16:3","1","4","Test_4","70","f","1","1518.3000001907349","1920 x 1080","1920 x 1080","true","1","10","","","","",""
"null","<p style=""font-size: 80px;"">+ 10 points</p>","null","html-keyboard-response","36","357685","0.0-11.0-2.35","5b20d17f5e45c000012ac154","nw7b0p","MB","37","F","{""name"":""Chrome"",""chrome"":true,""version"":""106.0"",""blink"":true,""windows"":true,""osname"":""Windows"",""osversion"":""10"",""a"":true}","9:16:3","1","4","Test_3","74","j","1","840.7000000476837","1920 x 1080","1920 x 1080","true","1","10","","","","",""
"null","<p style=""font-size: 80px;"">+ 10 points</p>","null","html-keyboard-response","37","360281","0.0-11.0-2.36","5b20d17f5e45c000012ac154","nw7b0p","MB","37","F","{""name"":""Chrome"",""chrome"":true,""version"":""106.0"",""blink"":true,""windows"":true,""osname"":""Windows"",""osversion"":""10"",""a"":true}","9:16:3","1","4","Test_4","70","f","1","585","1920 x 1080","1920 x 1080","true","1","10","","","","",""
"null","<p style=""font-size: 80px;"">+ 10 points</p>","null","html-keyboard-response","38","363067","0.0-11.0-2.37","5b20d17f5e45c000012ac154","nw7b0p","MB","37","F","{""name"":""Chrome"",""chrome"":true,""version"":""106.0"",""blink"":true,""windows"":true,""osname"":""Windows"",""osversion"":""10"",""a"":true}","9:16:3","1","4","Test_3","74","j","1","775.2000000476837","1920 x 1080","1920 x 1080","true","1","10","","","","",""
"null","<p style=""font-size: 80px;"">+ 0 points</p>","null","html-keyboard-response","39","365628","0.0-11.0-2.38","5b20d17f5e45c000012ac154","nw7b0p","MB","37","F","{""name"":""Chrome"",""chrome"":true,""version"":""106.0"",""blink"":true,""windows"":true,""osname"":""Windows"",""osversion"":""10"",""a"":true}","9:16:3","1","3","Test_4","70","j","0","549.5","1920 x 1080","1920 x 1080","true","1","0","","","","",""
"null","<p style=""font-size: 80px;"">+ 10 points</p>","null","html-keyboard-response","40","369224","0.0-11.0-2.39","5b20d17f5e45c000012ac154","nw7b0p","MB","37","F","{""name"":""Chrome"",""chrome"":true,""version"":""106.0"",""blink"":true,""windows"":true,""osname"":""Windows"",""osversion"":""10"",""a"":true}","9:16:3","1","3","Test_2","74","j","1","1590.3999998569489","1920 x 1080","1920 x 1080","true","1","10","","","","",""
"null","<p style=""font-size: 80px;"">+ 10 points</p>","null","html-keyboard-response","41","371934","0.0-11.0-2.40","5b20d17f5e45c000012ac154","nw7b0p","MB","37","F","{""name"":""Chrome"",""chrome"":true,""version"":""106.0"",""blink"":true,""windows"":true,""osname"":""Windows"",""osversion"":""10"",""a"":true}","9:16:3","1","3","Test_2","74","j","1","699.7000000476837","1920 x 1080","1920 x 1080","true","1","10","","","","",""
"null","<p style=""font-size: 80px;"">+ 10 points</p>","null","html-keyboard-response","42","374702","0.0-11.0-2.41","5b20d17f5e45c000012ac154","nw7b0p","MB","37","F","{""name"":""Chrome"",""chrome"":true,""version"":""106.0"",""blink"":true,""windows"":true,""osname"":""Windows"",""osversion"":""10"",""a"":true}","9:16:3","1","3","Test_3","70","f","1","739.5","1920 x 1080","1920 x 1080","true","1","10","","","","",""
"null","<p style=""font-size: 80px;"">+ 10 points</p>","null","html-keyboard-response","43","377311","0.0-11.0-2.42","5b20d17f5e45c000012ac154","nw7b0p","MB","37","F","{""name"":""Chrome"",""chrome"":true,""version"":""106.0"",""blink"":true,""windows"":true,""osname"":""Windows"",""osversion"":""10"",""a"":true}","9:16:3","1","3","Test_4","74","j","1","571.2000000476837","1920 x 1080","1920 x 1080","true","1","10","","","","",""
"null","<p style=""font-size: 80px;"">+ 10 points</p>","null","html-keyboard-response","44","381290","0.0-11.0-2.43","5b20d17f5e45c000012ac154","nw7b0p","MB","37","F","{""name"":""Chrome"",""chrome"":true,""version"":""106.0"",""blink"":true,""windows"":true,""osname"":""Windows"",""osversion"":""10"",""a"":true}","9:16:3","1","3","Test_1","70","f","1","1961.5999999046326","1920 x 1080","1920 x 1080","true","1","10","","","","",""
"null","<p style=""font-size: 80px;"">+ 10 points</p>","null","html-keyboard-response","45","384034","0.0-11.0-2.44","5b20d17f5e45c000012ac154","nw7b0p","MB","37","F","{""name"":""Chrome"",""chrome"":true,""version"":""106.0"",""blink"":true,""windows"":true,""osname"":""Windows"",""osversion"":""10"",""a"":true}","9:16:3","1","3","Test_3","70","f","1","715.8999998569489","1920 x 1080","1920 x 1080","true","1","10","","","","",""
"null","<p style=""font-size: 80px;"">+ 10 points</p>","null","html-keyboard-response","46","387650","0.0-11.0-2.45","5b20d17f5e45c000012ac154","nw7b0p","MB","37","F","{""name"":""Chrome"",""chrome"":true,""version"":""106.0"",""blink"":true,""windows"":true,""osname"":""Windows"",""osversion"":""10"",""a"":true}","9:16:3","1","3","Test_2","74","j","1","1596","1920 x 1080","1920 x 1080","true","1","10","","","","",""
"null","<p style=""font-size: 80px;"">+ 10 points</p>","null","html-keyboard-response","47","390229","0.0-11.0-2.46","5b20d17f5e45c000012ac154","nw7b0p","MB","37","F","{""name"":""Chrome"",""chrome"":true,""version"":""106.0"",""blink"":true,""windows"":true,""osname"":""Windows"",""osversion"":""10"",""a"":true}","9:16:3","1","3","Test_1","70","f","1","566.7999999523163","1920 x 1080","1920 x 1080","true","1","10","","","","",""
"null","<p style=""font-size: 80px;"">+ 10 points</p>","null","html-keyboard-response","48","393653","0.0-11.0-2.47","5b20d17f5e45c000012ac154","nw7b0p","MB","37","F","{""name"":""Chrome"",""chrome"":true,""version"":""106.0"",""blink"":true,""windows"":true,""osname"":""Windows"",""osversion"":""10"",""a"":true}","9:16:3","1","3","Test_4","74","j","1","1411.7999999523163","1920 x 1080","1920 x 1080","true","1","10","","","","",""
"null","<p style=""font-size: 80px;"">+ 10 points</p>","null","html-keyboard-response","49","396337","0.0-11.0-2.48","5b20d17f5e45c000012ac154","nw7b0p","MB","37","F","{""name"":""Chrome"",""chrome"":true,""version"":""106.0"",""blink"":true,""windows"":true,""osname"":""Windows"",""osversion"":""10"",""a"":true}","9:16:3","1","3","Test_4","74","j","1","665","1920 x 1080","1920 x 1080","true","1","10","","","","",""
"null","<p style=""font-size: 80px;"">+ 10 points</p>","null","html-keyboard-response","50","399399","0.0-11.0-2.49","5b20d17f5e45c000012ac154","nw7b0p","MB","37","F","{""name"":""Chrome"",""chrome"":true,""version"":""106.0"",""blink"":true,""windows"":true,""osname"":""Windows"",""osversion"":""10"",""a"":true}","9:16:3","1","3","Test_2","74","j","1","1042.5","1920 x 1080","1920 x 1080","true","1","10","","","","",""
"null","<p style=""font-size: 80px;"">+ 10 points</p>","null","html-keyboard-response","51","402033","0.0-11.0-2.50","5b20d17f5e45c000012ac154","nw7b0p","MB","37","F","{""name"":""Chrome"",""chrome"":true,""version"":""106.0"",""blink"":true,""windows"":true,""osname"":""Windows"",""osversion"":""10"",""a"":true}","9:16:3","1","3","Test_1","70","f","1","607.4000000953674","1920 x 1080","1920 x 1080","true","1","10","","","","",""
"null","<p style=""font-size: 80px;"">+ 10 points</p>","null","html-keyboard-response","52","405071","0.0-11.0-2.51","5b20d17f5e45c000012ac154","nw7b0p","MB","37","F","{""name"":""Chrome"",""chrome"":true,""version"":""106.0"",""blink"":true,""windows"":true,""osname"":""Windows"",""osversion"":""10"",""a"":true}","9:16:3","1","3","Test_3","70","f","1","1010.7999999523163","1920 x 1080","1920 x 1080","true","1","10","","","","",""
"null","<p style=""font-size: 80px;"">+ 10 points</p>","null","html-keyboard-response","53","408247","0.0-11.0-2.52","5b20d17f5e45c000012ac154","nw7b0p","MB","37","F","{""name"":""Chrome"",""chrome"":true,""version"":""106.0"",""blink"":true,""windows"":true,""osname"":""Windows"",""osversion"":""10"",""a"":true}","9:16:3","1","3","Test_1","70","f","1","1157.5","1920 x 1080","1920 x 1080","true","1","10","","","","",""
"null","<p style=""font-size: 80px;"">+ 0 points</p>","null","html-keyboard-response","54","410751","0.0-11.0-2.53","5b20d17f5e45c000012ac154","nw7b0p","MB","37","F","{""name"":""Chrome"",""chrome"":true,""version"":""106.0"",""blink"":true,""windows"":true,""osname"":""Windows"",""osversion"":""10"",""a"":true}","9:16:3","1","3","Test_3","74","f","0","483.5","1920 x 1080","1920 x 1080","true","1","0","","","","",""
"null","<p style=""font-size: 80px;"">+ 10 points</p>","null","html-keyboard-response","55","413687","0.0-11.0-2.54","5b20d17f5e45c000012ac154","nw7b0p","MB","37","F","{""name"":""Chrome"",""chrome"":true,""version"":""106.0"",""blink"":true,""windows"":true,""osname"":""Windows"",""osversion"":""10"",""a"":true}","9:16:3","1","4","Test_3","74","j","1","920.6999998092651","1920 x 1080","1920 x 1080","true","1","10","","","","",""
"null","<p style=""font-size: 80px;"">+ 10 points</p>","null","html-keyboard-response","56","416778","0.0-11.0-2.55","5b20d17f5e45c000012ac154","nw7b0p","MB","37","F","{""name"":""Chrome"",""chrome"":true,""version"":""106.0"",""blink"":true,""windows"":true,""osname"":""Windows"",""osversion"":""10"",""a"":true}","9:16:3","1","4","Test_1","74","j","1","1075.5","1920 x 1080","1920 x 1080","true","1","10","","","","",""
"null","<p style=""font-size: 80px;"">+ 10 points</p>","null","html-keyboard-response","57","420100","0.0-11.0-2.56","5b20d17f5e45c000012ac154","nw7b0p","MB","37","F","{""name"":""Chrome"",""chrome"":true,""version"":""106.0"",""blink"":true,""windows"":true,""osname"":""Windows"",""osversion"":""10"",""a"":true}","9:16:3","1","4","Test_4","70","f","1","1312.1999998092651","1920 x 1080","1920 x 1080","true","1","10","","","","",""
"null","<p style=""font-size: 80px;"">+ 10 points</p>","null","html-keyboard-response","58","422819","0.0-11.0-2.57","5b20d17f5e45c000012ac154","nw7b0p","MB","37","F","{""name"":""Chrome"",""chrome"":true,""version"":""106.0"",""blink"":true,""windows"":true,""osname"":""Windows"",""osversion"":""10"",""a"":true}","9:16:3","1","4","Test_3","74","j","1","710.3000001907349","1920 x 1080","1920 x 1080","true","1","10","","","","",""
"null","<p style=""font-size: 80px;"">+ 10 points</p>","null","html-keyboard-response","59","425926","0.0-11.0-2.58","5b20d17f5e45c000012ac154","nw7b0p","MB","37","F","{""name"":""Chrome"",""chrome"":true,""version"":""106.0"",""blink"":true,""windows"":true,""osname"":""Windows"",""osversion"":""10"",""a"":true}","9:16:3","1","4","Test_1","74","j","1","1081.9000000953674","1920 x 1080","1920 x 1080","true","1","10","","","","",""
"null","<p style=""font-size: 80px;"">+ 10 points</p>","null","html-keyboard-response","60","428815","0.0-11.0-2.59","5b20d17f5e45c000012ac154","nw7b0p","MB","37","F","{""name"":""Chrome"",""chrome"":true,""version"":""106.0"",""blink"":true,""windows"":true,""osname"":""Windows"",""osversion"":""10"",""a"":true}","9:16:3","1","4","Test_4","70","f","1","865.7999999523163","1920 x 1080","1920 x 1080","true","1","10","","","","",""
"null","<p style=""font-size: 80px;"">+ 10 points</p>","null","html-keyboard-response","61","431867","0.0-11.0-2.60","5b20d17f5e45c000012ac154","nw7b0p","MB","37","F","{""name"":""Chrome"",""chrome"":true,""version"":""106.0"",""blink"":true,""windows"":true,""osname"":""Windows"",""osversion"":""10"",""a"":true}","9:16:3","1","4","Test_2","70","f","1","1036.2000000476837","1920 x 1080","1920 x 1080","true","1","10","","","","",""
"null","<p style=""font-size: 80px;"">+ 10 points</p>","null","html-keyboard-response","62","434965","0.0-11.0-2.61","5b20d17f5e45c000012ac154","nw7b0p","MB","37","F","{""name"":""Chrome"",""chrome"":true,""version"":""106.0"",""blink"":true,""windows"":true,""osname"":""Windows"",""osversion"":""10"",""a"":true}","9:16:3","1","4","Test_2","70","f","1","1068.9000000953674","1920 x 1080","1920 x 1080","true","1","10","","","","",""
"null","<p style=""font-size: 80px;"">+ 10 points</p>","null","html-keyboard-response","63","438374","0.0-11.0-2.62","5b20d17f5e45c000012ac154","nw7b0p","MB","37","F","{""name"":""Chrome"",""chrome"":true,""version"":""106.0"",""blink"":true,""windows"":true,""osname"":""Windows"",""osversion"":""10"",""a"":true}","9:16:3","1","4","Test_4","70","f","1","1374.5999999046326","1920 x 1080","1920 x 1080","true","1","10","","","","",""
"null","<p style=""font-size: 80px;"">+ 10 points</p>","null","html-keyboard-response","64","441824","0.0-11.0-2.63","5b20d17f5e45c000012ac154","nw7b0p","MB","37","F","{""name"":""Chrome"",""chrome"":true,""version"":""106.0"",""blink"":true,""windows"":true,""osname"":""Windows"",""osversion"":""10"",""a"":true}","9:16:3","1","4","Test_1","74","j","1","1436.7000000476837","1920 x 1080","1920 x 1080","true","1","10","","","","",""
"null","<p style=""font-size: 80px;"">+ 10 points</p>","null","html-keyboard-response","65","444464","0.0-11.0-2.64","5b20d17f5e45c000012ac154","nw7b0p","MB","37","F","{""name"":""Chrome"",""chrome"":true,""version"":""106.0"",""blink"":true,""windows"":true,""osname"":""Windows"",""osversion"":""10"",""a"":true}","9:16:3","1","4","Test_3","74","j","1","634.5999999046326","1920 x 1080","1920 x 1080","true","1","10","","","","",""
"null","<p style=""font-size: 80px;"">+ 10 points</p>","null","html-keyboard-response","66","447962","0.0-11.0-2.65","5b20d17f5e45c000012ac154","nw7b0p","MB","37","F","{""name"":""Chrome"",""chrome"":true,""version"":""106.0"",""blink"":true,""windows"":true,""osname"":""Windows"",""osversion"":""10"",""a"":true}","9:16:3","1","4","Test_2","70","f","1","1476.2999999523163","1920 x 1080","1920 x 1080","true","1","10","","","","",""
"null","<p style=""font-size: 80px;"">+ 10 points</p>","null","html-keyboard-response","67","450705","0.0-11.0-2.66","5b20d17f5e45c000012ac154","nw7b0p","MB","37","F","{""name"":""Chrome"",""chrome"":true,""version"":""106.0"",""blink"":true,""windows"":true,""osname"":""Windows"",""osversion"":""10"",""a"":true}","9:16:3","1","4","Test_4","70","f","1","714.0999999046326","1920 x 1080","1920 x 1080","true","1","10","","","","",""
"null","<p style=""font-size: 80px;"">+ 10 points</p>","null","html-keyboard-response","68","453262","0.0-11.0-2.67","5b20d17f5e45c000012ac154","nw7b0p","MB","37","F","{""name"":""Chrome"",""chrome"":true,""version"":""106.0"",""blink"":true,""windows"":true,""osname"":""Windows"",""osversion"":""10"",""a"":true}","9:16:3","1","4","Test_4","70","f","1","528.7000000476837","1920 x 1080","1920 x 1080","true","1","10","","","","",""
"null","<p style=""font-size: 80px;"">+ 10 points</p>","null","html-keyboard-response","69","456392","0.0-11.0-2.68","5b20d17f5e45c000012ac154","nw7b0p","MB","37","F","{""name"":""Chrome"",""chrome"":true,""version"":""106.0"",""blink"":true,""windows"":true,""osname"":""Windows"",""osversion"":""10"",""a"":true}","9:16:3","1","4","Test_3","74","j","1","1112.8999998569489","1920 x 1080","1920 x 1080","true","1","10","","","","",""
"null","<p style=""font-size: 80px;"">+ 10 points</p>","null","html-keyboard-response","70","459115","0.0-11.0-2.69","5b20d17f5e45c000012ac154","nw7b0p","MB","37","F","{""name"":""Chrome"",""chrome"":true,""version"":""106.0"",""blink"":true,""windows"":true,""osname"":""Windows"",""osversion"":""10"",""a"":true}","9:16:3","1","4","Test_1","74","j","1","707.5999999046326","1920 x 1080","1920 x 1080","true","1","10","","","","",""
"null","<p style=""font-size: 80px;"">+ 10 points</p>","null","html-keyboard-response","71","461787","0.0-11.0-2.70","5b20d17f5e45c000012ac154","nw7b0p","MB","37","F","{""name"":""Chrome"",""chrome"":true,""version"":""106.0"",""blink"":true,""windows"":true,""osname"":""Windows"",""osversion"":""10"",""a"":true}","9:16:3","1","4","Test_2","70","f","1","653.3999998569489","1920 x 1080","1920 x 1080","true","1","10","","","","",""
"null","<p style=""font-size: 80px;"">+ 10 points</p>","null","html-keyboard-response","72","464974","0.0-11.0-2.71","5b20d17f5e45c000012ac154","nw7b0p","MB","37","F","{""name"":""Chrome"",""chrome"":true,""version"":""106.0"",""blink"":true,""windows"":true,""osname"":""Windows"",""osversion"":""10"",""a"":true}","9:16:3","1","4","Test_3","74","j","1","1176.2000000476837","1920 x 1080","1920 x 1080","true","1","10","","","","",""
"null","<p style=""font-size: 80px;"">+ 10 points</p>","null","html-keyboard-response","73","467631","0.0-11.0-2.72","5b20d17f5e45c000012ac154","nw7b0p","MB","37","F","{""name"":""Chrome"",""chrome"":true,""version"":""106.0"",""blink"":true,""windows"":true,""osname"":""Windows"",""osversion"":""10"",""a"":true}","9:16:3","1","4","Test_3","74","j","1","634.5","1920 x 1080","1920 x 1080","true","1","10","","","","",""
"null","<p style=""font-size: 80px;"">+ 10 points</p>","null","html-keyboard-response","74","470292","0.0-11.0-2.73","5b20d17f5e45c000012ac154","nw7b0p","MB","37","F","{""name"":""Chrome"",""chrome"":true,""version"":""106.0"",""blink"":true,""windows"":true,""osname"":""Windows"",""osversion"":""10"",""a"":true}","9:16:3","1","4","Test_1","74","j","1","636.5","1920 x 1080","1920 x 1080","true","1","10","","","","",""
"null","<p style=""font-size: 80px;"">+ 10 points</p>","null","html-keyboard-response","75","473141","0.0-11.0-2.74","5b20d17f5e45c000012ac154","nw7b0p","MB","37","F","{""name"":""Chrome"",""chrome"":true,""version"":""106.0"",""blink"":true,""windows"":true,""osname"":""Windows"",""osversion"":""10"",""a"":true}","9:16:3","1","4","Test_1","74","j","1","827.8999998569489","1920 x 1080","1920 x 1080","true","1","10","","","","",""
"null","<p style=""font-size: 80px;"">+ 10 points</p>","null","html-keyboard-response","76","476943","0.0-11.0-2.75","5b20d17f5e45c000012ac154","nw7b0p","MB","37","F","{""name"":""Chrome"",""chrome"":true,""version"":""106.0"",""blink"":true,""windows"":true,""osname"":""Windows"",""osversion"":""10"",""a"":true}","9:16:3","1","4","Test_4","70","f","1","1777.4000000953674","1920 x 1080","1920 x 1080","true","1","10","","","","",""
"null","<p style=""font-size: 80px;"">+ 0 points</p>","null","html-keyboard-response","77","479970","0.0-11.0-2.76","5b20d17f5e45c000012ac154","nw7b0p","MB","37","F","{""name"":""Chrome"",""chrome"":true,""version"":""106.0"",""blink"":true,""windows"":true,""osname"":""Windows"",""osversion"":""10"",""a"":true}","9:16:3","1","3","Test_4","70","j","0","1018.2000000476837","1920 x 1080","1920 x 1080","true","1","0","","","","",""
"null","<p style=""font-size: 80px;"">+ 10 points</p>","null","html-keyboard-response","78","482598","0.0-11.0-2.77","5b20d17f5e45c000012ac154","nw7b0p","MB","37","F","{""name"":""Chrome"",""chrome"":true,""version"":""106.0"",""blink"":true,""windows"":true,""osname"":""Windows"",""osversion"":""10"",""a"":true}","9:16:3","1","3","Test_3","70","f","1","605.2999999523163","1920 x 1080","1920 x 1080","true","1","10","","","","",""
"null","<p style=""font-size: 80px;"">+ 10 points</p>","null","html-keyboard-response","79","485330","0.0-11.0-2.78","5b20d17f5e45c000012ac154","nw7b0p","MB","37","F","{""name"":""Chrome"",""chrome"":true,""version"":""106.0"",""blink"":true,""windows"":true,""osname"":""Windows"",""osversion"":""10"",""a"":true}","9:16:3","1","3","Test_3","70","f","1","722.7999999523163","1920 x 1080","1920 x 1080","true","1","10","","","","",""
"null","<p style=""font-size: 80px;"">+ 10 points</p>","null","html-keyboard-response","80","488048","0.0-11.0-2.79","5b20d17f5e45c000012ac154","nw7b0p","MB","37","F","{""name"":""Chrome"",""chrome"":true,""version"":""106.0"",""blink"":true,""windows"":true,""osname"":""Windows"",""osversion"":""10"",""a"":true}","9:16:3","1","3","Test_4","74","j","1","704","1920 x 1080","1920 x 1080","true","1","10","","","","",""
"null","<p style=""font-size: 80px;"">+ 10 points</p>","null","html-keyboard-response","81","491321","0.0-11.0-2.80","5b20d17f5e45c000012ac154","nw7b0p","MB","37","F","{""name"":""Chrome"",""chrome"":true,""version"":""106.0"",""blink"":true,""windows"":true,""osname"":""Windows"",""osversion"":""10"",""a"":true}","9:16:3","1","3","Test_4","74","j","1","1237.5999999046326","1920 x 1080","1920 x 1080","true","1","10","","","","",""
"null","<p style=""font-size: 80px;"">+ 10 points</p>","null","html-keyboard-response","82","494484","0.0-11.0-2.81","5b20d17f5e45c000012ac154","nw7b0p","MB","37","F","{""name"":""Chrome"",""chrome"":true,""version"":""106.0"",""blink"":true,""windows"":true,""osname"":""Windows"",""osversion"":""10"",""a"":true}","9:16:3","1","3","Test_1","70","f","1","1138.0999999046326","1920 x 1080","1920 x 1080","true","1","10","","","","",""
"null","<p style=""font-size: 80px;"">+ 10 points</p>","null","html-keyboard-response","83","497016","0.0-11.0-2.82","5b20d17f5e45c000012ac154","nw7b0p","MB","37","F","{""name"":""Chrome"",""chrome"":true,""version"":""106.0"",""blink"":true,""windows"":true,""osname"":""Windows"",""osversion"":""10"",""a"":true}","9:16:3","1","3","Test_1","70","f","1","523","1920 x 1080","1920 x 1080","true","1","10","","","","",""
"null","<p style=""font-size: 80px;"">+ 10 points</p>","null","html-keyboard-response","84","499915","0.0-11.0-2.83","5b20d17f5e45c000012ac154","nw7b0p","MB","37","F","{""name"":""Chrome"",""chrome"":true,""version"":""106.0"",""blink"":true,""windows"":true,""osname"":""Windows"",""osversion"":""10"",""a"":true}","9:16:3","1","3","Test_2","74","j","1","875.6999998092651","1920 x 1080","1920 x 1080","true","1","10","","","","",""
"null","<p style=""font-size: 80px;"">+ 0 points</p>","null","html-keyboard-response","85","503856","0.0-11.0-2.84","5b20d17f5e45c000012ac154","nw7b0p","MB","37","F","{""name"":""Chrome"",""chrome"":true,""version"":""106.0"",""blink"":true,""windows"":true,""osname"":""Windows"",""osversion"":""10"",""a"":true}","9:16:3","1","3","Test_2","70","j","0","1925.2000000476837","1920 x 1080","1920 x 1080","true","1","0","","","","",""
"null","<p style=""font-size: 80px;"">+ 10 points</p>","null","html-keyboard-response","86","506370","0.0-11.0-2.85","5b20d17f5e45c000012ac154","nw7b0p","MB","37","F","{""name"":""Chrome"",""chrome"":true,""version"":""106.0"",""blink"":true,""windows"":true,""osname"":""Windows"",""osversion"":""10"",""a"":true}","9:16:3","1","3","Test_3","70","f","1","505.2000000476837","1920 x 1080","1920 x 1080","true","1","10","","","","",""
"null","<p style=""font-size: 80px;"">+ 10 points</p>","null","html-keyboard-response","87","509812","0.0-11.0-2.86","5b20d17f5e45c000012ac154","nw7b0p","MB","37","F","{""name"":""Chrome"",""chrome"":true,""version"":""106.0"",""blink"":true,""windows"":true,""osname"":""Windows"",""osversion"":""10"",""a"":true}","9:16:3","1","3","Test_1","70","f","1","1419.7000000476837","1920 x 1080","1920 x 1080","true","1","10","","","","",""
"null","<p style=""font-size: 80px;"">+ 10 points</p>","null","html-keyboard-response","88","512983","0.0-11.0-2.87","5b20d17f5e45c000012ac154","nw7b0p","MB","37","F","{""name"":""Chrome"",""chrome"":true,""version"":""106.0"",""blink"":true,""windows"":true,""osname"":""Windows"",""osversion"":""10"",""a"":true}","9:16:3","1","3","Test_4","74","j","1","1157.5","1920 x 1080","1920 x 1080","true","1","10","","","","",""
"null","<p style=""font-size: 80px;"">+ 10 points</p>","null","html-keyboard-response","89","516192","0.0-11.0-2.88","5b20d17f5e45c000012ac154","nw7b0p","MB","37","F","{""name"":""Chrome"",""chrome"":true,""version"":""106.0"",""blink"":true,""windows"":true,""osname"":""Windows"",""osversion"":""10"",""a"":true}","9:16:3","1","3","Test_2","74","j","1","1193.6000001430511","1920 x 1080","1920 x 1080","true","1","10","","","","",""
"null","<p style=""font-size: 80px;"">+ 10 points</p>","null","html-keyboard-response","90","519005","0.0-11.0-2.89","5b20d17f5e45c000012ac154","nw7b0p","MB","37","F","{""name"":""Chrome"",""chrome"":true,""version"":""106.0"",""blink"":true,""windows"":true,""osname"":""Windows"",""osversion"":""10"",""a"":true}","9:16:3","1","3","Test_1","70","f","1","791.2000000476837","1920 x 1080","1920 x 1080","true","1","10","","","","",""
"null","<p style=""font-size: 80px;"">+ 10 points</p>","null","html-keyboard-response","91","521689","0.0-11.0-2.90","5b20d17f5e45c000012ac154","nw7b0p","MB","37","F","{""name"":""Chrome"",""chrome"":true,""version"":""106.0"",""blink"":true,""windows"":true,""osname"":""Windows"",""osversion"":""10"",""a"":true}","9:16:3","1","3","Test_1","70","f","1","654.5999999046326","1920 x 1080","1920 x 1080","true","1","10","","","","",""
"null","<p style=""font-size: 80px;"">+ 10 points</p>","null","html-keyboard-response","92","524164","0.0-11.0-2.91","5b20d17f5e45c000012ac154","nw7b0p","MB","37","F","{""name"":""Chrome"",""chrome"":true,""version"":""106.0"",""blink"":true,""windows"":true,""osname"":""Windows"",""osversion"":""10"",""a"":true}","9:16:3","1","3","Test_2","74","j","1","459.10000014305115","1920 x 1080","1920 x 1080","true","1","10","","","","",""
"null","<p style=""font-size: 80px;"">+ 10 points</p>","null","html-keyboard-response","93","527173","0.0-11.0-2.92","5b20d17f5e45c000012ac154","nw7b0p","MB","37","F","{""name"":""Chrome"",""chrome"":true,""version"":""106.0"",""blink"":true,""windows"":true,""osname"":""Windows"",""osversion"":""10"",""a"":true}","9:16:3","1","3","Test_3","70","f","1","988.3999998569489","1920 x 1080","1920 x 1080","true","1","10","","","","",""
"null","<p style=""font-size: 80px;"">+ 10 points</p>","null","html-keyboard-response","94","529905","0.0-11.0-2.93","5b20d17f5e45c000012ac154","nw7b0p","MB","37","F","{""name"":""Chrome"",""chrome"":true,""version"":""106.0"",""blink"":true,""windows"":true,""osname"":""Windows"",""osversion"":""10"",""a"":true}","9:16:3","1","3","Test_3","70","f","1","714.5","1920 x 1080","1920 x 1080","true","1","10","","","","",""
"null","<p style=""font-size: 80px;"">+ 10 points</p>","null","html-keyboard-response","95","534823","0.0-11.0-2.94","5b20d17f5e45c000012ac154","nw7b0p","MB","37","F","{""name"":""Chrome"",""chrome"":true,""version"":""106.0"",""blink"":true,""windows"":true,""osname"":""Windows"",""osversion"":""10"",""a"":true}","9:16:3","1","3","Test_2","74","j","1","2892.2000000476837","1920 x 1080","1920 x 1080","true","1","10","","","","",""
"null","<p style=""font-size: 80px;"">+ 10 points</p>","null","html-keyboard-response","96","537591","0.0-11.0-2.95","5b20d17f5e45c000012ac154","nw7b0p","MB","37","F","{""name"":""Chrome"",""chrome"":true,""version"":""106.0"",""blink"":true,""windows"":true,""osname"":""Windows"",""osversion"":""10"",""a"":true}","9:16:3","1","3","Test_4","74","j","1","740.8999998569489","1920 x 1080","1920 x 1080","true","1","10","","","","",""
"null","<p style=""font-size: 80px;"">+ 0 points</p>","null","html-keyboard-response","97","540738","0.0-11.0-2.96","5b20d17f5e45c000012ac154","nw7b0p","MB","37","F","{""name"":""Chrome"",""chrome"":true,""version"":""106.0"",""blink"":true,""windows"":true,""osname"":""Windows"",""osversion"":""10"",""a"":true}","9:16:3","1","4","Test_1","70","j","0","1129.6000001430511","1920 x 1080","1920 x 1080","true","1","0","","","","",""
"null","<p style=""font-size: 80px;"">+ 10 points</p>","null","html-keyboard-response","98","543566","0.0-11.0-2.97","5b20d17f5e45c000012ac154","nw7b0p","MB","37","F","{""name"":""Chrome"",""chrome"":true,""version"":""106.0"",""blink"":true,""windows"":true,""osname"":""Windows"",""osversion"":""10"",""a"":true}","9:16:3","1","4","Test_2","70","f","1","814.7000000476837","1920 x 1080","1920 x 1080","true","1","10","","","","",""
"null","<p style=""font-size: 80px;"">+ 10 points</p>","null","html-keyboard-response","99","546854","0.0-11.0-2.98","5b20d17f5e45c000012ac154","nw7b0p","MB","37","F","{""name"":""Chrome"",""chrome"":true,""version"":""106.0"",""blink"":true,""windows"":true,""osname"":""Windows"",""osversion"":""10"",""a"":true}","9:16:3","1","4","Test_3","74","j","1","1262","1920 x 1080","1920 x 1080","true","1","10","","","","",""
"null","<p style=""font-size: 80px;"">+ 10 points</p>","null","html-keyboard-response","100","550062","0.0-11.0-2.99","5b20d17f5e45c000012ac154","nw7b0p","MB","37","F","{""name"":""Chrome"",""chrome"":true,""version"":""106.0"",""blink"":true,""windows"":true,""osname"":""Windows"",""osversion"":""10"",""a"":true}","9:16:3","1","4","Test_3","74","j","1","1182.2999999523163","1920 x 1080","1920 x 1080","true","1","10","","","","",""
"null","<p style=""font-size: 80px;"">+ 10 points</p>","null","html-keyboard-response","101","553047","0.0-11.0-2.100","5b20d17f5e45c000012ac154","nw7b0p","MB","37","F","{""name"":""Chrome"",""chrome"":true,""version"":""106.0"",""blink"":true,""windows"":true,""osname"":""Windows"",""osversion"":""10"",""a"":true}","9:16:3","1","4","Test_4","70","f","1","968.7000000476837","1920 x 1080","1920 x 1080","true","1","10","","","","",""
"null","<p style=""font-size: 80px;"">+ 10 points</p>","null","html-keyboard-response","102","555995","0.0-11.0-2.101","5b20d17f5e45c000012ac154","nw7b0p","MB","37","F","{""name"":""Chrome"",""chrome"":true,""version"":""106.0"",""blink"":true,""windows"":true,""osname"":""Windows"",""osversion"":""10"",""a"":true}","9:16:3","1","4","Test_1","74","j","1","937.2999999523163","1920 x 1080","1920 x 1080","true","1","10","","","","",""
"null","<p style=""font-size: 80px;"">+ 10 points</p>","null","html-keyboard-response","103","558815","0.0-11.0-2.102","5b20d17f5e45c000012ac154","nw7b0p","MB","37","F","{""name"":""Chrome"",""chrome"":true,""version"":""106.0"",""blink"":true,""windows"":true,""osname"":""Windows"",""osversion"":""10"",""a"":true}","9:16:3","1","4","Test_1","74","j","1","785.6000001430511","1920 x 1080","1920 x 1080","true","1","10","","","","",""
"null","<p style=""font-size: 80px;"">+ 10 points</p>","null","html-keyboard-response","104","561554","0.0-11.0-2.103","5b20d17f5e45c000012ac154","nw7b0p","MB","37","F","{""name"":""Chrome"",""chrome"":true,""version"":""106.0"",""blink"":true,""windows"":true,""osname"":""Windows"",""osversion"":""10"",""a"":true}","9:16:3","1","4","Test_2","70","f","1","709.4000000953674","1920 x 1080","1920 x 1080","true","1","10","","","","",""
"null","<p style=""font-size: 80px;"">+ 10 points</p>","null","html-keyboard-response","105","564300","0.0-11.0-2.104","5b20d17f5e45c000012ac154","nw7b0p","MB","37","F","{""name"":""Chrome"",""chrome"":true,""version"":""106.0"",""blink"":true,""windows"":true,""osname"":""Windows"",""osversion"":""10"",""a"":true}","9:16:3","1","4","Test_3","74","j","1","722.6000001430511","1920 x 1080","1920 x 1080","true","1","10","","","","",""
"null","<p style=""font-size: 80px;"">+ 10 points</p>","null","html-keyboard-response","106","567290","0.0-11.0-2.105","5b20d17f5e45c000012ac154","nw7b0p","MB","37","F","{""name"":""Chrome"",""chrome"":true,""version"":""106.0"",""blink"":true,""windows"":true,""osname"":""Windows"",""osversion"":""10"",""a"":true}","9:16:3","1","4","Test_3","74","j","1","959.5","1920 x 1080","1920 x 1080","true","1","10","","","","",""
"null","<p style=""font-size: 80px;"">+ 0 points</p>","null","html-keyboard-response","107","570202","0.0-11.0-2.106","5b20d17f5e45c000012ac154","nw7b0p","MB","37","F","{""name"":""Chrome"",""chrome"":true,""version"":""106.0"",""blink"":true,""windows"":true,""osname"":""Windows"",""osversion"":""10"",""a"":true}","9:16:3","1","4","Test_4","74","f","0","884","1920 x 1080","1920 x 1080","true","1","0","","","","",""
"null","<p style=""font-size: 80px;"">+ 0 points</p>","null","html-keyboard-response","108","572729","0.0-11.0-2.107","5b20d17f5e45c000012ac154","nw7b0p","MB","37","F","{""name"":""Chrome"",""chrome"":true,""version"":""106.0"",""blink"":true,""windows"":true,""osname"":""Windows"",""osversion"":""10"",""a"":true}","9:16:3","1","4","Test_4","74","f","0","516.3999998569489","1920 x 1080","1920 x 1080","true","1","0","","","","",""
"null","<p style=""font-size: 80px;"">+ 0 points</p>","null","html-keyboard-response","109","575642","0.0-11.0-2.108","5b20d17f5e45c000012ac154","nw7b0p","MB","37","F","{""name"":""Chrome"",""chrome"":true,""version"":""106.0"",""blink"":true,""windows"":true,""osname"":""Windows"",""osversion"":""10"",""a"":true}","9:16:3","1","4","Test_1","70","j","0","886.5","1920 x 1080","1920 x 1080","true","1","0","","","","",""
"null","<p style=""font-size: 80px;"">+ 10 points</p>","null","html-keyboard-response","110","638192","0.0-11.0-2.109","5b20d17f5e45c000012ac154","nw7b0p","MB","37","F","{""name"":""Chrome"",""chrome"":true,""version"":""106.0"",""blink"":true,""windows"":true,""osname"":""Windows"",""osversion"":""10"",""a"":true}","9:16:3","1","4","Test_1","74","j","1","781.2000000476837","1920 x 1080","1920 x 1080","true","1","10","","","","",""
"null","<p style=""font-size: 80px;"">+ 10 points</p>","null","html-keyboard-response","111","641159","0.0-11.0-2.110","5b20d17f5e45c000012ac154","nw7b0p","MB","37","F","{""name"":""Chrome"",""chrome"":true,""version"":""106.0"",""blink"":true,""windows"":true,""osname"":""Windows"",""osversion"":""10"",""a"":true}","9:16:3","1","4","Test_4","70","f","1","944.7999999523163","1920 x 1080","1920 x 1080","true","1","10","","","","",""
"null","<p style=""font-size: 80px;"">+ 10 points</p>","null","html-keyboard-response","112","644034","0.0-11.0-2.111","5b20d17f5e45c000012ac154","nw7b0p","MB","37","F","{""name"":""Chrome"",""chrome"":true,""version"":""106.0"",""blink"":true,""windows"":true,""osname"":""Windows"",""osversion"":""10"",""a"":true}","9:16:3","1","4","Test_1","74","j","1","859","1920 x 1080","1920 x 1080","true","1","10","","","","",""
"null","<p style=""font-size: 80px;"">+ 10 points</p>","null","html-keyboard-response","113","646865","0.0-11.0-2.112","5b20d17f5e45c000012ac154","nw7b0p","MB","37","F","{""name"":""Chrome"",""chrome"":true,""version"":""106.0"",""blink"":true,""windows"":true,""osname"":""Windows"",""osversion"":""10"",""a"":true}","9:16:3","1","4","Test_2","70","f","1","822.8000001907349","1920 x 1080","1920 x 1080","true","1","10","","","","",""
"null","<p style=""font-size: 80px;"">+ 10 points</p>","null","html-keyboard-response","114","650838","0.0-11.0-2.113","5b20d17f5e45c000012ac154","nw7b0p","MB","37","F","{""name"":""Chrome"",""chrome"":true,""version"":""106.0"",""blink"":true,""windows"":true,""osname"":""Windows"",""osversion"":""10"",""a"":true}","9:16:3","1","4","Test_2","70","f","1","1950.5","1920 x 1080","1920 x 1080","true","1","10","","","","",""
"null","<p style=""font-size: 80px;"">+ 10 points</p>","null","html-keyboard-response","115","653553","0.0-11.0-2.114","5b20d17f5e45c000012ac154","nw7b0p","MB","37","F","{""name"":""Chrome"",""chrome"":true,""version"":""106.0"",""blink"":true,""windows"":true,""osname"":""Windows"",""osversion"":""10"",""a"":true}","9:16:3","1","4","Test_4","70","f","1","685.5","1920 x 1080","1920 x 1080","true","1","10","","","","",""
"null","<p style=""font-size: 80px;"">+ 10 points</p>","null","html-keyboard-response","116","656112","0.0-11.0-2.115","5b20d17f5e45c000012ac154","nw7b0p","MB","37","F","{""name"":""Chrome"",""chrome"":true,""version"":""106.0"",""blink"":true,""windows"":true,""osname"":""Windows"",""osversion"":""10"",""a"":true}","9:16:3","1","4","Test_3","74","j","1","537.3999998569489","1920 x 1080","1920 x 1080","true","1","10","","","","",""
"null","<p style=""font-size: 80px;"">+ 10 points</p>","null","html-keyboard-response","117","659150","0.0-11.0-2.116","5b20d17f5e45c000012ac154","nw7b0p","MB","37","F","{""name"":""Chrome"",""chrome"":true,""version"":""106.0"",""blink"":true,""windows"":true,""osname"":""Windows"",""osversion"":""10"",""a"":true}","9:16:3","1","4","Test_2","70","f","1","1010.5","1920 x 1080","1920 x 1080","true","1","10","","","","",""
"null","<p style=""font-size: 80px;"">+ 0 points</p>","null","html-keyboard-response","118","662208","0.0-11.0-2.117","5b20d17f5e45c000012ac154","nw7b0p","MB","37","F","{""name"":""Chrome"",""chrome"":true,""version"":""106.0"",""blink"":true,""windows"":true,""osname"":""Windows"",""osversion"":""10"",""a"":true}","9:16:3","1","3","Test_3","74","f","0","1046.9000000953674","1920 x 1080","1920 x 1080","true","1","0","","","","",""
"null","<p style=""font-size: 80px;"">+ 10 points</p>","null","html-keyboard-response","119","665073","0.0-11.0-2.118","5b20d17f5e45c000012ac154","nw7b0p","MB","37","F","{""name"":""Chrome"",""chrome"":true,""version"":""106.0"",""blink"":true,""windows"":true,""osname"":""Windows"",""osversion"":""10"",""a"":true}","9:16:3","1","3","Test_4","74","j","1","849.5999999046326","1920 x 1080","1920 x 1080","true","1","10","","","","",""
"null","<p style=""font-size: 80px;"">+ 10 points</p>","null","html-keyboard-response","120","669169","0.0-11.0-2.119","5b20d17f5e45c000012ac154","nw7b0p","MB","37","F","{""name"":""Chrome"",""chrome"":true,""version"":""106.0"",""blink"":true,""windows"":true,""osname"":""Windows"",""osversion"":""10"",""a"":true}","9:16:3","1","3","Test_2","74","j","1","2087.7999999523163","1920 x 1080","1920 x 1080","true","1","10","","","","",""
"null","<p style=""font-size: 80px;"">+ 10 points</p>","null","html-keyboard-response","121","672391","0.0-11.0-2.120","5b20d17f5e45c000012ac154","nw7b0p","MB","37","F","{""name"":""Chrome"",""chrome"":true,""version"":""106.0"",""blink"":true,""windows"":true,""osname"":""Windows"",""osversion"":""10"",""a"":true}","9:16:3","1","3","Test_1","70","f","1","1210.0999999046326","1920 x 1080","1920 x 1080","true","1","10","","","","",""
"null","<p style=""font-size: 80px;"">+ 10 points</p>","null","html-keyboard-response","122","675543","0.0-11.0-2.121","5b20d17f5e45c000012ac154","nw7b0p","MB","37","F","{""name"":""Chrome"",""chrome"":true,""version"":""106.0"",""blink"":true,""windows"":true,""osname"":""Windows"",""osversion"":""10"",""a"":true}","9:16:3","1","3","Test_4","74","j","1","1124.2000000476837","1920 x 1080","1920 x 1080","true","1","10","","","","",""
"null","<p style=""font-size: 80px;"">+ 10 points</p>","null","html-keyboard-response","123","678708","0.0-11.0-2.122","5b20d17f5e45c000012ac154","nw7b0p","MB","37","F","{""name"":""Chrome"",""chrome"":true,""version"":""106.0"",""blink"":true,""windows"":true,""osname"":""Windows"",""osversion"":""10"",""a"":true}","9:16:3","1","3","Test_2","74","j","1","1141.8999998569489","1920 x 1080","1920 x 1080","true","1","10","","","","",""
"null","<p style=""font-size: 80px;"">+ 10 points</p>","null","html-keyboard-response","124","681644","0.0-11.0-2.123","5b20d17f5e45c000012ac154","nw7b0p","MB","37","F","{""name"":""Chrome"",""chrome"":true,""version"":""106.0"",""blink"":true,""windows"":true,""osname"":""Windows"",""osversion"":""10"",""a"":true}","9:16:3","1","3","Test_2","74","j","1","925.0999999046326","1920 x 1080","1920 x 1080","true","1","10","","","","",""
"null","<p style=""font-size: 80px;"">+ 10 points</p>","null","html-keyboard-response","125","685340","0.0-11.0-2.124","5b20d17f5e45c000012ac154","nw7b0p","MB","37","F","{""name"":""Chrome"",""chrome"":true,""version"":""106.0"",""blink"":true,""windows"":true,""osname"":""Windows"",""osversion"":""10"",""a"":true}","9:16:3","1","3","Test_4","74","j","1","1666","1920 x 1080","1920 x 1080","true","1","10","","","","",""
"null","<p style=""font-size: 80px;"">+ 10 points</p>","null","html-keyboard-response","126","687917","0.0-11.0-2.125","5b20d17f5e45c000012ac154","nw7b0p","MB","37","F","{""name"":""Chrome"",""chrome"":true,""version"":""106.0"",""blink"":true,""windows"":true,""osname"":""Windows"",""osversion"":""10"",""a"":true}","9:16:3","1","3","Test_3","70","f","1","555.7999999523163","1920 x 1080","1920 x 1080","true","1","10","","","","",""
"null","<p style=""font-size: 80px;"">+ 10 points</p>","null","html-keyboard-response","127","691280","0.0-11.0-2.126","5b20d17f5e45c000012ac154","nw7b0p","MB","37","F","{""name"":""Chrome"",""chrome"":true,""version"":""106.0"",""blink"":true,""windows"":true,""osname"":""Windows"",""osversion"":""10"",""a"":true}","9:16:3","1","3","Test_3","70","f","1","1346.7000000476837","1920 x 1080","1920 x 1080","true","1","10","","","","",""
"null","<p style=""font-size: 80px;"">+ 10 points</p>","null","html-keyboard-response","128","694128","0.0-11.0-2.127","5b20d17f5e45c000012ac154","nw7b0p","MB","37","F","{""name"":""Chrome"",""chrome"":true,""version"":""106.0"",""blink"":true,""windows"":true,""osname"":""Windows"",""osversion"":""10"",""a"":true}","9:16:3","1","3","Test_1","70","f","1","836.5","1920 x 1080","1920 x 1080","true","1","10","","","","",""
"null","<p style=""font-size: 80px;"">+ 10 points</p>","null","html-keyboard-response","129","697616","0.0-11.0-2.128","5b20d17f5e45c000012ac154","nw7b0p","MB","37","F","{""name"":""Chrome"",""chrome"":true,""version"":""106.0"",""blink"":true,""windows"":true,""osname"":""Windows"",""osversion"":""10"",""a"":true}","9:16:3","1","3","Test_3","70","f","1","1470.0999999046326","1920 x 1080","1920 x 1080","true","1","10","","","","",""
"null","<p style=""font-size: 80px;"">+ 10 points</p>","null","html-keyboard-response","130","700841","0.0-11.0-2.129","5b20d17f5e45c000012ac154","nw7b0p","MB","37","F","{""name"":""Chrome"",""chrome"":true,""version"":""106.0"",""blink"":true,""windows"":true,""osname"":""Windows"",""osversion"":""10"",""a"":true}","9:16:3","1","3","Test_3","70","f","1","1213.7999999523163","1920 x 1080","1920 x 1080","true","1","10","","","","",""
"null","<p style=""font-size: 80px;"">+ 10 points</p>","null","html-keyboard-response","131","704091","0.0-11.0-2.130","5b20d17f5e45c000012ac154","nw7b0p","MB","37","F","{""name"":""Chrome"",""chrome"":true,""version"":""106.0"",""blink"":true,""windows"":true,""osname"":""Windows"",""osversion"":""10"",""a"":true}","9:16:3","1","3","Test_1","70","f","1","1233.6000001430511","1920 x 1080","1920 x 1080","true","1","10","","","","",""
"null","<p style=""font-size: 80px;"">+ 10 points</p>","null","html-keyboard-response","132","707221","0.0-11.0-2.131","5b20d17f5e45c000012ac154","nw7b0p","MB","37","F","{""name"":""Chrome"",""chrome"":true,""version"":""106.0"",""blink"":true,""windows"":true,""osname"":""Windows"",""osversion"":""10"",""a"":true}","9:16:3","1","3","Test_1","70","f","1","1104.5999999046326","1920 x 1080","1920 x 1080","true","1","10","","","","",""
"null","<p style=""font-size: 80px;"">+ 10 points</p>","null","html-keyboard-response","133","710186","0.0-11.0-2.132","5b20d17f5e45c000012ac154","nw7b0p","MB","37","F","{""name"":""Chrome"",""chrome"":true,""version"":""106.0"",""blink"":true,""windows"":true,""osname"":""Windows"",""osversion"":""10"",""a"":true}","9:16:3","1","3","Test_4","74","j","1","951.2000000476837","1920 x 1080","1920 x 1080","true","1","10","","","","",""
"null","<p style=""font-size: 80px;"">+ 10 points</p>","null","html-keyboard-response","134","713121","0.0-11.0-2.133","5b20d17f5e45c000012ac154","nw7b0p","MB","37","F","{""name"":""Chrome"",""chrome"":true,""version"":""106.0"",""blink"":true,""windows"":true,""osname"":""Windows"",""osversion"":""10"",""a"":true}","9:16:3","1","3","Test_4","74","j","1","917.1000001430511","1920 x 1080","1920 x 1080","true","1","10","","","","",""
"null","<p style=""font-size: 80px;"">+ 10 points</p>","null","html-keyboard-response","135","717077","0.0-11.0-2.134","5b20d17f5e45c000012ac154","nw7b0p","MB","37","F","{""name"":""Chrome"",""chrome"":true,""version"":""106.0"",""blink"":true,""windows"":true,""osname"":""Windows"",""osversion"":""10"",""a"":true}","9:16:3","1","3","Test_2","74","j","1","1930.2000000476837","1920 x 1080","1920 x 1080","true","1","10","","","","",""
"null","<p style=""font-size: 80px;"">+ 10 points</p>","null","html-keyboard-response","136","720479","0.0-11.0-2.135","5b20d17f5e45c000012ac154","nw7b0p","MB","37","F","{""name"":""Chrome"",""chrome"":true,""version"":""106.0"",""blink"":true,""windows"":true,""osname"":""Windows"",""osversion"":""10"",""a"":true}","9:16:3","1","3","Test_1","70","f","1","1375.5","1920 x 1080","1920 x 1080","true","1","10","","","","",""
"null","<p style=""font-size: 80px;"">+ 10 points</p>","null","html-keyboard-response","137","723292","0.0-11.0-2.136","5b20d17f5e45c000012ac154","nw7b0p","MB","37","F","{""name"":""Chrome"",""chrome"":true,""version"":""106.0"",""blink"":true,""windows"":true,""osname"":""Windows"",""osversion"":""10"",""a"":true}","9:16:3","1","3","Test_2","74","j","1","801","1920 x 1080","1920 x 1080","true","1","10","","","","",""
"null","<p style=""font-size: 80px;"">+ 0 points</p>","null","html-keyboard-response","138","726220","0.0-11.0-2.137","5b20d17f5e45c000012ac154","nw7b0p","MB","37","F","{""name"":""Chrome"",""chrome"":true,""version"":""106.0"",""blink"":true,""windows"":true,""osname"":""Windows"",""osversion"":""10"",""a"":true}","9:16:3","1","4","Test_4","74","f","0","904.4000000953674","1920 x 1080","1920 x 1080","true","1","0","","","","",""
"null","<p style=""font-size: 80px;"">+ 10 points</p>","null","html-keyboard-response","139","728795","0.0-11.0-2.138","5b20d17f5e45c000012ac154","nw7b0p","MB","37","F","{""name"":""Chrome"",""chrome"":true,""version"":""106.0"",""blink"":true,""windows"":true,""osname"":""Windows"",""osversion"":""10"",""a"":true}","9:16:3","1","4","Test_1","74","j","1","553.2000000476837","1920 x 1080","1920 x 1080","true","1","10","","","","",""
"null","<p style=""font-size: 80px;"">+ 10 points</p>","null","html-keyboard-response","140","731525","0.0-11.0-2.139","5b20d17f5e45c000012ac154","nw7b0p","MB","37","F","{""name"":""Chrome"",""chrome"":true,""version"":""106.0"",""blink"":true,""windows"":true,""osname"":""Windows"",""osversion"":""10"",""a"":true}","9:16:3","1","4","Test_1","74","j","1","699.9000000953674","1920 x 1080","1920 x 1080","true","1","10","","","","",""
"null","<p style=""font-size: 80px;"">+ 10 points</p>","null","html-keyboard-response","141","734787","0.0-11.0-2.140","5b20d17f5e45c000012ac154","nw7b0p","MB","37","F","{""name"":""Chrome"",""chrome"":true,""version"":""106.0"",""blink"":true,""windows"":true,""osname"":""Windows"",""osversion"":""10"",""a"":true}","9:16:3","1","4","Test_2","70","f","1","1250.4000000953674","1920 x 1080","1920 x 1080","true","1","10","","","","",""
"null","<p style=""font-size: 80px;"">+ 10 points</p>","null","html-keyboard-response","142","737835","0.0-11.0-2.141","5b20d17f5e45c000012ac154","nw7b0p","MB","37","F","{""name"":""Chrome"",""chrome"":true,""version"":""106.0"",""blink"":true,""windows"":true,""osname"":""Windows"",""osversion"":""10"",""a"":true}","9:16:3","1","4","Test_3","74","j","1","1028.7999999523163","1920 x 1080","1920 x 1080","true","1","10","","","","",""
"null","<p style=""font-size: 80px;"">+ 10 points</p>","null","html-keyboard-response","143","740688","0.0-11.0-2.142","5b20d17f5e45c000012ac154","nw7b0p","MB","37","F","{""name"":""Chrome"",""chrome"":true,""version"":""106.0"",""blink"":true,""windows"":true,""osname"":""Windows"",""osversion"":""10"",""a"":true}","9:16:3","1","4","Test_1","74","j","1","830.4000000953674","1920 x 1080","1920 x 1080","true","1","10","","","","",""
"null","<p style=""font-size: 80px;"">+ 10 points</p>","null","html-keyboard-response","144","744060","0.0-11.0-2.143","5b20d17f5e45c000012ac154","nw7b0p","MB","37","F","{""name"":""Chrome"",""chrome"":true,""version"":""106.0"",""blink"":true,""windows"":true,""osname"":""Windows"",""osversion"":""10"",""a"":true}","9:16:3","1","4","Test_1","74","j","1","1341.2999999523163","1920 x 1080","1920 x 1080","true","1","10","","","","",""
"null","<p style=""font-size: 80px;"">+ 10 points</p>","null","html-keyboard-response","145","748455","0.0-11.0-2.144","5b20d17f5e45c000012ac154","nw7b0p","MB","37","F","{""name"":""Chrome"",""chrome"":true,""version"":""106.0"",""blink"":true,""windows"":true,""osname"":""Windows"",""osversion"":""10"",""a"":true}","9:16:3","1","4","Test_3","74","j","1","2376.5","1920 x 1080","1920 x 1080","true","1","10","","","","",""
"null","<p style=""font-size: 80px;"">+ 0 points</p>","null","html-keyboard-response","146","752566","0.0-11.0-2.145","5b20d17f5e45c000012ac154","nw7b0p","MB","37","F","{""name"":""Chrome"",""chrome"":true,""version"":""106.0"",""blink"":true,""windows"":true,""osname"":""Windows"",""osversion"":""10"",""a"":true}","9:16:3","1","4","Test_4","74","f","0","2079.4000000953674","1920 x 1080","1920 x 1080","true","1","0","","","","",""
"null","<p style=""font-size: 80px;"">+ 10 points</p>","null","html-keyboard-response","147","755764","0.0-11.0-2.146","5b20d17f5e45c000012ac154","nw7b0p","MB","37","F","{""name"":""Chrome"",""chrome"":true,""version"":""106.0"",""blink"":true,""windows"":true,""osname"":""Windows"",""osversion"":""10"",""a"":true}","9:16:3","1","4","Test_3","74","j","1","1165.8999998569489","1920 x 1080","1920 x 1080","true","1","10","","","","",""
"null","<p style=""font-size: 80px;"">+ 10 points</p>","null","html-keyboard-response","148","758594","0.0-11.0-2.147","5b20d17f5e45c000012ac154","nw7b0p","MB","37","F","{""name"":""Chrome"",""chrome"":true,""version"":""106.0"",""blink"":true,""windows"":true,""osname"":""Windows"",""osversion"":""10"",""a"":true}","9:16:3","1","4","Test_3","74","j","1","819","1920 x 1080","1920 x 1080","true","1","10","","","","",""
"null","<p style=""font-size: 80px;"">+ 10 points</p>","null","html-keyboard-response","149","761391","0.0-11.0-2.148","5b20d17f5e45c000012ac154","nw7b0p","MB","37","F","{""name"":""Chrome"",""chrome"":true,""version"":""106.0"",""blink"":true,""windows"":true,""osname"":""Windows"",""osversion"":""10"",""a"":true}","9:16:3","1","4","Test_1","74","j","1","762","1920 x 1080","1920 x 1080","true","1","10","","","","",""
"null","<p style=""font-size: 80px;"">+ 10 points</p>","null","html-keyboard-response","150","765483","0.0-11.0-2.149","5b20d17f5e45c000012ac154","nw7b0p","MB","37","F","{""name"":""Chrome"",""chrome"":true,""version"":""106.0"",""blink"":true,""windows"":true,""osname"":""Windows"",""osversion"":""10"",""a"":true}","9:16:3","1","4","Test_4","70","f","1","2068","1920 x 1080","1920 x 1080","true","1","10","","","","",""
"null","<p style=""font-size: 80px;"">+ 10 points</p>","null","html-keyboard-response","151","768369","0.0-11.0-2.150","5b20d17f5e45c000012ac154","nw7b0p","MB","37","F","{""name"":""Chrome"",""chrome"":true,""version"":""106.0"",""blink"":true,""windows"":true,""osname"":""Windows"",""osversion"":""10"",""a"":true}","9:16:3","1","4","Test_4","70","f","1","872","1920 x 1080","1920 x 1080","true","1","10","","","","",""
"null","<p style=""font-size: 80px;"">+ 10 points</p>","null","html-keyboard-response","152","771071","0.0-11.0-2.151","5b20d17f5e45c000012ac154","nw7b0p","MB","37","F","{""name"":""Chrome"",""chrome"":true,""version"":""106.0"",""blink"":true,""windows"":true,""osname"":""Windows"",""osversion"":""10"",""a"":true}","9:16:3","1","4","Test_1","74","j","1","687.7000000476837","1920 x 1080","1920 x 1080","true","1","10","","","","",""
"null","<p style=""font-size: 80px;"">+ 10 points</p>","null","html-keyboard-response","153","773789","0.0-11.0-2.152","5b20d17f5e45c000012ac154","nw7b0p","MB","37","F","{""name"":""Chrome"",""chrome"":true,""version"":""106.0"",""blink"":true,""windows"":true,""osname"":""Windows"",""osversion"":""10"",""a"":true}","9:16:3","1","4","Test_2","70","f","1","695.7999999523163","1920 x 1080","1920 x 1080","true","1","10","","","","",""
"null","<p style=""font-size: 80px;"">+ 10 points</p>","null","html-keyboard-response","154","776417","0.0-11.0-2.153","5b20d17f5e45c000012ac154","nw7b0p","MB","37","F","{""name"":""Chrome"",""chrome"":true,""version"":""106.0"",""blink"":true,""windows"":true,""osname"":""Windows"",""osversion"":""10"",""a"":true}","9:16:3","1","4","Test_2","70","f","1","618.9000000953674","1920 x 1080","1920 x 1080","true","1","10","","","","",""
"null","<p style=""font-size: 80px;"">+ 10 points</p>","null","html-keyboard-response","155","779201","0.0-11.0-2.154","5b20d17f5e45c000012ac154","nw7b0p","MB","37","F","{""name"":""Chrome"",""chrome"":true,""version"":""106.0"",""blink"":true,""windows"":true,""osname"":""Windows"",""osversion"":""10"",""a"":true}","9:16:3","1","4","Test_3","74","j","1","763.3999998569489","1920 x 1080","1920 x 1080","true","1","10","","","","",""
"null","<p style=""font-size: 80px;"">+ 10 points</p>","null","html-keyboard-response","156","781806","0.0-11.0-2.155","5b20d17f5e45c000012ac154","nw7b0p","MB","37","F","{""name"":""Chrome"",""chrome"":true,""version"":""106.0"",""blink"":true,""windows"":true,""osname"":""Windows"",""osversion"":""10"",""a"":true}","9:16:3","1","4","Test_4","70","f","1","580","1920 x 1080","1920 x 1080","true","1","10","","","","",""
"null","<p style=""font-size: 80px;"">+ 10 points</p>","null","html-keyboard-response","157","784898","0.0-11.0-2.156","5b20d17f5e45c000012ac154","nw7b0p","MB","37","F","{""name"":""Chrome"",""chrome"":true,""version"":""106.0"",""blink"":true,""windows"":true,""osname"":""Windows"",""osversion"":""10"",""a"":true}","9:16:3","1","4","Test_2","70","f","1","1078.7999999523163","1920 x 1080","1920 x 1080","true","1","10","","","","",""
"null","<p style=""font-size: 80px;"">+ 10 points</p>","null","html-keyboard-response","158","787466","0.0-11.0-2.157","5b20d17f5e45c000012ac154","nw7b0p","MB","37","F","{""name"":""Chrome"",""chrome"":true,""version"":""106.0"",""blink"":true,""windows"":true,""osname"":""Windows"",""osversion"":""10"",""a"":true}","9:16:3","1","4","Test_3","74","j","1","546.0999999046326","1920 x 1080","1920 x 1080","true","1","10","","","","",""
"null","<p style=""font-size: 80px;"">+ 10 points</p>","null","html-keyboard-response","159","790011","0.0-11.0-2.158","5b20d17f5e45c000012ac154","nw7b0p","MB","37","F","{""name"":""Chrome"",""chrome"":true,""version"":""106.0"",""blink"":true,""windows"":true,""osname"":""Windows"",""osversion"":""10"",""a"":true}","9:16:3","1","4","Test_2","70","f","1","535.2999999523163","1920 x 1080","1920 x 1080","true","1","10","","","","",""
"null","<p style=""font-size: 80px;"">+ 10 points</p>","null","html-keyboard-response","160","792758","0.0-11.0-2.159","5b20d17f5e45c000012ac154","nw7b0p","MB","37","F","{""name"":""Chrome"",""chrome"":true,""version"":""106.0"",""blink"":true,""windows"":true,""osname"":""Windows"",""osversion"":""10"",""a"":true}","9:16:3","1","4","Test_4","70","f","1","732.7000000476837","1920 x 1080","1920 x 1080","true","1","10","","","","",""
"null","<p style=""font-size: 80px;"">+ 0 points</p>","null","html-keyboard-response","161","796087","0.0-11.0-2.160","5b20d17f5e45c000012ac154","nw7b0p","MB","37","F","{""name"":""Chrome"",""chrome"":true,""version"":""106.0"",""blink"":true,""windows"":true,""osname"":""Windows"",""osversion"":""10"",""a"":true}","9:16:3","1","3","Test_4","70","j","0","1301.0999999046326","1920 x 1080","1920 x 1080","true","1","0","","","","",""
"null","<p style=""font-size: 80px;"">+ 10 points</p>","null","html-keyboard-response","162","798944","0.0-11.0-2.161","5b20d17f5e45c000012ac154","nw7b0p","MB","37","F","{""name"":""Chrome"",""chrome"":true,""version"":""106.0"",""blink"":true,""windows"":true,""osname"":""Windows"",""osversion"":""10"",""a"":true}","9:16:3","1","3","Test_3","70","f","1","831.1999998092651","1920 x 1080","1920 x 1080","true","1","10","","","","",""
"null","<p style=""font-size: 80px;"">+ 10 points</p>","null","html-keyboard-response","163","801561","0.0-11.0-2.162","5b20d17f5e45c000012ac154","nw7b0p","MB","37","F","{""name"":""Chrome"",""chrome"":true,""version"":""106.0"",""blink"":true,""windows"":true,""osname"":""Windows"",""osversion"":""10"",""a"":true}","9:16:3","1","3","Test_1","70","f","1","588.0999999046326","1920 x 1080","1920 x 1080","true","1","10","","","","",""
"null","<p style=""font-size: 80px;"">+ 10 points</p>","null","html-keyboard-response","164","804118","0.0-11.0-2.163","5b20d17f5e45c000012ac154","nw7b0p","MB","37","F","{""name"":""Chrome"",""chrome"":true,""version"":""106.0"",""blink"":true,""windows"":true,""osname"":""Windows"",""osversion"":""10"",""a"":true}","9:16:3","1","3","Test_3","70","f","1","543.5999999046326","1920 x 1080","1920 x 1080","true","1","10","","","","",""
"null","<p style=""font-size: 80px;"">+ 10 points</p>","null","html-keyboard-response","165","806953","0.0-11.0-2.164","5b20d17f5e45c000012ac154","nw7b0p","MB","37","F","{""name"":""Chrome"",""chrome"":true,""version"":""106.0"",""blink"":true,""windows"":true,""osname"":""Windows"",""osversion"":""10"",""a"":true}","9:16:3","1","3","Test_3","70","f","1","804.0999999046326","1920 x 1080","1920 x 1080","true","1","10","","","","",""
"null","<p style=""font-size: 80px;"">+ 10 points</p>","null","html-keyboard-response","166","809747","0.0-11.0-2.165","5b20d17f5e45c000012ac154","nw7b0p","MB","37","F","{""name"":""Chrome"",""chrome"":true,""version"":""106.0"",""blink"":true,""windows"":true,""osname"":""Windows"",""osversion"":""10"",""a"":true}","9:16:3","1","3","Test_2","74","j","1","784.5","1920 x 1080","1920 x 1080","true","1","10","","","","",""
"null","<p style=""font-size: 80px;"">+ 10 points</p>","null","html-keyboard-response","167","812569","0.0-11.0-2.166","5b20d17f5e45c000012ac154","nw7b0p","MB","37","F","{""name"":""Chrome"",""chrome"":true,""version"":""106.0"",""blink"":true,""windows"":true,""osname"":""Windows"",""osversion"":""10"",""a"":true}","9:16:3","1","3","Test_4","74","j","1","788.2000000476837","1920 x 1080","1920 x 1080","true","1","10","","","","",""
"null","<p style=""font-size: 80px;"">+ 10 points</p>","null","html-keyboard-response","168","815621","0.0-11.0-2.167","5b20d17f5e45c000012ac154","nw7b0p","MB","37","F","{""name"":""Chrome"",""chrome"":true,""version"":""106.0"",""blink"":true,""windows"":true,""osname"":""Windows"",""osversion"":""10"",""a"":true}","9:16:3","1","3","Test_2","74","j","1","1025","1920 x 1080","1920 x 1080","true","1","10","","","","",""
"null","<p style=""font-size: 80px;"">+ 10 points</p>","null","html-keyboard-response","169","818431","0.0-11.0-2.168","5b20d17f5e45c000012ac154","nw7b0p","MB","37","F","{""name"":""Chrome"",""chrome"":true,""version"":""106.0"",""blink"":true,""windows"":true,""osname"":""Windows"",""osversion"":""10"",""a"":true}","9:16:3","1","3","Test_4","74","j","1","796.6000001430511","1920 x 1080","1920 x 1080","true","1","10","","","","",""
"null","<p style=""font-size: 80px;"">+ 10 points</p>","null","html-keyboard-response","170","821595","0.0-11.0-2.169","5b20d17f5e45c000012ac154","nw7b0p","MB","37","F","{""name"":""Chrome"",""chrome"":true,""version"":""106.0"",""blink"":true,""windows"":true,""osname"":""Windows"",""osversion"":""10"",""a"":true}","9:16:3","1","3","Test_3","70","f","1","1143.8999998569489","1920 x 1080","1920 x 1080","true","1","10","","","","",""
"null","<p style=""font-size: 80px;"">+ 10 points</p>","null","html-keyboard-response","171","824414","0.0-11.0-2.170","5b20d17f5e45c000012ac154","nw7b0p","MB","37","F","{""name"":""Chrome"",""chrome"":true,""version"":""106.0"",""blink"":true,""windows"":true,""osname"":""Windows"",""osversion"":""10"",""a"":true}","9:16:3","1","3","Test_4","74","j","1","791.5999999046326","1920 x 1080","1920 x 1080","true","1","10","","","","",""
"null","<p style=""font-size: 80px;"">+ 10 points</p>","null","html-keyboard-response","172","827207","0.0-11.0-2.171","5b20d17f5e45c000012ac154","nw7b0p","MB","37","F","{""name"":""Chrome"",""chrome"":true,""version"":""106.0"",""blink"":true,""windows"":true,""osname"":""Windows"",""osversion"":""10"",""a"":true}","9:16:3","1","3","Test_1","70","f","1","759.4000000953674","1920 x 1080","1920 x 1080","true","1","10","","","","",""
"null","<p style=""font-size: 80px;"">+ 10 points</p>","null","html-keyboard-response","173","829923","0.0-11.0-2.172","5b20d17f5e45c000012ac154","nw7b0p","MB","37","F","{""name"":""Chrome"",""chrome"":true,""version"":""106.0"",""blink"":true,""windows"":true,""osname"":""Windows"",""osversion"":""10"",""a"":true}","9:16:3","1","3","Test_3","70","f","1","694.5999999046326","1920 x 1080","1920 x 1080","true","1","10","","","","",""
"null","<p style=""font-size: 80px;"">+ 10 points</p>","null","html-keyboard-response","174","832556","0.0-11.0-2.173","5b20d17f5e45c000012ac154","nw7b0p","MB","37","F","{""name"":""Chrome"",""chrome"":true,""version"":""106.0"",""blink"":true,""windows"":true,""osname"":""Windows"",""osversion"":""10"",""a"":true}","9:16:3","1","3","Test_1","70","f","1","616.9000000953674","1920 x 1080","1920 x 1080","true","1","10","","","","",""
"null","<p style=""font-size: 80px;"">+ 10 points</p>","null","html-keyboard-response","175","835206","0.0-11.0-2.174","5b20d17f5e45c000012ac154","nw7b0p","MB","37","F","{""name"":""Chrome"",""chrome"":true,""version"":""106.0"",""blink"":true,""windows"":true,""osname"":""Windows"",""osversion"":""10"",""a"":true}","9:16:3","1","3","Test_1","70","f","1","628.4000000953674","1920 x 1080","1920 x 1080","true","1","10","","","","",""
"null","<p style=""font-size: 80px;"">+ 10 points</p>","null","html-keyboard-response","176","837882","0.0-11.0-2.175","5b20d17f5e45c000012ac154","nw7b0p","MB","37","F","{""name"":""Chrome"",""chrome"":true,""version"":""106.0"",""blink"":true,""windows"":true,""osname"":""Windows"",""osversion"":""10"",""a"":true}","9:16:3","1","3","Test_2","74","j","1","664","1920 x 1080","1920 x 1080","true","1","10","","","","",""
"null","<p style=""font-size: 80px;"">+ 0 points</p>","null","html-keyboard-response","177","841526","0.0-11.0-2.176","5b20d17f5e45c000012ac154","nw7b0p","MB","37","F","{""name"":""Chrome"",""chrome"":true,""version"":""106.0"",""blink"":true,""windows"":true,""osname"":""Windows"",""osversion"":""10"",""a"":true}","9:16:3","1","3","Test_2","70","j","0","1622.2999999523163","1920 x 1080","1920 x 1080","true","1","0","","","","",""
"null","<p style=""font-size: 80px;"">+ 10 points</p>","null","html-keyboard-response","178","844052","0.0-11.0-2.177","5b20d17f5e45c000012ac154","nw7b0p","MB","37","F","{""name"":""Chrome"",""chrome"":true,""version"":""106.0"",""blink"":true,""windows"":true,""osname"":""Windows"",""osversion"":""10"",""a"":true}","9:16:3","1","3","Test_4","74","j","1","516.3999998569489","1920 x 1080","1920 x 1080","true","1","10","","","","",""
"null","<p style=""font-size: 80px;"">+ 0 points</p>","null","html-keyboard-response","179","847094","0.0-11.0-2.178","5b20d17f5e45c000012ac154","nw7b0p","MB","37","F","{""name"":""Chrome"",""chrome"":true,""version"":""106.0"",""blink"":true,""windows"":true,""osname"":""Windows"",""osversion"":""10"",""a"":true}","9:16:3","1","4","Test_1","70","j","0","1030.5","1920 x 1080","1920 x 1080","true","1","0","","","","",""
"null","<p style=""font-size: 80px;"">+ 10 points</p>","null","html-keyboard-response","180","850025","0.0-11.0-2.179","5b20d17f5e45c000012ac154","nw7b0p","MB","37","F","{""name"":""Chrome"",""chrome"":true,""version"":""106.0"",""blink"":true,""windows"":true,""osname"":""Windows"",""osversion"":""10"",""a"":true}","9:16:3","1","4","Test_2","70","f","1","911.2000000476837","1920 x 1080","1920 x 1080","true","1","10","","","","",""
"null","<p style=""font-size: 80px;"">+ 10 points</p>","null","html-keyboard-response","181","852538","0.0-11.0-2.180","5b20d17f5e45c000012ac154","nw7b0p","MB","37","F","{""name"":""Chrome"",""chrome"":true,""version"":""106.0"",""blink"":true,""windows"":true,""osname"":""Windows"",""osversion"":""10"",""a"":true}","9:16:3","1","4","Test_1","74","j","1","500.7000000476837","1920 x 1080","1920 x 1080","true","1","10","","","","",""
"null","<p style=""font-size: 80px;"">+ 10 points</p>","null","html-keyboard-response","182","855459","0.0-11.0-2.181","5b20d17f5e45c000012ac154","nw7b0p","MB","37","F","{""name"":""Chrome"",""chrome"":true,""version"":""106.0"",""blink"":true,""windows"":true,""osname"":""Windows"",""osversion"":""10"",""a"":true}","9:16:3","1","4","Test_4","70","f","1","904.0999999046326","1920 x 1080","1920 x 1080","true","1","10","","","","",""
"null","<p style=""font-size: 80px;"">+ 10 points</p>","null","html-keyboard-response","183","858297","0.0-11.0-2.182","5b20d17f5e45c000012ac154","nw7b0p","MB","37","F","{""name"":""Chrome"",""chrome"":true,""version"":""106.0"",""blink"":true,""windows"":true,""osname"":""Windows"",""osversion"":""10"",""a"":true}","9:16:3","1","4","Test_2","70","f","1","825.5","1920 x 1080","1920 x 1080","true","1","10","","","","",""
"null","<p style=""font-size: 80px;"">+ 10 points</p>","null","html-keyboard-response","184","862900","0.0-11.0-2.183","5b20d17f5e45c000012ac154","nw7b0p","MB","37","F","{""name"":""Chrome"",""chrome"":true,""version"":""106.0"",""blink"":true,""windows"":true,""osname"":""Windows"",""osversion"":""10"",""a"":true}","9:16:3","1","4","Test_4","70","f","1","2592.899999856949","1920 x 1080","1920 x 1080","true","1","10","","","","",""
"null","<p style=""font-size: 80px;"">+ 10 points</p>","null","html-keyboard-response","185","865630","0.0-11.0-2.184","5b20d17f5e45c000012ac154","nw7b0p","MB","37","F","{""name"":""Chrome"",""chrome"":true,""version"":""106.0"",""blink"":true,""windows"":true,""osname"":""Windows"",""osversion"":""10"",""a"":true}","9:16:3","1","4","Test_3","74","j","1","711.5","1920 x 1080","1920 x 1080","true","1","10","","","","",""
"null","<p style=""font-size: 80px;"">+ 10 points</p>","null","html-keyboard-response","186","868672","0.0-11.0-2.185","5b20d17f5e45c000012ac154","nw7b0p","MB","37","F","{""name"":""Chrome"",""chrome"":true,""version"":""106.0"",""blink"":true,""windows"":true,""osname"":""Windows"",""osversion"":""10"",""a"":true}","9:16:3","1","4","Test_3","74","j","1","1027.5","1920 x 1080","1920 x 1080","true","1","10","","","","",""
"null","<p style=""font-size: 80px;"">+ 10 points</p>","null","html-keyboard-response","187","871595","0.0-11.0-2.186","5b20d17f5e45c000012ac154","nw7b0p","MB","37","F","{""name"":""Chrome"",""chrome"":true,""version"":""106.0"",""blink"":true,""windows"":true,""osname"":""Windows"",""osversion"":""10"",""a"":true}","9:16:3","1","4","Test_4","70","f","1","903.6000001430511","1920 x 1080","1920 x 1080","true","1","10","","","","",""
"null","<p style=""font-size: 80px;"">+ 10 points</p>","null","html-keyboard-response","188","874484","0.0-11.0-2.187","5b20d17f5e45c000012ac154","nw7b0p","MB","37","F","{""name"":""Chrome"",""chrome"":true,""version"":""106.0"",""blink"":true,""windows"":true,""osname"":""Windows"",""osversion"":""10"",""a"":true}","9:16:3","1","4","Test_2","70","f","1","858.2000000476837","1920 x 1080","1920 x 1080","true","1","10","","","","",""
"null","<p style=""font-size: 80px;"">+ 10 points</p>","null","html-keyboard-response","189","877283","0.0-11.0-2.188","5b20d17f5e45c000012ac154","nw7b0p","MB","37","F","{""name"":""Chrome"",""chrome"":true,""version"":""106.0"",""blink"":true,""windows"":true,""osname"":""Windows"",""osversion"":""10"",""a"":true}","9:16:3","1","4","Test_4","70","f","1","785.2999999523163","1920 x 1080","1920 x 1080","true","1","10","","","","",""
