"rt","stimulus","key_press","trial_type","trial_index","time_elapsed","internal_node_id","Prolific_ID","random_ID","initials","age","gender","pc_info","start_time","Phase","Rule","Stimulus","Response","CorrResp","Accuracy","ResponseTime","screen_resolution","window_resolution","focus","relevant","Points","responses","question_order","rev_check","butterfly_check","passed_practice"
"null","<p style=""font-size: 80px;"">+ 10 points</p>","null","html-keyboard-response","1","71024","0.0-7.0-2.0","5c2520f2f202160001f4c015","vpa4no","DO","40","m","{""name"":""Chrome"",""chrome"":true,""version"":""106.0"",""blink"":true,""windows"":true,""osname"":""Windows"",""osversion"":""10"",""a"":true}","9:20:43","0","1","Practice_3","70","f","1","2678.7000000001863","1280 x 720","1280 x 720","true","1","10","","","","",""
"null","<p style=""font-size: 80px;"">+ 10 points</p>","null","html-keyboard-response","2","75293","0.0-7.0-2.1","5c2520f2f202160001f4c015","vpa4no","DO","40","m","{""name"":""Chrome"",""chrome"":true,""version"":""106.0"",""blink"":true,""windows"":true,""osname"":""Windows"",""osversion"":""10"",""a"":true}","9:20:43","0","1","Practice_3","70","f","1","2237","1280 x 720","1280 x 720","true","1","10","","","","",""
"null","<p style=""font-size: 80px;"">+ 10 points</p>","null","html-keyboard-response","3","78208","0.0-7.0-2.2","5c2520f2f202160001f4c015","vpa4no","DO","40","m","{""name"":""Chrome"",""chrome"":true,""version"":""106.0"",""blink"":true,""windows"":true,""osname"":""Windows"",""osversion"":""10"",""a"":true}","9:20:43","0","1","Practice_3","70","f","1","881.3999999999069","1280 x 720","1280 x 720","true","1","10","","","","",""
"null","<p style=""font-size: 80px;"">+ 10 points</p>","null","html-keyboard-response","4","83705","0.0-7.0-2.3","5c2520f2f202160001f4c015","vpa4no","DO","40","m","{""name"":""Chrome"",""chrome"":true,""version"":""106.0"",""blink"":true,""windows"":true,""osname"":""Windows"",""osversion"":""10"",""a"":true}","9:20:43","0","1","Practice_4","74","j","1","3450.5999999998603","1280 x 720","1280 x 720","true","1","10","","","","",""
"null","<p style=""font-size: 80px;"">+ 0 points</p>","null","html-keyboard-response","5","86451","0.0-7.0-2.4","5c2520f2f202160001f4c015","vpa4no","DO","40","m","{""name"":""Chrome"",""chrome"":true,""version"":""106.0"",""blink"":true,""windows"":true,""osname"":""Windows"",""osversion"":""10"",""a"":true}","9:20:43","0","1","Practice_1","74","f","0","725","1280 x 720","1280 x 720","true","1","0","","","","",""
"null","<p style=""font-size: 80px;"">+ 0 points</p>","null","html-keyboard-response","6","90000","0.0-7.0-2.5","5c2520f2f202160001f4c015","vpa4no","DO","40","m","{""name"":""Chrome"",""chrome"":true,""version"":""106.0"",""blink"":true,""windows"":true,""osname"":""Windows"",""osversion"":""10"",""a"":true}","9:20:43","0","1","Practice_2","70","j","0","1536","1280 x 720","1280 x 720","true","1","0","","","","",""
"null","<p style=""font-size: 80px;"">+ 10 points</p>","null","html-keyboard-response","7","93756","0.0-7.0-2.6","5c2520f2f202160001f4c015","vpa4no","DO","40","m","{""name"":""Chrome"",""chrome"":true,""version"":""106.0"",""blink"":true,""windows"":true,""osname"":""Windows"",""osversion"":""10"",""a"":true}","9:20:43","0","1","Practice_4","74","j","1","1727.1000000000931","1280 x 720","1280 x 720","true","1","10","","","","",""
"null","<p style=""font-size: 80px;"">+ 10 points</p>","null","html-keyboard-response","8","99626","0.0-7.0-2.7","5c2520f2f202160001f4c015","vpa4no","DO","40","m","{""name"":""Chrome"",""chrome"":true,""version"":""106.0"",""blink"":true,""windows"":true,""osname"":""Windows"",""osversion"":""10"",""a"":true}","9:20:43","0","1","Practice_2","74","j","1","3835.5999999998603","1280 x 720","1280 x 720","true","1","10","","","","",""
"null","<p style=""font-size: 80px;"">+ 10 points</p>","null","html-keyboard-response","9","102852","0.0-7.0-2.8","5c2520f2f202160001f4c015","vpa4no","DO","40","m","{""name"":""Chrome"",""chrome"":true,""version"":""106.0"",""blink"":true,""windows"":true,""osname"":""Windows"",""osversion"":""10"",""a"":true}","9:20:43","0","1","Practice_3","70","f","1","1211.6000000000931","1280 x 720","1280 x 720","true","1","10","","","","",""
"null","<p style=""font-size: 80px;"">+ 10 points</p>","null","html-keyboard-response","10","106094","0.0-7.0-2.9","5c2520f2f202160001f4c015","vpa4no","DO","40","m","{""name"":""Chrome"",""chrome"":true,""version"":""106.0"",""blink"":true,""windows"":true,""osname"":""Windows"",""osversion"":""10"",""a"":true}","9:20:43","0","1","Practice_2","74","j","1","1222.5","1280 x 720","1280 x 720","true","1","10","","","","",""
"null","<p style=""font-size: 80px;"">+ 0 points</p>","null","html-keyboard-response","11","109346","0.0-7.0-2.10","5c2520f2f202160001f4c015","vpa4no","DO","40","m","{""name"":""Chrome"",""chrome"":true,""version"":""106.0"",""blink"":true,""windows"":true,""osname"":""Windows"",""osversion"":""10"",""a"":true}","9:20:43","0","1","Practice_4","70","j","0","1230.5","1280 x 720","1280 x 720","true","1","0","","","","",""
"null","<p style=""font-size: 80px;"">+ 0 points</p>","null","html-keyboard-response","12","112058","0.0-7.0-2.11","5c2520f2f202160001f4c015","vpa4no","DO","40","m","{""name"":""Chrome"",""chrome"":true,""version"":""106.0"",""blink"":true,""windows"":true,""osname"":""Windows"",""osversion"":""10"",""a"":true}","9:20:43","0","1","Practice_2","70","j","0","692.5999999998603","1280 x 720","1280 x 720","true","1","0","","","","",""
"null","<p style=""font-size: 80px;"">+ 0 points</p>","null","html-keyboard-response","13","114902","0.0-7.0-2.12","5c2520f2f202160001f4c015","vpa4no","DO","40","m","{""name"":""Chrome"",""chrome"":true,""version"":""106.0"",""blink"":true,""windows"":true,""osname"":""Windows"",""osversion"":""10"",""a"":true}","9:20:43","0","1","Practice_1","74","f","0","820.9000000001397","1280 x 720","1280 x 720","true","1","0","","","","",""
"null","<p style=""font-size: 80px;"">+ 10 points</p>","null","html-keyboard-response","14","117642","0.0-7.0-2.13","5c2520f2f202160001f4c015","vpa4no","DO","40","m","{""name"":""Chrome"",""chrome"":true,""version"":""106.0"",""blink"":true,""windows"":true,""osname"":""Windows"",""osversion"":""10"",""a"":true}","9:20:43","0","1","Practice_1","70","f","1","718","1280 x 720","1280 x 720","true","1","10","","","","",""
"null","<p style=""font-size: 80px;"">+ 10 points</p>","null","html-keyboard-response","15","120910","0.0-7.0-2.14","5c2520f2f202160001f4c015","vpa4no","DO","40","m","{""name"":""Chrome"",""chrome"":true,""version"":""106.0"",""blink"":true,""windows"":true,""osname"":""Windows"",""osversion"":""10"",""a"":true}","9:20:43","0","1","Practice_4","74","j","1","1249.5999999998603","1280 x 720","1280 x 720","true","1","10","","","","",""
"null","<p style=""font-size: 80px;"">+ 10 points</p>","null","html-keyboard-response","16","127005","0.0-7.0-2.15","5c2520f2f202160001f4c015","vpa4no","DO","40","m","{""name"":""Chrome"",""chrome"":true,""version"":""106.0"",""blink"":true,""windows"":true,""osname"":""Windows"",""osversion"":""10"",""a"":true}","9:20:43","0","1","Practice_1","70","f","1","4077.5","1280 x 720","1280 x 720","true","1","10","","","","",""
"null","<p style=""font-size: 80px;"">+ 10 points</p>","null","html-keyboard-response","17","129894","0.0-7.0-2.16","5c2520f2f202160001f4c015","vpa4no","DO","40","m","{""name"":""Chrome"",""chrome"":true,""version"":""106.0"",""blink"":true,""windows"":true,""osname"":""Windows"",""osversion"":""10"",""a"":true}","9:20:43","0","1","Practice_4","74","j","1","877.0999999998603","1280 x 720","1280 x 720","true","1","10","","","","",""
"null","<p style=""font-size: 80px;"">+ 10 points</p>","null","html-keyboard-response","18","133532","0.0-7.0-2.17","5c2520f2f202160001f4c015","vpa4no","DO","40","m","{""name"":""Chrome"",""chrome"":true,""version"":""106.0"",""blink"":true,""windows"":true,""osname"":""Windows"",""osversion"":""10"",""a"":true}","9:20:43","0","1","Practice_2","74","j","1","1623.3000000000466","1280 x 720","1280 x 720","true","1","10","","","","",""
"null","<p style=""font-size: 80px;"">+ 0 points</p>","null","html-keyboard-response","19","136604","0.0-7.0-2.18","5c2520f2f202160001f4c015","vpa4no","DO","40","m","{""name"":""Chrome"",""chrome"":true,""version"":""106.0"",""blink"":true,""windows"":true,""osname"":""Windows"",""osversion"":""10"",""a"":true}","9:20:43","0","1","Practice_1","74","f","0","1058.3000000000466","1280 x 720","1280 x 720","true","1","0","","","","",""
"null","<p style=""font-size: 80px;"">+ 0 points</p>","null","html-keyboard-response","20","140274","0.0-7.0-2.19","5c2520f2f202160001f4c015","vpa4no","DO","40","m","{""name"":""Chrome"",""chrome"":true,""version"":""106.0"",""blink"":true,""windows"":true,""osname"":""Windows"",""osversion"":""10"",""a"":true}","9:20:43","0","1","Practice_3","74","f","0","1663.1000000000931","1280 x 720","1280 x 720","true","1","0","","","","",""
"null","<p style=""font-size: 80px;"">+ 0 points</p>","null","html-keyboard-response","21","143744","0.0-7.0-2.20","5c2520f2f202160001f4c015","vpa4no","DO","40","m","{""name"":""Chrome"",""chrome"":true,""version"":""106.0"",""blink"":true,""windows"":true,""osname"":""Windows"",""osversion"":""10"",""a"":true}","9:20:43","0","2","Practice_2","74","f","0","1442.6999999999534","1280 x 720","1280 x 720","true","1","0","","","","",""
"null","<p style=""font-size: 80px;"">+ 0 points</p>","null","html-keyboard-response","22","146574","0.0-7.0-2.21","5c2520f2f202160001f4c015","vpa4no","DO","40","m","{""name"":""Chrome"",""chrome"":true,""version"":""106.0"",""blink"":true,""windows"":true,""osname"":""Windows"",""osversion"":""10"",""a"":true}","9:20:43","0","2","Practice_3","70","j","0","805.0999999998603","1280 x 720","1280 x 720","true","1","0","","","","",""
"null","<p style=""font-size: 80px;"">+ 10 points</p>","null","html-keyboard-response","23","149980","0.0-7.0-2.22","5c2520f2f202160001f4c015","vpa4no","DO","40","m","{""name"":""Chrome"",""chrome"":true,""version"":""106.0"",""blink"":true,""windows"":true,""osname"":""Windows"",""osversion"":""10"",""a"":true}","9:20:43","0","2","Practice_2","70","f","1","1374.3999999999069","1280 x 720","1280 x 720","true","1","10","","","","",""
"null","<p style=""font-size: 80px;"">+ 10 points</p>","null","html-keyboard-response","24","153000","0.0-7.0-2.23","5c2520f2f202160001f4c015","vpa4no","DO","40","m","{""name"":""Chrome"",""chrome"":true,""version"":""106.0"",""blink"":true,""windows"":true,""osname"":""Windows"",""osversion"":""10"",""a"":true}","9:20:43","0","2","Practice_3","74","j","1","989.8999999999069","1280 x 720","1280 x 720","true","1","10","","","","",""
"null","<p style=""font-size: 80px;"">+ 0 points</p>","null","html-keyboard-response","25","156143","0.0-7.0-2.24","5c2520f2f202160001f4c015","vpa4no","DO","40","m","{""name"":""Chrome"",""chrome"":true,""version"":""106.0"",""blink"":true,""windows"":true,""osname"":""Windows"",""osversion"":""10"",""a"":true}","9:20:43","0","2","Practice_1","70","j","0","1121.3000000000466","1280 x 720","1280 x 720","true","1","0","","","","",""
"null","<p style=""font-size: 80px;"">+ 10 points</p>","null","html-keyboard-response","26","158587","0.0-7.0-2.25","5c2520f2f202160001f4c015","vpa4no","DO","40","m","{""name"":""Chrome"",""chrome"":true,""version"":""106.0"",""blink"":true,""windows"":true,""osname"":""Windows"",""osversion"":""10"",""a"":true}","9:20:43","0","2","Practice_4","70","f","1","416.60000000009313","1280 x 720","1280 x 720","true","1","10","","","","",""
"null","<p style=""font-size: 80px;"">+ 10 points</p>","null","html-keyboard-response","27","161941","0.0-7.0-2.26","5c2520f2f202160001f4c015","vpa4no","DO","40","m","{""name"":""Chrome"",""chrome"":true,""version"":""106.0"",""blink"":true,""windows"":true,""osname"":""Windows"",""osversion"":""10"",""a"":true}","9:20:43","0","2","Practice_1","74","j","1","1340.5999999998603","1280 x 720","1280 x 720","true","1","10","","","","",""
"null","<p style=""font-size: 80px;"">+ 10 points</p>","null","html-keyboard-response","28","165245","0.0-7.0-2.27","5c2520f2f202160001f4c015","vpa4no","DO","40","m","{""name"":""Chrome"",""chrome"":true,""version"":""106.0"",""blink"":true,""windows"":true,""osname"":""Windows"",""osversion"":""10"",""a"":true}","9:20:43","0","2","Practice_4","70","f","1","1279.9000000001397","1280 x 720","1280 x 720","true","1","10","","","","",""
"null","<p style=""font-size: 80px;"">+ 10 points</p>","null","html-keyboard-response","29","171658","0.0-7.0-2.28","5c2520f2f202160001f4c015","vpa4no","DO","40","m","{""name"":""Chrome"",""chrome"":true,""version"":""106.0"",""blink"":true,""windows"":true,""osname"":""Windows"",""osversion"":""10"",""a"":true}","9:20:43","0","2","Practice_2","70","f","1","4392.699999999953","1280 x 720","1280 x 720","true","1","10","","","","",""
"null","<p style=""font-size: 80px;"">+ 10 points</p>","null","html-keyboard-response","30","174121","0.0-7.0-2.29","5c2520f2f202160001f4c015","vpa4no","DO","40","m","{""name"":""Chrome"",""chrome"":true,""version"":""106.0"",""blink"":true,""windows"":true,""osname"":""Windows"",""osversion"":""10"",""a"":true}","9:20:43","0","2","Practice_2","70","f","1","433.60000000009313","1280 x 720","1280 x 720","true","1","10","","","","",""
"null","<p style=""font-size: 80px;"">+ 10 points</p>","null","html-keyboard-response","31","178489","0.0-7.0-2.30","5c2520f2f202160001f4c015","vpa4no","DO","40","m","{""name"":""Chrome"",""chrome"":true,""version"":""106.0"",""blink"":true,""windows"":true,""osname"":""Windows"",""osversion"":""10"",""a"":true}","9:20:43","0","2","Practice_1","74","j","1","2338.7999999998137","1280 x 720","1280 x 720","true","1","10","","","","",""
"null","<p style=""font-size: 80px;"">+ 10 points</p>","null","html-keyboard-response","32","181354","0.0-7.0-2.31","5c2520f2f202160001f4c015","vpa4no","DO","40","m","{""name"":""Chrome"",""chrome"":true,""version"":""106.0"",""blink"":true,""windows"":true,""osname"":""Windows"",""osversion"":""10"",""a"":true}","9:20:43","0","2","Practice_4","70","f","1","849.9000000001397","1280 x 720","1280 x 720","true","1","10","","","","",""
"null","<p style=""font-size: 80px;"">+ 0 points</p>","null","html-keyboard-response","33","183773","0.0-7.0-2.32","5c2520f2f202160001f4c015","vpa4no","DO","40","m","{""name"":""Chrome"",""chrome"":true,""version"":""106.0"",""blink"":true,""windows"":true,""osname"":""Windows"",""osversion"":""10"",""a"":true}","9:20:43","0","2","Practice_3","70","j","0","408","1280 x 720","1280 x 720","true","1","0","","","","",""
"null","<p style=""font-size: 80px;"">+ 0 points</p>","null","html-keyboard-response","34","186232","0.0-7.0-2.33","5c2520f2f202160001f4c015","vpa4no","DO","40","m","{""name"":""Chrome"",""chrome"":true,""version"":""106.0"",""blink"":true,""windows"":true,""osname"":""Windows"",""osversion"":""10"",""a"":true}","9:20:43","0","2","Practice_4","74","f","0","412.89999999990687","1280 x 720","1280 x 720","true","1","0","","","","",""
"null","<p style=""font-size: 80px;"">+ 10 points</p>","null","html-keyboard-response","35","188944","0.0-7.0-2.34","5c2520f2f202160001f4c015","vpa4no","DO","40","m","{""name"":""Chrome"",""chrome"":true,""version"":""106.0"",""blink"":true,""windows"":true,""osname"":""Windows"",""osversion"":""10"",""a"":true}","9:20:43","0","2","Practice_4","70","f","1","699.4000000001397","1280 x 720","1280 x 720","true","1","10","","","","",""
"null","<p style=""font-size: 80px;"">+ 0 points</p>","null","html-keyboard-response","36","191944","0.0-7.0-2.35","5c2520f2f202160001f4c015","vpa4no","DO","40","m","{""name"":""Chrome"",""chrome"":true,""version"":""106.0"",""blink"":true,""windows"":true,""osname"":""Windows"",""osversion"":""10"",""a"":true}","9:20:43","0","2","Practice_3","70","j","0","984.3999999999069","1280 x 720","1280 x 720","true","1","0","","","","",""
"null","<p style=""font-size: 80px;"">+ 0 points</p>","null","html-keyboard-response","37","195499","0.0-7.0-2.36","5c2520f2f202160001f4c015","vpa4no","DO","40","m","{""name"":""Chrome"",""chrome"":true,""version"":""106.0"",""blink"":true,""windows"":true,""osname"":""Windows"",""osversion"":""10"",""a"":true}","9:20:43","0","2","Practice_1","70","j","0","1536.6000000000931","1280 x 720","1280 x 720","true","1","0","","","","",""
"null","<p style=""font-size: 80px;"">+ 10 points</p>","null","html-keyboard-response","38","197923","0.0-7.0-2.37","5c2520f2f202160001f4c015","vpa4no","DO","40","m","{""name"":""Chrome"",""chrome"":true,""version"":""106.0"",""blink"":true,""windows"":true,""osname"":""Windows"",""osversion"":""10"",""a"":true}","9:20:43","0","2","Practice_1","74","j","1","404.29999999981374","1280 x 720","1280 x 720","true","1","10","","","","",""
"null","<p style=""font-size: 80px;"">+ 0 points</p>","null","html-keyboard-response","39","200587","0.0-7.0-2.38","5c2520f2f202160001f4c015","vpa4no","DO","40","m","{""name"":""Chrome"",""chrome"":true,""version"":""106.0"",""blink"":true,""windows"":true,""osname"":""Windows"",""osversion"":""10"",""a"":true}","9:20:43","0","2","Practice_3","70","j","0","648.3000000000466","1280 x 720","1280 x 720","true","1","0","","","","",""
"null","<p style=""font-size: 80px;"">+ 0 points</p>","null","html-keyboard-response","40","203614","0.0-7.0-2.39","5c2520f2f202160001f4c015","vpa4no","DO","40","m","{""name"":""Chrome"",""chrome"":true,""version"":""106.0"",""blink"":true,""windows"":true,""osname"":""Windows"",""osversion"":""10"",""a"":true}","9:20:43","0","2","Practice_2","74","f","0","988.1000000000931","1280 x 720","1280 x 720","true","1","0","","","","",""
"16759","","","survey-multi-choice","127","220376","0.0-8.0","5c2520f2f202160001f4c015","vpa4no","DO","40","m","{""name"":""Chrome"",""chrome"":true,""version"":""106.0"",""blink"":true,""windows"":true,""osname"":""Windows"",""osversion"":""10"",""a"":true}","9:20:43","","","","","","","","","","","1","","{""Q0"":""The green one"",""Q1"":""5""}","[0,1]","5","The green one","0"
"null","<p style=""font-size: 80px;"">+ 10 points</p>","null","html-keyboard-response","1","287710","0.0-9.0-1.0-2.0","5c2520f2f202160001f4c015","vpa4no","DO","40","m","{""name"":""Chrome"",""chrome"":true,""version"":""106.0"",""blink"":true,""windows"":true,""osname"":""Windows"",""osversion"":""10"",""a"":true}","9:20:43","0","1","Practice_3","70","f","1","2381.399999999907","1280 x 720","1280 x 720","true","1","10","","","","",""
"null","<p style=""font-size: 80px;"">+ 10 points</p>","null","html-keyboard-response","2","290480","0.0-9.0-1.0-2.1","5c2520f2f202160001f4c015","vpa4no","DO","40","m","{""name"":""Chrome"",""chrome"":true,""version"":""106.0"",""blink"":true,""windows"":true,""osname"":""Windows"",""osversion"":""10"",""a"":true}","9:20:43","0","1","Practice_3","70","f","1","749.4000000001397","1280 x 720","1280 x 720","true","1","10","","","","",""
"null","<p style=""font-size: 80px;"">+ 10 points</p>","null","html-keyboard-response","3","293220","0.0-9.0-1.0-2.2","5c2520f2f202160001f4c015","vpa4no","DO","40","m","{""name"":""Chrome"",""chrome"":true,""version"":""106.0"",""blink"":true,""windows"":true,""osname"":""Windows"",""osversion"":""10"",""a"":true}","9:20:43","0","1","Practice_3","70","f","1","701.3000000000466","1280 x 720","1280 x 720","true","1","10","","","","",""
"null","<p style=""font-size: 80px;"">+ 10 points</p>","null","html-keyboard-response","4","296496","0.0-9.0-1.0-2.3","5c2520f2f202160001f4c015","vpa4no","DO","40","m","{""name"":""Chrome"",""chrome"":true,""version"":""106.0"",""blink"":true,""windows"":true,""osname"":""Windows"",""osversion"":""10"",""a"":true}","9:20:43","0","1","Practice_4","74","j","1","1252.4000000001397","1280 x 720","1280 x 720","true","1","10","","","","",""
"null","<p style=""font-size: 80px;"">+ 10 points</p>","null","html-keyboard-response","5","299263","0.0-9.0-1.0-2.4","5c2520f2f202160001f4c015","vpa4no","DO","40","m","{""name"":""Chrome"",""chrome"":true,""version"":""106.0"",""blink"":true,""windows"":true,""osname"":""Windows"",""osversion"":""10"",""a"":true}","9:20:43","0","1","Practice_1","70","f","1","734.3999999999069","1280 x 720","1280 x 720","true","1","10","","","","",""
"null","<p style=""font-size: 80px;"">+ 10 points</p>","null","html-keyboard-response","6","303076","0.0-9.0-1.0-2.5","5c2520f2f202160001f4c015","vpa4no","DO","40","m","{""name"":""Chrome"",""chrome"":true,""version"":""106.0"",""blink"":true,""windows"":true,""osname"":""Windows"",""osversion"":""10"",""a"":true}","9:20:43","0","1","Practice_2","74","j","1","1775.2999999998137","1280 x 720","1280 x 720","true","1","10","","","","",""
"null","<p style=""font-size: 80px;"">+ 0 points</p>","null","html-keyboard-response","7","305620","0.0-9.0-1.0-2.6","5c2520f2f202160001f4c015","vpa4no","DO","40","m","{""name"":""Chrome"",""chrome"":true,""version"":""106.0"",""blink"":true,""windows"":true,""osname"":""Windows"",""osversion"":""10"",""a"":true}","9:20:43","0","1","Practice_4","70","j","0","527.5","1280 x 720","1280 x 720","true","1","0","","","","",""
"null","<p style=""font-size: 80px;"">+ 10 points</p>","null","html-keyboard-response","8","309369","0.0-9.0-1.0-2.7","5c2520f2f202160001f4c015","vpa4no","DO","40","m","{""name"":""Chrome"",""chrome"":true,""version"":""106.0"",""blink"":true,""windows"":true,""osname"":""Windows"",""osversion"":""10"",""a"":true}","9:20:43","0","1","Practice_2","74","j","1","1737.6999999999534","1280 x 720","1280 x 720","true","1","10","","","","",""
"null","<p style=""font-size: 80px;"">+ 10 points</p>","null","html-keyboard-response","9","312362","0.0-9.0-1.0-2.8","5c2520f2f202160001f4c015","vpa4no","DO","40","m","{""name"":""Chrome"",""chrome"":true,""version"":""106.0"",""blink"":true,""windows"":true,""osname"":""Windows"",""osversion"":""10"",""a"":true}","9:20:43","0","1","Practice_3","70","f","1","961.5999999998603","1280 x 720","1280 x 720","true","1","10","","","","",""
"null","<p style=""font-size: 80px;"">+ 10 points</p>","null","html-keyboard-response","10","316013","0.0-9.0-1.0-2.9","5c2520f2f202160001f4c015","vpa4no","DO","40","m","{""name"":""Chrome"",""chrome"":true,""version"":""106.0"",""blink"":true,""windows"":true,""osname"":""Windows"",""osversion"":""10"",""a"":true}","9:20:43","0","1","Practice_2","74","j","1","1634.6999999999534","1280 x 720","1280 x 720","true","1","10","","","","",""
"null","<p style=""font-size: 80px;"">+ 10 points</p>","null","html-keyboard-response","11","319280","0.0-9.0-1.0-2.10","5c2520f2f202160001f4c015","vpa4no","DO","40","m","{""name"":""Chrome"",""chrome"":true,""version"":""106.0"",""blink"":true,""windows"":true,""osname"":""Windows"",""osversion"":""10"",""a"":true}","9:20:43","0","1","Practice_4","74","j","1","1239.5","1280 x 720","1280 x 720","true","1","10","","","","",""
"null","<p style=""font-size: 80px;"">+ 10 points</p>","null","html-keyboard-response","12","324066","0.0-9.0-1.0-2.11","5c2520f2f202160001f4c015","vpa4no","DO","40","m","{""name"":""Chrome"",""chrome"":true,""version"":""106.0"",""blink"":true,""windows"":true,""osname"":""Windows"",""osversion"":""10"",""a"":true}","9:20:43","0","1","Practice_2","74","j","1","2777.9000000001397","1280 x 720","1280 x 720","true","1","10","","","","",""
"null","<p style=""font-size: 80px;"">+ 10 points</p>","null","html-keyboard-response","13","327614","0.0-9.0-1.0-2.12","5c2520f2f202160001f4c015","vpa4no","DO","40","m","{""name"":""Chrome"",""chrome"":true,""version"":""106.0"",""blink"":true,""windows"":true,""osname"":""Windows"",""osversion"":""10"",""a"":true}","9:20:43","0","1","Practice_1","70","f","1","1524.1999999999534","1280 x 720","1280 x 720","true","1","10","","","","",""
"null","<p style=""font-size: 80px;"">+ 10 points</p>","null","html-keyboard-response","14","330258","0.0-9.0-1.0-2.13","5c2520f2f202160001f4c015","vpa4no","DO","40","m","{""name"":""Chrome"",""chrome"":true,""version"":""106.0"",""blink"":true,""windows"":true,""osname"":""Windows"",""osversion"":""10"",""a"":true}","9:20:43","0","1","Practice_1","70","f","1","612.8999999999069","1280 x 720","1280 x 720","true","1","10","","","","",""
"null","<p style=""font-size: 80px;"">+ 10 points</p>","null","html-keyboard-response","15","334178","0.0-9.0-1.0-2.14","5c2520f2f202160001f4c015","vpa4no","DO","40","m","{""name"":""Chrome"",""chrome"":true,""version"":""106.0"",""blink"":true,""windows"":true,""osname"":""Windows"",""osversion"":""10"",""a"":true}","9:20:43","0","1","Practice_4","74","j","1","1904.5","1280 x 720","1280 x 720","true","1","10","","","","",""
"null","<p style=""font-size: 80px;"">+ 10 points</p>","null","html-keyboard-response","16","336952","0.0-9.0-1.0-2.15","5c2520f2f202160001f4c015","vpa4no","DO","40","m","{""name"":""Chrome"",""chrome"":true,""version"":""106.0"",""blink"":true,""windows"":true,""osname"":""Windows"",""osversion"":""10"",""a"":true}","9:20:43","0","1","Practice_1","70","f","1","738.8000000000466","1280 x 720","1280 x 720","true","1","10","","","","",""
"null","<p style=""font-size: 80px;"">+ 10 points</p>","null","html-keyboard-response","17","340050","0.0-9.0-1.0-2.16","5c2520f2f202160001f4c015","vpa4no","DO","40","m","{""name"":""Chrome"",""chrome"":true,""version"":""106.0"",""blink"":true,""windows"":true,""osname"":""Windows"",""osversion"":""10"",""a"":true}","9:20:43","0","1","Practice_4","74","j","1","1081","1280 x 720","1280 x 720","true","1","10","","","","",""
"null","<p style=""font-size: 80px;"">+ 10 points</p>","null","html-keyboard-response","18","343210","0.0-9.0-1.0-2.17","5c2520f2f202160001f4c015","vpa4no","DO","40","m","{""name"":""Chrome"",""chrome"":true,""version"":""106.0"",""blink"":true,""windows"":true,""osname"":""Windows"",""osversion"":""10"",""a"":true}","9:20:43","0","1","Practice_2","74","j","1","1139.3000000000466","1280 x 720","1280 x 720","true","1","10","","","","",""
"null","<p style=""font-size: 80px;"">+ 10 points</p>","null","html-keyboard-response","19","346114","0.0-9.0-1.0-2.18","5c2520f2f202160001f4c015","vpa4no","DO","40","m","{""name"":""Chrome"",""chrome"":true,""version"":""106.0"",""blink"":true,""windows"":true,""osname"":""Windows"",""osversion"":""10"",""a"":true}","9:20:43","0","1","Practice_1","70","f","1","878.5","1280 x 720","1280 x 720","true","1","10","","","","",""
"null","<p style=""font-size: 80px;"">+ 10 points</p>","null","html-keyboard-response","20","349352","0.0-9.0-1.0-2.19","5c2520f2f202160001f4c015","vpa4no","DO","40","m","{""name"":""Chrome"",""chrome"":true,""version"":""106.0"",""blink"":true,""windows"":true,""osname"":""Windows"",""osversion"":""10"",""a"":true}","9:20:43","0","1","Practice_3","70","f","1","1212.6000000000931","1280 x 720","1280 x 720","true","1","10","","","","",""
"null","<p style=""font-size: 80px;"">+ 0 points</p>","null","html-keyboard-response","21","352288","0.0-9.0-1.0-2.20","5c2520f2f202160001f4c015","vpa4no","DO","40","m","{""name"":""Chrome"",""chrome"":true,""version"":""106.0"",""blink"":true,""windows"":true,""osname"":""Windows"",""osversion"":""10"",""a"":true}","9:20:43","0","2","Practice_2","74","f","0","926.8000000000466","1280 x 720","1280 x 720","true","1","0","","","","",""
"null","<p style=""font-size: 80px;"">+ 10 points</p>","null","html-keyboard-response","22","355758","0.0-9.0-1.0-2.21","5c2520f2f202160001f4c015","vpa4no","DO","40","m","{""name"":""Chrome"",""chrome"":true,""version"":""106.0"",""blink"":true,""windows"":true,""osname"":""Windows"",""osversion"":""10"",""a"":true}","9:20:43","0","2","Practice_3","74","j","1","1435.9000000001397","1280 x 720","1280 x 720","true","1","10","","","","",""
"null","<p style=""font-size: 80px;"">+ 10 points</p>","null","html-keyboard-response","23","359973","0.0-9.0-1.0-2.22","5c2520f2f202160001f4c015","vpa4no","DO","40","m","{""name"":""Chrome"",""chrome"":true,""version"":""106.0"",""blink"":true,""windows"":true,""osname"":""Windows"",""osversion"":""10"",""a"":true}","9:20:43","0","2","Practice_2","70","f","1","2189.8000000000466","1280 x 720","1280 x 720","true","1","10","","","","",""
"null","<p style=""font-size: 80px;"">+ 10 points</p>","null","html-keyboard-response","24","364782","0.0-9.0-1.0-2.23","5c2520f2f202160001f4c015","vpa4no","DO","40","m","{""name"":""Chrome"",""chrome"":true,""version"":""106.0"",""blink"":true,""windows"":true,""osname"":""Windows"",""osversion"":""10"",""a"":true}","9:20:43","0","2","Practice_3","74","j","1","2794","1280 x 720","1280 x 720","true","1","10","","","","",""
"null","<p style=""font-size: 80px;"">+ 0 points</p>","null","html-keyboard-response","25","367942","0.0-9.0-1.0-2.24","5c2520f2f202160001f4c015","vpa4no","DO","40","m","{""name"":""Chrome"",""chrome"":true,""version"":""106.0"",""blink"":true,""windows"":true,""osname"":""Windows"",""osversion"":""10"",""a"":true}","9:20:43","0","2","Practice_1","70","j","0","1148.8999999999069","1280 x 720","1280 x 720","true","1","0","","","","",""
"null","<p style=""font-size: 80px;"">+ 10 points</p>","null","html-keyboard-response","26","371469","0.0-9.0-1.0-2.25","5c2520f2f202160001f4c015","vpa4no","DO","40","m","{""name"":""Chrome"",""chrome"":true,""version"":""106.0"",""blink"":true,""windows"":true,""osname"":""Windows"",""osversion"":""10"",""a"":true}","9:20:43","0","2","Practice_4","70","f","1","1499.5","1280 x 720","1280 x 720","true","1","10","","","","",""
"null","<p style=""font-size: 80px;"">+ 0 points</p>","null","html-keyboard-response","27","377412","0.0-9.0-1.0-2.26","5c2520f2f202160001f4c015","vpa4no","DO","40","m","{""name"":""Chrome"",""chrome"":true,""version"":""106.0"",""blink"":true,""windows"":true,""osname"":""Windows"",""osversion"":""10"",""a"":true}","9:20:43","0","2","Practice_1","70","j","0","3924.8000000000466","1280 x 720","1280 x 720","true","1","0","","","","",""
"null","<p style=""font-size: 80px;"">+ 10 points</p>","null","html-keyboard-response","28","380502","0.0-9.0-1.0-2.27","5c2520f2f202160001f4c015","vpa4no","DO","40","m","{""name"":""Chrome"",""chrome"":true,""version"":""106.0"",""blink"":true,""windows"":true,""osname"":""Windows"",""osversion"":""10"",""a"":true}","9:20:43","0","2","Practice_4","70","f","1","1061.9000000001397","1280 x 720","1280 x 720","true","1","10","","","","",""
"null","<p style=""font-size: 80px;"">+ 0 points</p>","null","html-keyboard-response","29","383325","0.0-9.0-1.0-2.28","5c2520f2f202160001f4c015","vpa4no","DO","40","m","{""name"":""Chrome"",""chrome"":true,""version"":""106.0"",""blink"":true,""windows"":true,""osname"":""Windows"",""osversion"":""10"",""a"":true}","9:20:43","0","2","Practice_2","74","f","0","794.6000000000931","1280 x 720","1280 x 720","true","1","0","","","","",""
"null","<p style=""font-size: 80px;"">+ 10 points</p>","null","html-keyboard-response","30","387615","0.0-9.0-1.0-2.29","5c2520f2f202160001f4c015","vpa4no","DO","40","m","{""name"":""Chrome"",""chrome"":true,""version"":""106.0"",""blink"":true,""windows"":true,""osname"":""Windows"",""osversion"":""10"",""a"":true}","9:20:43","0","2","Practice_2","70","f","1","2268.1999999999534","1280 x 720","1280 x 720","true","1","10","","","","",""
"null","<p style=""font-size: 80px;"">+ 0 points</p>","null","html-keyboard-response","31","390529","0.0-9.0-1.0-2.30","5c2520f2f202160001f4c015","vpa4no","DO","40","m","{""name"":""Chrome"",""chrome"":true,""version"":""106.0"",""blink"":true,""windows"":true,""osname"":""Windows"",""osversion"":""10"",""a"":true}","9:20:43","0","2","Practice_1","70","j","0","898","1280 x 720","1280 x 720","true","1","0","","","","",""
"null","<p style=""font-size: 80px;"">+ 10 points</p>","null","html-keyboard-response","32","393234","0.0-9.0-1.0-2.31","5c2520f2f202160001f4c015","vpa4no","DO","40","m","{""name"":""Chrome"",""chrome"":true,""version"":""106.0"",""blink"":true,""windows"":true,""osname"":""Windows"",""osversion"":""10"",""a"":true}","9:20:43","0","2","Practice_4","70","f","1","672.5","1280 x 720","1280 x 720","true","1","10","","","","",""
"null","<p style=""font-size: 80px;"">+ 0 points</p>","null","html-keyboard-response","33","396477","0.0-9.0-1.0-2.32","5c2520f2f202160001f4c015","vpa4no","DO","40","m","{""name"":""Chrome"",""chrome"":true,""version"":""106.0"",""blink"":true,""windows"":true,""osname"":""Windows"",""osversion"":""10"",""a"":true}","9:20:43","0","2","Practice_3","70","j","0","1225.1999999999534","1280 x 720","1280 x 720","true","1","0","","","","",""
"null","<p style=""font-size: 80px;"">+ 0 points</p>","null","html-keyboard-response","34","400152","0.0-9.0-1.0-2.33","5c2520f2f202160001f4c015","vpa4no","DO","40","m","{""name"":""Chrome"",""chrome"":true,""version"":""106.0"",""blink"":true,""windows"":true,""osname"":""Windows"",""osversion"":""10"",""a"":true}","9:20:43","0","2","Practice_4","74","f","0","1655.7999999998137","1280 x 720","1280 x 720","true","1","0","","","","",""
"null","<p style=""font-size: 80px;"">+ 10 points</p>","null","html-keyboard-response","35","403095","0.0-9.0-1.0-2.34","5c2520f2f202160001f4c015","vpa4no","DO","40","m","{""name"":""Chrome"",""chrome"":true,""version"":""106.0"",""blink"":true,""windows"":true,""osname"":""Windows"",""osversion"":""10"",""a"":true}","9:20:43","0","2","Practice_4","70","f","1","929.1000000000931","1280 x 720","1280 x 720","true","1","10","","","","",""
"null","<p style=""font-size: 80px;"">+ 0 points</p>","null","html-keyboard-response","36","405989","0.0-9.0-1.0-2.35","5c2520f2f202160001f4c015","vpa4no","DO","40","m","{""name"":""Chrome"",""chrome"":true,""version"":""106.0"",""blink"":true,""windows"":true,""osname"":""Windows"",""osversion"":""10"",""a"":true}","9:20:43","0","2","Practice_3","70","j","0","863.8000000000466","1280 x 720","1280 x 720","true","1","0","","","","",""
"null","<p style=""font-size: 80px;"">+ 0 points</p>","null","html-keyboard-response","37","409135","0.0-9.0-1.0-2.36","5c2520f2f202160001f4c015","vpa4no","DO","40","m","{""name"":""Chrome"",""chrome"":true,""version"":""106.0"",""blink"":true,""windows"":true,""osname"":""Windows"",""osversion"":""10"",""a"":true}","9:20:43","0","2","Practice_1","70","j","0","1124.8999999999069","1280 x 720","1280 x 720","true","1","0","","","","",""
"null","<p style=""font-size: 80px;"">+ 10 points</p>","null","html-keyboard-response","38","411755","0.0-9.0-1.0-2.37","5c2520f2f202160001f4c015","vpa4no","DO","40","m","{""name"":""Chrome"",""chrome"":true,""version"":""106.0"",""blink"":true,""windows"":true,""osname"":""Windows"",""osversion"":""10"",""a"":true}","9:20:43","0","2","Practice_1","74","j","1","588.3999999999069","1280 x 720","1280 x 720","true","1","10","","","","",""
"null","<p style=""font-size: 80px;"">+ 0 points</p>","null","html-keyboard-response","39","414906","0.0-9.0-1.0-2.38","5c2520f2f202160001f4c015","vpa4no","DO","40","m","{""name"":""Chrome"",""chrome"":true,""version"":""106.0"",""blink"":true,""windows"":true,""osname"":""Windows"",""osversion"":""10"",""a"":true}","9:20:43","0","2","Practice_3","70","j","0","1133.6999999999534","1280 x 720","1280 x 720","true","1","0","","","","",""
"null","<p style=""font-size: 80px;"">+ 10 points</p>","null","html-keyboard-response","40","418142","0.0-9.0-1.0-2.39","5c2520f2f202160001f4c015","vpa4no","DO","40","m","{""name"":""Chrome"",""chrome"":true,""version"":""106.0"",""blink"":true,""windows"":true,""osname"":""Windows"",""osversion"":""10"",""a"":true}","9:20:43","0","2","Practice_2","70","f","1","1211.6999999999534","1280 x 720","1280 x 720","true","1","10","","","","",""
"15263.300000000047","","","survey-multi-choice","249","433408","0.0-9.0-2.0","5c2520f2f202160001f4c015","vpa4no","DO","40","m","{""name"":""Chrome"",""chrome"":true,""version"":""106.0"",""blink"":true,""windows"":true,""osname"":""Windows"",""osversion"":""10"",""a"":true}","9:20:43","","","","","","","","","","","1","","{""Q0"":""The green one"",""Q1"":""1""}","[0,1]","1","The green one","1"
"null","<p style=""font-size: 80px;"">+ 0 points</p>","null","html-keyboard-response","1","452739","0.0-11.0-2.0","5c2520f2f202160001f4c015","vpa4no","DO","40","m","{""name"":""Chrome"",""chrome"":true,""version"":""106.0"",""blink"":true,""windows"":true,""osname"":""Windows"",""osversion"":""10"",""a"":true}","9:20:43","1","4","Test_2","74","f","0","3373.399999999907","1280 x 720","1280 x 720","true","1","0","","","","",""
"null","<p style=""font-size: 80px;"">+ 10 points</p>","null","html-keyboard-response","2","456397","0.0-11.0-2.1","5c2520f2f202160001f4c015","vpa4no","DO","40","m","{""name"":""Chrome"",""chrome"":true,""version"":""106.0"",""blink"":true,""windows"":true,""osname"":""Windows"",""osversion"":""10"",""a"":true}","9:20:43","1","4","Test_4","70","f","1","1645.5","1280 x 720","1280 x 720","true","1","10","","","","",""
"null","<p style=""font-size: 80px;"">+ 10 points</p>","null","html-keyboard-response","3","459700","0.0-11.0-2.2","5c2520f2f202160001f4c015","vpa4no","DO","40","m","{""name"":""Chrome"",""chrome"":true,""version"":""106.0"",""blink"":true,""windows"":true,""osname"":""Windows"",""osversion"":""10"",""a"":true}","9:20:43","1","4","Test_4","70","f","1","1285.1999999999534","1280 x 720","1280 x 720","true","1","10","","","","",""
"null","<p style=""font-size: 80px;"">+ 10 points</p>","null","html-keyboard-response","4","465264","0.0-11.0-2.3","5c2520f2f202160001f4c015","vpa4no","DO","40","m","{""name"":""Chrome"",""chrome"":true,""version"":""106.0"",""blink"":true,""windows"":true,""osname"":""Windows"",""osversion"":""10"",""a"":true}","9:20:43","1","4","Test_3","74","j","1","3530.5","1280 x 720","1280 x 720","true","1","10","","","","",""
"null","<p style=""font-size: 80px; line-height: 1.4em;"">Too late</br> Speed up!</p>","null","html-keyboard-response","5","472294","0.0-11.0-2.4","5c2520f2f202160001f4c015","vpa4no","DO","40","m","{""name"":""Chrome"",""chrome"":true,""version"":""106.0"",""blink"":true,""windows"":true,""osname"":""Windows"",""osversion"":""10"",""a"":true}","9:20:43","1","4","Test_3","null","j","0","null","1280 x 720","1280 x 720","true","1","0","","","","",""
"null","<p style=""font-size: 80px; line-height: 1.4em;"">Too late</br> Speed up!</p>","null","html-keyboard-response","6","479332","0.0-11.0-2.5","5c2520f2f202160001f4c015","vpa4no","DO","40","m","{""name"":""Chrome"",""chrome"":true,""version"":""106.0"",""blink"":true,""windows"":true,""osname"":""Windows"",""osversion"":""10"",""a"":true}","9:20:43","1","4","Test_1","null","j","0","null","1280 x 720","1280 x 720","true","1","0","","","","",""
"null","<p style=""font-size: 80px;"">+ 0 points</p>","null","html-keyboard-response","7","484207","0.0-11.0-2.6","5c2520f2f202160001f4c015","vpa4no","DO","40","m","{""name"":""Chrome"",""chrome"":true,""version"":""106.0"",""blink"":true,""windows"":true,""osname"":""Windows"",""osversion"":""10"",""a"":true}","9:20:43","1","4","Test_2","74","f","0","2855.5","1280 x 720","1280 x 720","true","1","0","","","","",""
"null","<p style=""font-size: 80px;"">+ 10 points</p>","null","html-keyboard-response","8","488886","0.0-11.0-2.7","5c2520f2f202160001f4c015","vpa4no","DO","40","m","{""name"":""Chrome"",""chrome"":true,""version"":""106.0"",""blink"":true,""windows"":true,""osname"":""Windows"",""osversion"":""10"",""a"":true}","9:20:43","1","4","Test_1","74","j","1","2660.6999999999534","1280 x 720","1280 x 720","true","1","10","","","","",""
"null","<p style=""font-size: 80px;"">+ 10 points</p>","null","html-keyboard-response","9","491833","0.0-11.0-2.8","5c2520f2f202160001f4c015","vpa4no","DO","40","m","{""name"":""Chrome"",""chrome"":true,""version"":""106.0"",""blink"":true,""windows"":true,""osname"":""Windows"",""osversion"":""10"",""a"":true}","9:20:43","1","4","Test_4","70","f","1","922.7999999998137","1280 x 720","1280 x 720","true","1","10","","","","",""
"null","<p style=""font-size: 80px;"">+ 10 points</p>","null","html-keyboard-response","10","494751","0.0-11.0-2.9","5c2520f2f202160001f4c015","vpa4no","DO","40","m","{""name"":""Chrome"",""chrome"":true,""version"":""106.0"",""blink"":true,""windows"":true,""osname"":""Windows"",""osversion"":""10"",""a"":true}","9:20:43","1","4","Test_4","70","f","1","900.3000000000466","1280 x 720","1280 x 720","true","1","10","","","","",""
"null","<p style=""font-size: 80px;"">+ 10 points</p>","null","html-keyboard-response","11","498238","0.0-11.0-2.10","5c2520f2f202160001f4c015","vpa4no","DO","40","m","{""name"":""Chrome"",""chrome"":true,""version"":""106.0"",""blink"":true,""windows"":true,""osname"":""Windows"",""osversion"":""10"",""a"":true}","9:20:43","1","4","Test_1","74","j","1","1465.9000000001397","1280 x 720","1280 x 720","true","1","10","","","","",""
"null","<p style=""font-size: 80px;"">+ 10 points</p>","null","html-keyboard-response","12","501980","0.0-11.0-2.11","5c2520f2f202160001f4c015","vpa4no","DO","40","m","{""name"":""Chrome"",""chrome"":true,""version"":""106.0"",""blink"":true,""windows"":true,""osname"":""Windows"",""osversion"":""10"",""a"":true}","9:20:43","1","4","Test_2","70","f","1","1720.5","1280 x 720","1280 x 720","true","1","10","","","","",""
"null","<p style=""font-size: 80px;"">+ 10 points</p>","null","html-keyboard-response","13","504721","0.0-11.0-2.12","5c2520f2f202160001f4c015","vpa4no","DO","40","m","{""name"":""Chrome"",""chrome"":true,""version"":""106.0"",""blink"":true,""windows"":true,""osname"":""Windows"",""osversion"":""10"",""a"":true}","9:20:43","1","4","Test_3","74","j","1","716.8000000000466","1280 x 720","1280 x 720","true","1","10","","","","",""
"null","<p style=""font-size: 80px;"">+ 0 points</p>","null","html-keyboard-response","14","507821","0.0-11.0-2.13","5c2520f2f202160001f4c015","vpa4no","DO","40","m","{""name"":""Chrome"",""chrome"":true,""version"":""106.0"",""blink"":true,""windows"":true,""osname"":""Windows"",""osversion"":""10"",""a"":true}","9:20:43","1","4","Test_2","74","f","0","1067.6999999999534","1280 x 720","1280 x 720","true","1","0","","","","",""
"null","<p style=""font-size: 80px;"">+ 10 points</p>","null","html-keyboard-response","15","511148","0.0-11.0-2.14","5c2520f2f202160001f4c015","vpa4no","DO","40","m","{""name"":""Chrome"",""chrome"":true,""version"":""106.0"",""blink"":true,""windows"":true,""osname"":""Windows"",""osversion"":""10"",""a"":true}","9:20:43","1","4","Test_3","74","j","1","1292.9000000001397","1280 x 720","1280 x 720","true","1","10","","","","",""
"null","<p style=""font-size: 80px;"">+ 10 points</p>","null","html-keyboard-response","16","514482","0.0-11.0-2.15","5c2520f2f202160001f4c015","vpa4no","DO","40","m","{""name"":""Chrome"",""chrome"":true,""version"":""106.0"",""blink"":true,""windows"":true,""osname"":""Windows"",""osversion"":""10"",""a"":true}","9:20:43","1","4","Test_1","74","j","1","1302.7000000001863","1280 x 720","1280 x 720","true","1","10","","","","",""
"null","<p style=""font-size: 80px;"">+ 10 points</p>","null","html-keyboard-response","17","518253","0.0-11.0-2.16","5c2520f2f202160001f4c015","vpa4no","DO","40","m","{""name"":""Chrome"",""chrome"":true,""version"":""106.0"",""blink"":true,""windows"":true,""osname"":""Windows"",""osversion"":""10"",""a"":true}","9:20:43","1","3","Test_3","70","f","1","1729.6999999999534","1280 x 720","1280 x 720","true","1","10","","","","",""
"null","<p style=""font-size: 80px;"">+ 10 points</p>","null","html-keyboard-response","18","521351","0.0-11.0-2.17","5c2520f2f202160001f4c015","vpa4no","DO","40","m","{""name"":""Chrome"",""chrome"":true,""version"":""106.0"",""blink"":true,""windows"":true,""osname"":""Windows"",""osversion"":""10"",""a"":true}","9:20:43","1","3","Test_2","74","j","1","1062.5999999998603","1280 x 720","1280 x 720","true","1","10","","","","",""
"null","<p style=""font-size: 80px;"">+ 10 points</p>","null","html-keyboard-response","19","525082","0.0-11.0-2.18","5c2520f2f202160001f4c015","vpa4no","DO","40","m","{""name"":""Chrome"",""chrome"":true,""version"":""106.0"",""blink"":true,""windows"":true,""osname"":""Windows"",""osversion"":""10"",""a"":true}","9:20:43","1","3","Test_4","74","j","1","1709.5","1280 x 720","1280 x 720","true","1","10","","","","",""
"null","<p style=""font-size: 80px;"">+ 0 points</p>","null","html-keyboard-response","20","529192","0.0-11.0-2.19","5c2520f2f202160001f4c015","vpa4no","DO","40","m","{""name"":""Chrome"",""chrome"":true,""version"":""106.0"",""blink"":true,""windows"":true,""osname"":""Windows"",""osversion"":""10"",""a"":true}","9:20:43","1","3","Test_2","70","j","0","2096.5","1280 x 720","1280 x 720","true","1","0","","","","",""
"null","<p style=""font-size: 80px;"">+ 10 points</p>","null","html-keyboard-response","21","532114","0.0-11.0-2.20","5c2520f2f202160001f4c015","vpa4no","DO","40","m","{""name"":""Chrome"",""chrome"":true,""version"":""106.0"",""blink"":true,""windows"":true,""osname"":""Windows"",""osversion"":""10"",""a"":true}","9:20:43","1","3","Test_3","70","f","1","896.0999999998603","1280 x 720","1280 x 720","true","1","10","","","","",""
"null","<p style=""font-size: 80px;"">+ 10 points</p>","null","html-keyboard-response","22","534909","0.0-11.0-2.21","5c2520f2f202160001f4c015","vpa4no","DO","40","m","{""name"":""Chrome"",""chrome"":true,""version"":""106.0"",""blink"":true,""windows"":true,""osname"":""Windows"",""osversion"":""10"",""a"":true}","9:20:43","1","3","Test_3","70","f","1","779.6999999999534","1280 x 720","1280 x 720","true","1","10","","","","",""
"null","<p style=""font-size: 80px;"">+ 10 points</p>","null","html-keyboard-response","23","538524","0.0-11.0-2.22","5c2520f2f202160001f4c015","vpa4no","DO","40","m","{""name"":""Chrome"",""chrome"":true,""version"":""106.0"",""blink"":true,""windows"":true,""osname"":""Windows"",""osversion"":""10"",""a"":true}","9:20:43","1","3","Test_1","70","f","1","1596.1000000000931","1280 x 720","1280 x 720","true","1","10","","","","",""
"null","<p style=""font-size: 80px;"">+ 10 points</p>","null","html-keyboard-response","24","541403","0.0-11.0-2.23","5c2520f2f202160001f4c015","vpa4no","DO","40","m","{""name"":""Chrome"",""chrome"":true,""version"":""106.0"",""blink"":true,""windows"":true,""osname"":""Windows"",""osversion"":""10"",""a"":true}","9:20:43","1","3","Test_1","70","f","1","858","1280 x 720","1280 x 720","true","1","10","","","","",""
"null","<p style=""font-size: 80px;"">+ 10 points</p>","null","html-keyboard-response","25","544378","0.0-11.0-2.24","5c2520f2f202160001f4c015","vpa4no","DO","40","m","{""name"":""Chrome"",""chrome"":true,""version"":""106.0"",""blink"":true,""windows"":true,""osname"":""Windows"",""osversion"":""10"",""a"":true}","9:20:43","1","3","Test_2","74","j","1","935","1280 x 720","1280 x 720","true","1","10","","","","",""
"null","<p style=""font-size: 80px;"">+ 10 points</p>","null","html-keyboard-response","26","548085","0.0-11.0-2.25","5c2520f2f202160001f4c015","vpa4no","DO","40","m","{""name"":""Chrome"",""chrome"":true,""version"":""106.0"",""blink"":true,""windows"":true,""osname"":""Windows"",""osversion"":""10"",""a"":true}","9:20:43","1","3","Test_1","70","f","1","1692.5","1280 x 720","1280 x 720","true","1","10","","","","",""
"null","<p style=""font-size: 80px;"">+ 0 points</p>","null","html-keyboard-response","27","552050","0.0-11.0-2.26","5c2520f2f202160001f4c015","vpa4no","DO","40","m","{""name"":""Chrome"",""chrome"":true,""version"":""106.0"",""blink"":true,""windows"":true,""osname"":""Windows"",""osversion"":""10"",""a"":true}","9:20:43","1","3","Test_3","74","f","0","1956.3999999999069","1280 x 720","1280 x 720","true","1","0","","","","",""
"null","<p style=""font-size: 80px;"">+ 0 points</p>","null","html-keyboard-response","28","555605","0.0-11.0-2.27","5c2520f2f202160001f4c015","vpa4no","DO","40","m","{""name"":""Chrome"",""chrome"":true,""version"":""106.0"",""blink"":true,""windows"":true,""osname"":""Windows"",""osversion"":""10"",""a"":true}","9:20:43","1","3","Test_1","74","f","0","1525.6000000000931","1280 x 720","1280 x 720","true","1","0","","","","",""
"null","<p style=""font-size: 80px;"">+ 0 points</p>","null","html-keyboard-response","29","558627","0.0-11.0-2.28","5c2520f2f202160001f4c015","vpa4no","DO","40","m","{""name"":""Chrome"",""chrome"":true,""version"":""106.0"",""blink"":true,""windows"":true,""osname"":""Windows"",""osversion"":""10"",""a"":true}","9:20:43","1","3","Test_4","70","j","0","991.7999999998137","1280 x 720","1280 x 720","true","1","0","","","","",""
"null","<p style=""font-size: 80px;"">+ 10 points</p>","null","html-keyboard-response","30","561392","0.0-11.0-2.29","5c2520f2f202160001f4c015","vpa4no","DO","40","m","{""name"":""Chrome"",""chrome"":true,""version"":""106.0"",""blink"":true,""windows"":true,""osname"":""Windows"",""osversion"":""10"",""a"":true}","9:20:43","1","3","Test_4","74","j","1","755.7999999998137","1280 x 720","1280 x 720","true","1","10","","","","",""
"null","<p style=""font-size: 80px;"">+ 10 points</p>","null","html-keyboard-response","31","564306","0.0-11.0-2.30","5c2520f2f202160001f4c015","vpa4no","DO","40","m","{""name"":""Chrome"",""chrome"":true,""version"":""106.0"",""blink"":true,""windows"":true,""osname"":""Windows"",""osversion"":""10"",""a"":true}","9:20:43","1","3","Test_4","74","j","1","883.2999999998137","1280 x 720","1280 x 720","true","1","10","","","","",""
"null","<p style=""font-size: 80px;"">+ 0 points</p>","null","html-keyboard-response","32","567231","0.0-11.0-2.31","5c2520f2f202160001f4c015","vpa4no","DO","40","m","{""name"":""Chrome"",""chrome"":true,""version"":""106.0"",""blink"":true,""windows"":true,""osname"":""Windows"",""osversion"":""10"",""a"":true}","9:20:43","1","4","Test_1","70","j","0","909.3999999999069","1280 x 720","1280 x 720","true","1","0","","","","",""
"null","<p style=""font-size: 80px;"">+ 10 points</p>","null","html-keyboard-response","33","570056","0.0-11.0-2.32","5c2520f2f202160001f4c015","vpa4no","DO","40","m","{""name"":""Chrome"",""chrome"":true,""version"":""106.0"",""blink"":true,""windows"":true,""osname"":""Windows"",""osversion"":""10"",""a"":true}","9:20:43","1","4","Test_1","74","j","1","803.8999999999069","1280 x 720","1280 x 720","true","1","10","","","","",""
"null","<p style=""font-size: 80px;"">+ 10 points</p>","null","html-keyboard-response","34","573729","0.0-11.0-2.33","5c2520f2f202160001f4c015","vpa4no","DO","40","m","{""name"":""Chrome"",""chrome"":true,""version"":""106.0"",""blink"":true,""windows"":true,""osname"":""Windows"",""osversion"":""10"",""a"":true}","9:20:43","1","4","Test_3","74","j","1","1641.8999999999069","1280 x 720","1280 x 720","true","1","10","","","","",""
"null","<p style=""font-size: 80px;"">+ 10 points</p>","null","html-keyboard-response","35","576693","0.0-11.0-2.34","5c2520f2f202160001f4c015","vpa4no","DO","40","m","{""name"":""Chrome"",""chrome"":true,""version"":""106.0"",""blink"":true,""windows"":true,""osname"":""Windows"",""osversion"":""10"",""a"":true}","9:20:43","1","4","Test_4","70","f","1","936.8000000002794","1280 x 720","1280 x 720","true","1","10","","","","",""
"null","<p style=""font-size: 80px;"">+ 10 points</p>","null","html-keyboard-response","36","579419","0.0-11.0-2.35","5c2520f2f202160001f4c015","vpa4no","DO","40","m","{""name"":""Chrome"",""chrome"":true,""version"":""106.0"",""blink"":true,""windows"":true,""osname"":""Windows"",""osversion"":""10"",""a"":true}","9:20:43","1","4","Test_4","70","f","1","710.2000000001863","1280 x 720","1280 x 720","true","1","10","","","","",""
"null","<p style=""font-size: 80px;"">+ 10 points</p>","null","html-keyboard-response","37","582212","0.0-11.0-2.36","5c2520f2f202160001f4c015","vpa4no","DO","40","m","{""name"":""Chrome"",""chrome"":true,""version"":""106.0"",""blink"":true,""windows"":true,""osname"":""Windows"",""osversion"":""10"",""a"":true}","9:20:43","1","4","Test_4","70","f","1","765.1000000000931","1280 x 720","1280 x 720","true","1","10","","","","",""
"null","<p style=""font-size: 80px;"">+ 10 points</p>","null","html-keyboard-response","38","585177","0.0-11.0-2.37","5c2520f2f202160001f4c015","vpa4no","DO","40","m","{""name"":""Chrome"",""chrome"":true,""version"":""106.0"",""blink"":true,""windows"":true,""osname"":""Windows"",""osversion"":""10"",""a"":true}","9:20:43","1","4","Test_1","74","j","1","939","1280 x 720","1280 x 720","true","1","10","","","","",""
"null","<p style=""font-size: 80px;"">+ 10 points</p>","null","html-keyboard-response","39","588320","0.0-11.0-2.38","5c2520f2f202160001f4c015","vpa4no","DO","40","m","{""name"":""Chrome"",""chrome"":true,""version"":""106.0"",""blink"":true,""windows"":true,""osname"":""Windows"",""osversion"":""10"",""a"":true}","9:20:43","1","4","Test_2","70","f","1","1129.6999999997206","1280 x 720","1280 x 720","true","1","10","","","","",""
"null","<p style=""font-size: 80px;"">+ 0 points</p>","null","html-keyboard-response","40","591169","0.0-11.0-2.39","5c2520f2f202160001f4c015","vpa4no","DO","40","m","{""name"":""Chrome"",""chrome"":true,""version"":""106.0"",""blink"":true,""windows"":true,""osname"":""Windows"",""osversion"":""10"",""a"":true}","9:20:43","1","4","Test_1","70","j","0","841.0999999996275","1280 x 720","1280 x 720","true","1","0","","","","",""
"null","<p style=""font-size: 80px;"">+ 0 points</p>","null","html-keyboard-response","41","595186","0.0-11.0-2.40","5c2520f2f202160001f4c015","vpa4no","DO","40","m","{""name"":""Chrome"",""chrome"":true,""version"":""106.0"",""blink"":true,""windows"":true,""osname"":""Windows"",""osversion"":""10"",""a"":true}","9:20:43","1","4","Test_4","74","f","0","1989.3999999999069","1280 x 720","1280 x 720","true","1","0","","","","",""
"null","<p style=""font-size: 80px;"">+ 0 points</p>","null","html-keyboard-response","42","598773","0.0-11.0-2.41","5c2520f2f202160001f4c015","vpa4no","DO","40","m","{""name"":""Chrome"",""chrome"":true,""version"":""106.0"",""blink"":true,""windows"":true,""osname"":""Windows"",""osversion"":""10"",""a"":true}","9:20:43","1","4","Test_2","74","f","0","1553.6000000000931","1280 x 720","1280 x 720","true","1","0","","","","",""
"null","<p style=""font-size: 80px;"">+ 0 points</p>","null","html-keyboard-response","43","601470","0.0-11.0-2.42","5c2520f2f202160001f4c015","vpa4no","DO","40","m","{""name"":""Chrome"",""chrome"":true,""version"":""106.0"",""blink"":true,""windows"":true,""osname"":""Windows"",""osversion"":""10"",""a"":true}","9:20:43","1","4","Test_3","70","j","0","668.6000000000931","1280 x 720","1280 x 720","true","1","0","","","","",""
"null","<p style=""font-size: 80px;"">+ 10 points</p>","null","html-keyboard-response","44","605640","0.0-11.0-2.43","5c2520f2f202160001f4c015","vpa4no","DO","40","m","{""name"":""Chrome"",""chrome"":true,""version"":""106.0"",""blink"":true,""windows"":true,""osname"":""Windows"",""osversion"":""10"",""a"":true}","9:20:43","1","4","Test_2","70","f","1","2149.899999999907","1280 x 720","1280 x 720","true","1","10","","","","",""
"null","<p style=""font-size: 80px;"">+ 10 points</p>","null","html-keyboard-response","45","608982","0.0-11.0-2.44","5c2520f2f202160001f4c015","vpa4no","DO","40","m","{""name"":""Chrome"",""chrome"":true,""version"":""106.0"",""blink"":true,""windows"":true,""osname"":""Windows"",""osversion"":""10"",""a"":true}","9:20:43","1","4","Test_3","74","j","1","1325.1999999997206","1280 x 720","1280 x 720","true","1","10","","","","",""
"null","<p style=""font-size: 80px;"">+ 0 points</p>","null","html-keyboard-response","46","612691","0.0-11.0-2.45","5c2520f2f202160001f4c015","vpa4no","DO","40","m","{""name"":""Chrome"",""chrome"":true,""version"":""106.0"",""blink"":true,""windows"":true,""osname"":""Windows"",""osversion"":""10"",""a"":true}","9:20:43","1","4","Test_4","74","f","0","1687","1280 x 720","1280 x 720","true","1","0","","","","",""
"null","<p style=""font-size: 80px;"">+ 10 points</p>","null","html-keyboard-response","47","616068","0.0-11.0-2.46","5c2520f2f202160001f4c015","vpa4no","DO","40","m","{""name"":""Chrome"",""chrome"":true,""version"":""106.0"",""blink"":true,""windows"":true,""osname"":""Windows"",""osversion"":""10"",""a"":true}","9:20:43","1","4","Test_1","74","j","1","1340.1000000000931","1280 x 720","1280 x 720","true","1","10","","","","",""
"null","<p style=""font-size: 80px;"">+ 0 points</p>","null","html-keyboard-response","48","619642","0.0-11.0-2.47","5c2520f2f202160001f4c015","vpa4no","DO","40","m","{""name"":""Chrome"",""chrome"":true,""version"":""106.0"",""blink"":true,""windows"":true,""osname"":""Windows"",""osversion"":""10"",""a"":true}","9:20:43","1","4","Test_2","74","f","0","1553.3000000002794","1280 x 720","1280 x 720","true","1","0","","","","",""
"null","<p style=""font-size: 80px;"">+ 10 points</p>","null","html-keyboard-response","49","622309","0.0-11.0-2.48","5c2520f2f202160001f4c015","vpa4no","DO","40","m","{""name"":""Chrome"",""chrome"":true,""version"":""106.0"",""blink"":true,""windows"":true,""osname"":""Windows"",""osversion"":""10"",""a"":true}","9:20:43","1","4","Test_2","70","f","1","656.8999999999069","1280 x 720","1280 x 720","true","1","10","","","","",""
"null","<p style=""font-size: 80px;"">+ 0 points</p>","null","html-keyboard-response","50","625638","0.0-11.0-2.49","5c2520f2f202160001f4c015","vpa4no","DO","40","m","{""name"":""Chrome"",""chrome"":true,""version"":""106.0"",""blink"":true,""windows"":true,""osname"":""Windows"",""osversion"":""10"",""a"":true}","9:20:43","1","4","Test_3","70","j","0","1299.5999999996275","1280 x 720","1280 x 720","true","1","0","","","","",""
"null","<p style=""font-size: 80px;"">+ 10 points</p>","null","html-keyboard-response","51","629508","0.0-11.0-2.50","5c2520f2f202160001f4c015","vpa4no","DO","40","m","{""name"":""Chrome"",""chrome"":true,""version"":""106.0"",""blink"":true,""windows"":true,""osname"":""Windows"",""osversion"":""10"",""a"":true}","9:20:43","1","3","Test_4","74","j","1","1853.5","1280 x 720","1280 x 720","true","1","10","","","","",""
"null","<p style=""font-size: 80px;"">+ 10 points</p>","null","html-keyboard-response","52","632846","0.0-11.0-2.51","5c2520f2f202160001f4c015","vpa4no","DO","40","m","{""name"":""Chrome"",""chrome"":true,""version"":""106.0"",""blink"":true,""windows"":true,""osname"":""Windows"",""osversion"":""10"",""a"":true}","9:20:43","1","3","Test_3","70","f","1","1304","1280 x 720","1280 x 720","true","1","10","","","","",""
"null","<p style=""font-size: 80px;"">+ 10 points</p>","null","html-keyboard-response","53","635518","0.0-11.0-2.52","5c2520f2f202160001f4c015","vpa4no","DO","40","m","{""name"":""Chrome"",""chrome"":true,""version"":""106.0"",""blink"":true,""windows"":true,""osname"":""Windows"",""osversion"":""10"",""a"":true}","9:20:43","1","3","Test_3","70","f","1","653","1280 x 720","1280 x 720","true","1","10","","","","",""
"null","<p style=""font-size: 80px;"">+ 10 points</p>","null","html-keyboard-response","54","639180","0.0-11.0-2.53","5c2520f2f202160001f4c015","vpa4no","DO","40","m","{""name"":""Chrome"",""chrome"":true,""version"":""106.0"",""blink"":true,""windows"":true,""osname"":""Windows"",""osversion"":""10"",""a"":true}","9:20:43","1","3","Test_1","70","f","1","1640","1280 x 720","1280 x 720","true","1","10","","","","",""
"null","<p style=""font-size: 80px;"">+ 10 points</p>","null","html-keyboard-response","55","642390","0.0-11.0-2.54","5c2520f2f202160001f4c015","vpa4no","DO","40","m","{""name"":""Chrome"",""chrome"":true,""version"":""106.0"",""blink"":true,""windows"":true,""osname"":""Windows"",""osversion"":""10"",""a"":true}","9:20:43","1","3","Test_2","74","j","1","1188.1000000000931","1280 x 720","1280 x 720","true","1","10","","","","",""
"null","<p style=""font-size: 80px;"">+ 10 points</p>","null","html-keyboard-response","56","645947","0.0-11.0-2.55","5c2520f2f202160001f4c015","vpa4no","DO","40","m","{""name"":""Chrome"",""chrome"":true,""version"":""106.0"",""blink"":true,""windows"":true,""osname"":""Windows"",""osversion"":""10"",""a"":true}","9:20:43","1","3","Test_4","74","j","1","1530.2999999998137","1280 x 720","1280 x 720","true","1","10","","","","",""
"null","<p style=""font-size: 80px;"">+ 10 points</p>","null","html-keyboard-response","57","649820","0.0-11.0-2.56","5c2520f2f202160001f4c015","vpa4no","DO","40","m","{""name"":""Chrome"",""chrome"":true,""version"":""106.0"",""blink"":true,""windows"":true,""osname"":""Windows"",""osversion"":""10"",""a"":true}","9:20:43","1","3","Test_4","74","j","1","1838.5","1280 x 720","1280 x 720","true","1","10","","","","",""
"null","<p style=""font-size: 80px;"">+ 10 points</p>","null","html-keyboard-response","58","653960","0.0-11.0-2.57","5c2520f2f202160001f4c015","vpa4no","DO","40","m","{""name"":""Chrome"",""chrome"":true,""version"":""106.0"",""blink"":true,""windows"":true,""osname"":""Windows"",""osversion"":""10"",""a"":true}","9:20:43","1","3","Test_1","70","f","1","2108.2999999998137","1280 x 720","1280 x 720","true","1","10","","","","",""
"null","<p style=""font-size: 80px;"">+ 10 points</p>","null","html-keyboard-response","59","659974","0.0-11.0-2.58","5c2520f2f202160001f4c015","vpa4no","DO","40","m","{""name"":""Chrome"",""chrome"":true,""version"":""106.0"",""blink"":true,""windows"":true,""osname"":""Windows"",""osversion"":""10"",""a"":true}","9:20:43","1","3","Test_1","70","f","1","3994.0999999996275","1280 x 720","1280 x 720","true","1","10","","","","",""
"null","<p style=""font-size: 80px;"">+ 10 points</p>","null","html-keyboard-response","60","662659","0.0-11.0-2.59","5c2520f2f202160001f4c015","vpa4no","DO","40","m","{""name"":""Chrome"",""chrome"":true,""version"":""106.0"",""blink"":true,""windows"":true,""osname"":""Windows"",""osversion"":""10"",""a"":true}","9:20:43","1","3","Test_1","70","f","1","666","1280 x 720","1280 x 720","true","1","10","","","","",""
"null","<p style=""font-size: 80px;"">+ 10 points</p>","null","html-keyboard-response","61","665876","0.0-11.0-2.60","5c2520f2f202160001f4c015","vpa4no","DO","40","m","{""name"":""Chrome"",""chrome"":true,""version"":""106.0"",""blink"":true,""windows"":true,""osname"":""Windows"",""osversion"":""10"",""a"":true}","9:20:43","1","3","Test_3","70","f","1","1195.7000000001863","1280 x 720","1280 x 720","true","1","10","","","","",""
"null","<p style=""font-size: 80px;"">+ 10 points</p>","null","html-keyboard-response","62","669082","0.0-11.0-2.61","5c2520f2f202160001f4c015","vpa4no","DO","40","m","{""name"":""Chrome"",""chrome"":true,""version"":""106.0"",""blink"":true,""windows"":true,""osname"":""Windows"",""osversion"":""10"",""a"":true}","9:20:43","1","3","Test_3","70","f","1","1184.5","1280 x 720","1280 x 720","true","1","10","","","","",""
"null","<p style=""font-size: 80px;"">+ 10 points</p>","null","html-keyboard-response","63","673932","0.0-11.0-2.62","5c2520f2f202160001f4c015","vpa4no","DO","40","m","{""name"":""Chrome"",""chrome"":true,""version"":""106.0"",""blink"":true,""windows"":true,""osname"":""Windows"",""osversion"":""10"",""a"":true}","9:20:43","1","3","Test_4","74","j","1","2830","1280 x 720","1280 x 720","true","1","10","","","","",""
"null","<p style=""font-size: 80px; line-height: 1.4em;"">Too late</br> Speed up!</p>","null","html-keyboard-response","64","680972","0.0-11.0-2.63","5c2520f2f202160001f4c015","vpa4no","DO","40","m","{""name"":""Chrome"",""chrome"":true,""version"":""106.0"",""blink"":true,""windows"":true,""osname"":""Windows"",""osversion"":""10"",""a"":true}","9:20:43","1","3","Test_1","null","f","0","null","1280 x 720","1280 x 720","true","1","0","","","","",""
"null","<p style=""font-size: 80px;"">+ 10 points</p>","null","html-keyboard-response","65","686277","0.0-11.0-2.64","5c2520f2f202160001f4c015","vpa4no","DO","40","m","{""name"":""Chrome"",""chrome"":true,""version"":""106.0"",""blink"":true,""windows"":true,""osname"":""Windows"",""osversion"":""10"",""a"":true}","9:20:43","1","3","Test_2","74","j","1","3296.600000000093","1280 x 720","1280 x 720","true","1","10","","","","",""
"null","<p style=""font-size: 80px;"">+ 10 points</p>","null","html-keyboard-response","66","689013","0.0-11.0-2.65","5c2520f2f202160001f4c015","vpa4no","DO","40","m","{""name"":""Chrome"",""chrome"":true,""version"":""106.0"",""blink"":true,""windows"":true,""osname"":""Windows"",""osversion"":""10"",""a"":true}","9:20:43","1","3","Test_3","70","f","1","703.5","1280 x 720","1280 x 720","true","1","10","","","","",""
"null","<p style=""font-size: 80px;"">+ 10 points</p>","null","html-keyboard-response","67","691683","0.0-11.0-2.66","5c2520f2f202160001f4c015","vpa4no","DO","40","m","{""name"":""Chrome"",""chrome"":true,""version"":""106.0"",""blink"":true,""windows"":true,""osname"":""Windows"",""osversion"":""10"",""a"":true}","9:20:43","1","3","Test_2","74","j","1","655.3999999999069","1280 x 720","1280 x 720","true","1","10","","","","",""
"null","<p style=""font-size: 80px;"">+ 10 points</p>","null","html-keyboard-response","68","694454","0.0-11.0-2.67","5c2520f2f202160001f4c015","vpa4no","DO","40","m","{""name"":""Chrome"",""chrome"":true,""version"":""106.0"",""blink"":true,""windows"":true,""osname"":""Windows"",""osversion"":""10"",""a"":true}","9:20:43","1","3","Test_3","70","f","1","753.8000000002794","1280 x 720","1280 x 720","true","1","10","","","","",""
"null","<p style=""font-size: 80px;"">+ 10 points</p>","null","html-keyboard-response","69","697757","0.0-11.0-2.68","5c2520f2f202160001f4c015","vpa4no","DO","40","m","{""name"":""Chrome"",""chrome"":true,""version"":""106.0"",""blink"":true,""windows"":true,""osname"":""Windows"",""osversion"":""10"",""a"":true}","9:20:43","1","3","Test_4","74","j","1","1281.6000000000931","1280 x 720","1280 x 720","true","1","10","","","","",""
"null","<p style=""font-size: 80px;"">+ 10 points</p>","null","html-keyboard-response","70","703016","0.0-11.0-2.69","5c2520f2f202160001f4c015","vpa4no","DO","40","m","{""name"":""Chrome"",""chrome"":true,""version"":""106.0"",""blink"":true,""windows"":true,""osname"":""Windows"",""osversion"":""10"",""a"":true}","9:20:43","1","3","Test_2","74","j","1","3237.899999999907","1280 x 720","1280 x 720","true","1","10","","","","",""
"null","<p style=""font-size: 80px; line-height: 1.4em;"">Too late</br> Speed up!</p>","null","html-keyboard-response","71","710049","0.0-11.0-2.70","5c2520f2f202160001f4c015","vpa4no","DO","40","m","{""name"":""Chrome"",""chrome"":true,""version"":""106.0"",""blink"":true,""windows"":true,""osname"":""Windows"",""osversion"":""10"",""a"":true}","9:20:43","1","3","Test_4","null","j","0","null","1280 x 720","1280 x 720","true","1","0","","","","",""
"null","<p style=""font-size: 80px; line-height: 1.4em;"">Too late</br> Speed up!</p>","null","html-keyboard-response","72","717085","0.0-11.0-2.71","5c2520f2f202160001f4c015","vpa4no","DO","40","m","{""name"":""Chrome"",""chrome"":true,""version"":""106.0"",""blink"":true,""windows"":true,""osname"":""Windows"",""osversion"":""10"",""a"":true}","9:20:43","1","3","Test_2","null","j","0","null","1280 x 720","1280 x 720","true","1","0","","","","",""
"null","<p style=""font-size: 80px;"">+ 10 points</p>","null","html-keyboard-response","73","721222","0.0-11.0-2.72","5c2520f2f202160001f4c015","vpa4no","DO","40","m","{""name"":""Chrome"",""chrome"":true,""version"":""106.0"",""blink"":true,""windows"":true,""osname"":""Windows"",""osversion"":""10"",""a"":true}","9:20:43","1","3","Test_2","74","j","1","2100.5","1280 x 720","1280 x 720","true","1","10","","","","",""
"null","<p style=""font-size: 80px;"">+ 10 points</p>","null","html-keyboard-response","74","724382","0.0-11.0-2.73","5c2520f2f202160001f4c015","vpa4no","DO","40","m","{""name"":""Chrome"",""chrome"":true,""version"":""106.0"",""blink"":true,""windows"":true,""osname"":""Windows"",""osversion"":""10"",""a"":true}","9:20:43","1","3","Test_1","70","f","1","1138.3999999999069","1280 x 720","1280 x 720","true","1","10","","","","",""
"null","<p style=""font-size: 80px;"">+ 0 points</p>","null","html-keyboard-response","75","730746","0.0-11.0-2.74","5c2520f2f202160001f4c015","vpa4no","DO","40","m","{""name"":""Chrome"",""chrome"":true,""version"":""106.0"",""blink"":true,""windows"":true,""osname"":""Windows"",""osversion"":""10"",""a"":true}","9:20:43","1","4","Test_4","74","f","0","4343","1280 x 720","1280 x 720","true","1","0","","","","",""
"null","<p style=""font-size: 80px;"">+ 0 points</p>","null","html-keyboard-response","76","734644","0.0-11.0-2.75","5c2520f2f202160001f4c015","vpa4no","DO","40","m","{""name"":""Chrome"",""chrome"":true,""version"":""106.0"",""blink"":true,""windows"":true,""osname"":""Windows"",""osversion"":""10"",""a"":true}","9:20:43","1","4","Test_1","70","j","0","1870.6000000000931","1280 x 720","1280 x 720","true","1","0","","","","",""
"null","<p style=""font-size: 80px;"">+ 0 points</p>","null","html-keyboard-response","77","739520","0.0-11.0-2.76","5c2520f2f202160001f4c015","vpa4no","DO","40","m","{""name"":""Chrome"",""chrome"":true,""version"":""106.0"",""blink"":true,""windows"":true,""osname"":""Windows"",""osversion"":""10"",""a"":true}","9:20:43","1","4","Test_3","70","j","0","2851","1280 x 720","1280 x 720","true","1","0","","","","",""
"null","<p style=""font-size: 80px;"">+ 0 points</p>","null","html-keyboard-response","78","742816","0.0-11.0-2.77","5c2520f2f202160001f4c015","vpa4no","DO","40","m","{""name"":""Chrome"",""chrome"":true,""version"":""106.0"",""blink"":true,""windows"":true,""osname"":""Windows"",""osversion"":""10"",""a"":true}","9:20:43","1","4","Test_4","74","f","0","1269.5999999996275","1280 x 720","1280 x 720","true","1","0","","","","",""
"null","<p style=""font-size: 80px;"">+ 10 points</p>","null","html-keyboard-response","79","745881","0.0-11.0-2.78","5c2520f2f202160001f4c015","vpa4no","DO","40","m","{""name"":""Chrome"",""chrome"":true,""version"":""106.0"",""blink"":true,""windows"":true,""osname"":""Windows"",""osversion"":""10"",""a"":true}","9:20:43","1","4","Test_3","74","j","1","1055.5","1280 x 720","1280 x 720","true","1","10","","","","",""
"null","<p style=""font-size: 80px;"">+ 10 points</p>","null","html-keyboard-response","80","748781","0.0-11.0-2.79","5c2520f2f202160001f4c015","vpa4no","DO","40","m","{""name"":""Chrome"",""chrome"":true,""version"":""106.0"",""blink"":true,""windows"":true,""osname"":""Windows"",""osversion"":""10"",""a"":true}","9:20:43","1","4","Test_3","74","j","1","866.7999999998137","1280 x 720","1280 x 720","true","1","10","","","","",""
"null","<p style=""font-size: 80px;"">+ 10 points</p>","null","html-keyboard-response","81","752330","0.0-11.0-2.80","5c2520f2f202160001f4c015","vpa4no","DO","40","m","{""name"":""Chrome"",""chrome"":true,""version"":""106.0"",""blink"":true,""windows"":true,""osname"":""Windows"",""osversion"":""10"",""a"":true}","9:20:43","1","4","Test_1","74","j","1","1540.6000000000931","1280 x 720","1280 x 720","true","1","10","","","","",""
"null","<p style=""font-size: 80px;"">+ 10 points</p>","null","html-keyboard-response","82","755170","0.0-11.0-2.81","5c2520f2f202160001f4c015","vpa4no","DO","40","m","{""name"":""Chrome"",""chrome"":true,""version"":""106.0"",""blink"":true,""windows"":true,""osname"":""Windows"",""osversion"":""10"",""a"":true}","9:20:43","1","4","Test_4","70","f","1","822.2999999998137","1280 x 720","1280 x 720","true","1","10","","","","",""
"null","<p style=""font-size: 80px;"">+ 10 points</p>","null","html-keyboard-response","83","758190","0.0-11.0-2.82","5c2520f2f202160001f4c015","vpa4no","DO","40","m","{""name"":""Chrome"",""chrome"":true,""version"":""106.0"",""blink"":true,""windows"":true,""osname"":""Windows"",""osversion"":""10"",""a"":true}","9:20:43","1","4","Test_1","74","j","1","1007.3999999999069","1280 x 720","1280 x 720","true","1","10","","","","",""
"null","<p style=""font-size: 80px;"">+ 0 points</p>","null","html-keyboard-response","84","762699","0.0-11.0-2.83","5c2520f2f202160001f4c015","vpa4no","DO","40","m","{""name"":""Chrome"",""chrome"":true,""version"":""106.0"",""blink"":true,""windows"":true,""osname"":""Windows"",""osversion"":""10"",""a"":true}","9:20:43","1","4","Test_2","74","f","0","2486.6999999997206","1280 x 720","1280 x 720","true","1","0","","","","",""
"null","<p style=""font-size: 80px;"">+ 10 points</p>","null","html-keyboard-response","85","766362","0.0-11.0-2.84","5c2520f2f202160001f4c015","vpa4no","DO","40","m","{""name"":""Chrome"",""chrome"":true,""version"":""106.0"",""blink"":true,""windows"":true,""osname"":""Windows"",""osversion"":""10"",""a"":true}","9:20:43","1","4","Test_2","70","f","1","1639.3999999999069","1280 x 720","1280 x 720","true","1","10","","","","",""
"null","<p style=""font-size: 80px;"">+ 0 points</p>","null","html-keyboard-response","86","770034","0.0-11.0-2.85","5c2520f2f202160001f4c015","vpa4no","DO","40","m","{""name"":""Chrome"",""chrome"":true,""version"":""106.0"",""blink"":true,""windows"":true,""osname"":""Windows"",""osversion"":""10"",""a"":true}","9:20:43","1","4","Test_4","74","f","0","1655.2000000001863","1280 x 720","1280 x 720","true","1","0","","","","",""
"null","<p style=""font-size: 80px;"">+ 10 points</p>","null","html-keyboard-response","87","774238","0.0-11.0-2.86","5c2520f2f202160001f4c015","vpa4no","DO","40","m","{""name"":""Chrome"",""chrome"":true,""version"":""106.0"",""blink"":true,""windows"":true,""osname"":""Windows"",""osversion"":""10"",""a"":true}","9:20:43","1","4","Test_2","70","f","1","2152.6999999997206","1280 x 720","1280 x 720","true","1","10","","","","",""
"null","<p style=""font-size: 80px;"">+ 10 points</p>","null","html-keyboard-response","88","779995","0.0-11.0-2.87","5c2520f2f202160001f4c015","vpa4no","DO","40","m","{""name"":""Chrome"",""chrome"":true,""version"":""106.0"",""blink"":true,""windows"":true,""osname"":""Windows"",""osversion"":""10"",""a"":true}","9:20:43","1","4","Test_3","74","j","1","3724","1280 x 720","1280 x 720","true","1","10","","","","",""
"null","<p style=""font-size: 80px;"">+ 10 points</p>","null","html-keyboard-response","89","782709","0.0-11.0-2.88","5c2520f2f202160001f4c015","vpa4no","DO","40","m","{""name"":""Chrome"",""chrome"":true,""version"":""106.0"",""blink"":true,""windows"":true,""osname"":""Windows"",""osversion"":""10"",""a"":true}","9:20:43","1","4","Test_2","70","f","1","676.2000000001863","1280 x 720","1280 x 720","true","1","10","","","","",""
"null","<p style=""font-size: 80px;"">+ 0 points</p>","null","html-keyboard-response","90","785440","0.0-11.0-2.89","5c2520f2f202160001f4c015","vpa4no","DO","40","m","{""name"":""Chrome"",""chrome"":true,""version"":""106.0"",""blink"":true,""windows"":true,""osname"":""Windows"",""osversion"":""10"",""a"":true}","9:20:43","1","3","Test_2","70","j","0","717.6000000000931","1280 x 720","1280 x 720","true","1","0","","","","",""
"null","<p style=""font-size: 80px;"">+ 10 points</p>","null","html-keyboard-response","91","788472","0.0-11.0-2.90","5c2520f2f202160001f4c015","vpa4no","DO","40","m","{""name"":""Chrome"",""chrome"":true,""version"":""106.0"",""blink"":true,""windows"":true,""osname"":""Windows"",""osversion"":""10"",""a"":true}","9:20:43","1","3","Test_4","74","j","1","1012.3999999999069","1280 x 720","1280 x 720","true","1","10","","","","",""
"null","<p style=""font-size: 80px;"">+ 10 points</p>","null","html-keyboard-response","92","791335","0.0-11.0-2.91","5c2520f2f202160001f4c015","vpa4no","DO","40","m","{""name"":""Chrome"",""chrome"":true,""version"":""106.0"",""blink"":true,""windows"":true,""osname"":""Windows"",""osversion"":""10"",""a"":true}","9:20:43","1","3","Test_4","74","j","1","831.9000000003725","1280 x 720","1280 x 720","true","1","10","","","","",""
"null","<p style=""font-size: 80px;"">+ 10 points</p>","null","html-keyboard-response","93","794176","0.0-11.0-2.92","5c2520f2f202160001f4c015","vpa4no","DO","40","m","{""name"":""Chrome"",""chrome"":true,""version"":""106.0"",""blink"":true,""windows"":true,""osname"":""Windows"",""osversion"":""10"",""a"":true}","9:20:43","1","3","Test_3","70","f","1","824","1280 x 720","1280 x 720","true","1","10","","","","",""
"null","<p style=""font-size: 80px;"">+ 10 points</p>","null","html-keyboard-response","94","797541","0.0-11.0-2.93","5c2520f2f202160001f4c015","vpa4no","DO","40","m","{""name"":""Chrome"",""chrome"":true,""version"":""106.0"",""blink"":true,""windows"":true,""osname"":""Windows"",""osversion"":""10"",""a"":true}","9:20:43","1","3","Test_2","74","j","1","1335.7999999998137","1280 x 720","1280 x 720","true","1","10","","","","",""
"null","<p style=""font-size: 80px;"">+ 10 points</p>","null","html-keyboard-response","95","800352","0.0-11.0-2.94","5c2520f2f202160001f4c015","vpa4no","DO","40","m","{""name"":""Chrome"",""chrome"":true,""version"":""106.0"",""blink"":true,""windows"":true,""osname"":""Windows"",""osversion"":""10"",""a"":true}","9:20:43","1","3","Test_2","74","j","1","780.5","1280 x 720","1280 x 720","true","1","10","","","","",""
"null","<p style=""font-size: 80px; line-height: 1.4em;"">Too late</br> Speed up!</p>","null","html-keyboard-response","96","807391","0.0-11.0-2.95","5c2520f2f202160001f4c015","vpa4no","DO","40","m","{""name"":""Chrome"",""chrome"":true,""version"":""106.0"",""blink"":true,""windows"":true,""osname"":""Windows"",""osversion"":""10"",""a"":true}","9:20:43","1","3","Test_2","null","j","0","null","1280 x 720","1280 x 720","true","1","0","","","","",""
"null","<p style=""font-size: 80px;"">+ 10 points</p>","null","html-keyboard-response","97","813038","0.0-11.0-2.96","5c2520f2f202160001f4c015","vpa4no","DO","40","m","{""name"":""Chrome"",""chrome"":true,""version"":""106.0"",""blink"":true,""windows"":true,""osname"":""Windows"",""osversion"":""10"",""a"":true}","9:20:43","1","3","Test_1","70","f","1","3613.899999999907","1280 x 720","1280 x 720","true","1","10","","","","",""
"null","<p style=""font-size: 80px;"">+ 10 points</p>","null","html-keyboard-response","98","816238","0.0-11.0-2.97","5c2520f2f202160001f4c015","vpa4no","DO","40","m","{""name"":""Chrome"",""chrome"":true,""version"":""106.0"",""blink"":true,""windows"":true,""osname"":""Windows"",""osversion"":""10"",""a"":true}","9:20:43","1","3","Test_3","70","f","1","1180.5","1280 x 720","1280 x 720","true","1","10","","","","",""
"null","<p style=""font-size: 80px;"">+ 10 points</p>","null","html-keyboard-response","99","819208","0.0-11.0-2.98","5c2520f2f202160001f4c015","vpa4no","DO","40","m","{""name"":""Chrome"",""chrome"":true,""version"":""106.0"",""blink"":true,""windows"":true,""osname"":""Windows"",""osversion"":""10"",""a"":true}","9:20:43","1","3","Test_1","70","f","1","939.7000000001863","1280 x 720","1280 x 720","true","1","10","","","","",""
"null","<p style=""font-size: 80px;"">+ 10 points</p>","null","html-keyboard-response","100","822357","0.0-11.0-2.99","5c2520f2f202160001f4c015","vpa4no","DO","40","m","{""name"":""Chrome"",""chrome"":true,""version"":""106.0"",""blink"":true,""windows"":true,""osname"":""Windows"",""osversion"":""10"",""a"":true}","9:20:43","1","3","Test_3","70","f","1","1118.2999999998137","1280 x 720","1280 x 720","true","1","10","","","","",""
"null","<p style=""font-size: 80px;"">+ 10 points</p>","null","html-keyboard-response","101","825392","0.0-11.0-2.100","5c2520f2f202160001f4c015","vpa4no","DO","40","m","{""name"":""Chrome"",""chrome"":true,""version"":""106.0"",""blink"":true,""windows"":true,""osname"":""Windows"",""osversion"":""10"",""a"":true}","9:20:43","1","3","Test_1","70","f","1","1011","1280 x 720","1280 x 720","true","1","10","","","","",""
"null","<p style=""font-size: 80px;"">+ 10 points</p>","null","html-keyboard-response","102","828462","0.0-11.0-2.101","5c2520f2f202160001f4c015","vpa4no","DO","40","m","{""name"":""Chrome"",""chrome"":true,""version"":""106.0"",""blink"":true,""windows"":true,""osname"":""Windows"",""osversion"":""10"",""a"":true}","9:20:43","1","3","Test_2","74","j","1","1055.6000000000931","1280 x 720","1280 x 720","true","1","10","","","","",""
"null","<p style=""font-size: 80px;"">+ 10 points</p>","null","html-keyboard-response","103","831297","0.0-11.0-2.102","5c2520f2f202160001f4c015","vpa4no","DO","40","m","{""name"":""Chrome"",""chrome"":true,""version"":""106.0"",""blink"":true,""windows"":true,""osname"":""Windows"",""osversion"":""10"",""a"":true}","9:20:43","1","3","Test_1","70","f","1","822.3999999999069","1280 x 720","1280 x 720","true","1","10","","","","",""
"null","<p style=""font-size: 80px;"">+ 10 points</p>","null","html-keyboard-response","104","835645","0.0-11.0-2.103","5c2520f2f202160001f4c015","vpa4no","DO","40","m","{""name"":""Chrome"",""chrome"":true,""version"":""106.0"",""blink"":true,""windows"":true,""osname"":""Windows"",""osversion"":""10"",""a"":true}","9:20:43","1","3","Test_4","74","j","1","2326.899999999907","1280 x 720","1280 x 720","true","1","10","","","","",""
"null","<p style=""font-size: 80px; line-height: 1.4em;"">Too late</br> Speed up!</p>","null","html-keyboard-response","105","842658","0.0-11.0-2.104","5c2520f2f202160001f4c015","vpa4no","DO","40","m","{""name"":""Chrome"",""chrome"":true,""version"":""106.0"",""blink"":true,""windows"":true,""osname"":""Windows"",""osversion"":""10"",""a"":true}","9:20:43","1","3","Test_3","null","f","0","null","1280 x 720","1280 x 720","true","1","0","","","","",""
"null","<p style=""font-size: 80px;"">+ 10 points</p>","null","html-keyboard-response","106","846461","0.0-11.0-2.105","5c2520f2f202160001f4c015","vpa4no","DO","40","m","{""name"":""Chrome"",""chrome"":true,""version"":""106.0"",""blink"":true,""windows"":true,""osname"":""Windows"",""osversion"":""10"",""a"":true}","9:20:43","1","3","Test_4","74","j","1","1775.5","1280 x 720","1280 x 720","true","1","10","","","","",""
"null","<p style=""font-size: 80px;"">+ 10 points</p>","null","html-keyboard-response","107","849388","0.0-11.0-2.106","5c2520f2f202160001f4c015","vpa4no","DO","40","m","{""name"":""Chrome"",""chrome"":true,""version"":""106.0"",""blink"":true,""windows"":true,""osname"":""Windows"",""osversion"":""10"",""a"":true}","9:20:43","1","3","Test_3","70","f","1","906.8000000002794","1280 x 720","1280 x 720","true","1","10","","","","",""
"null","<p style=""font-size: 80px; line-height: 1.4em;"">Too late</br> Speed up!</p>","null","html-keyboard-response","108","856424","0.0-11.0-2.107","5c2520f2f202160001f4c015","vpa4no","DO","40","m","{""name"":""Chrome"",""chrome"":true,""version"":""106.0"",""blink"":true,""windows"":true,""osname"":""Windows"",""osversion"":""10"",""a"":true}","9:20:43","1","3","Test_2","null","j","0","null","1280 x 720","1280 x 720","true","1","0","","","","",""
"null","<p style=""font-size: 80px;"">+ 10 points</p>","null","html-keyboard-response","109","860107","0.0-11.0-2.108","5c2520f2f202160001f4c015","vpa4no","DO","40","m","{""name"":""Chrome"",""chrome"":true,""version"":""106.0"",""blink"":true,""windows"":true,""osname"":""Windows"",""osversion"":""10"",""a"":true}","9:20:43","1","3","Test_1","70","f","1","1667.5","1280 x 720","1280 x 720","true","1","10","","","","",""
"null","<p style=""font-size: 80px;"">+ 10 points</p>","null","html-keyboard-response","110","870909","0.0-11.0-2.109","5c2520f2f202160001f4c015","vpa4no","DO","40","m","{""name"":""Chrome"",""chrome"":true,""version"":""106.0"",""blink"":true,""windows"":true,""osname"":""Windows"",""osversion"":""10"",""a"":true}","9:20:43","1","3","Test_1","70","f","1","2213.899999999907","1280 x 720","1280 x 720","true","1","10","","","","",""
"null","<p style=""font-size: 80px;"">+ 10 points</p>","null","html-keyboard-response","111","874038","0.0-11.0-2.110","5c2520f2f202160001f4c015","vpa4no","DO","40","m","{""name"":""Chrome"",""chrome"":true,""version"":""106.0"",""blink"":true,""windows"":true,""osname"":""Windows"",""osversion"":""10"",""a"":true}","9:20:43","1","3","Test_4","74","j","1","1097.2000000001863","1280 x 720","1280 x 720","true","1","10","","","","",""
"null","<p style=""font-size: 80px;"">+ 10 points</p>","null","html-keyboard-response","112","877166","0.0-11.0-2.111","5c2520f2f202160001f4c015","vpa4no","DO","40","m","{""name"":""Chrome"",""chrome"":true,""version"":""106.0"",""blink"":true,""windows"":true,""osname"":""Windows"",""osversion"":""10"",""a"":true}","9:20:43","1","3","Test_3","70","f","1","1098.8000000002794","1280 x 720","1280 x 720","true","1","10","","","","",""
"null","<p style=""font-size: 80px;"">+ 10 points</p>","null","html-keyboard-response","113","880466","0.0-11.0-2.112","5c2520f2f202160001f4c015","vpa4no","DO","40","m","{""name"":""Chrome"",""chrome"":true,""version"":""106.0"",""blink"":true,""windows"":true,""osname"":""Windows"",""osversion"":""10"",""a"":true}","9:20:43","1","3","Test_4","74","j","1","1276","1280 x 720","1280 x 720","true","1","10","","","","",""
"null","<p style=""font-size: 80px;"">+ 0 points</p>","null","html-keyboard-response","114","883241","0.0-11.0-2.113","5c2520f2f202160001f4c015","vpa4no","DO","40","m","{""name"":""Chrome"",""chrome"":true,""version"":""106.0"",""blink"":true,""windows"":true,""osname"":""Windows"",""osversion"":""10"",""a"":true}","9:20:43","1","4","Test_3","70","j","0","754.7999999998137","1280 x 720","1280 x 720","true","1","0","","","","",""
"null","<p style=""font-size: 80px;"">+ 10 points</p>","null","html-keyboard-response","115","886853","0.0-11.0-2.114","5c2520f2f202160001f4c015","vpa4no","DO","40","m","{""name"":""Chrome"",""chrome"":true,""version"":""106.0"",""blink"":true,""windows"":true,""osname"":""Windows"",""osversion"":""10"",""a"":true}","9:20:43","1","4","Test_1","74","j","1","1597.2000000001863","1280 x 720","1280 x 720","true","1","10","","","","",""
"null","<p style=""font-size: 80px;"">+ 10 points</p>","null","html-keyboard-response","116","889726","0.0-11.0-2.115","5c2520f2f202160001f4c015","vpa4no","DO","40","m","{""name"":""Chrome"",""chrome"":true,""version"":""106.0"",""blink"":true,""windows"":true,""osname"":""Windows"",""osversion"":""10"",""a"":true}","9:20:43","1","4","Test_4","70","f","1","857.2999999998137","1280 x 720","1280 x 720","true","1","10","","","","",""
"null","<p style=""font-size: 80px;"">+ 10 points</p>","null","html-keyboard-response","117","892834","0.0-11.0-2.116","5c2520f2f202160001f4c015","vpa4no","DO","40","m","{""name"":""Chrome"",""chrome"":true,""version"":""106.0"",""blink"":true,""windows"":true,""osname"":""Windows"",""osversion"":""10"",""a"":true}","9:20:43","1","4","Test_1","74","j","1","1079.3999999999069","1280 x 720","1280 x 720","true","1","10","","","","",""
"null","<p style=""font-size: 80px;"">+ 10 points</p>","null","html-keyboard-response","118","897715","0.0-11.0-2.117","5c2520f2f202160001f4c015","vpa4no","DO","40","m","{""name"":""Chrome"",""chrome"":true,""version"":""106.0"",""blink"":true,""windows"":true,""osname"":""Windows"",""osversion"":""10"",""a"":true}","9:20:43","1","4","Test_3","74","j","1","2860.7999999998137","1280 x 720","1280 x 720","true","1","10","","","","",""
"null","<p style=""font-size: 80px;"">+ 10 points</p>","null","html-keyboard-response","119","901677","0.0-11.0-2.118","5c2520f2f202160001f4c015","vpa4no","DO","40","m","{""name"":""Chrome"",""chrome"":true,""version"":""106.0"",""blink"":true,""windows"":true,""osname"":""Windows"",""osversion"":""10"",""a"":true}","9:20:43","1","4","Test_4","70","f","1","1930.8000000002794","1280 x 720","1280 x 720","true","1","10","","","","",""
"null","<p style=""font-size: 80px;"">+ 10 points</p>","null","html-keyboard-response","120","904550","0.0-11.0-2.119","5c2520f2f202160001f4c015","vpa4no","DO","40","m","{""name"":""Chrome"",""chrome"":true,""version"":""106.0"",""blink"":true,""windows"":true,""osname"":""Windows"",""osversion"":""10"",""a"":true}","9:20:43","1","4","Test_1","74","j","1","848.1999999997206","1280 x 720","1280 x 720","true","1","10","","","","",""
"null","<p style=""font-size: 80px;"">+ 10 points</p>","null","html-keyboard-response","121","907982","0.0-11.0-2.120","5c2520f2f202160001f4c015","vpa4no","DO","40","m","{""name"":""Chrome"",""chrome"":true,""version"":""106.0"",""blink"":true,""windows"":true,""osname"":""Windows"",""osversion"":""10"",""a"":true}","9:20:43","1","4","Test_2","70","f","1","1404.6000000000931","1280 x 720","1280 x 720","true","1","10","","","","",""
"null","<p style=""font-size: 80px;"">+ 0 points</p>","null","html-keyboard-response","122","911704","0.0-11.0-2.121","5c2520f2f202160001f4c015","vpa4no","DO","40","m","{""name"":""Chrome"",""chrome"":true,""version"":""106.0"",""blink"":true,""windows"":true,""osname"":""Windows"",""osversion"":""10"",""a"":true}","9:20:43","1","4","Test_4","74","f","0","1701.8999999999069","1280 x 720","1280 x 720","true","1","0","","","","",""
"null","<p style=""font-size: 80px;"">+ 10 points</p>","null","html-keyboard-response","123","915483","0.0-11.0-2.122","5c2520f2f202160001f4c015","vpa4no","DO","40","m","{""name"":""Chrome"",""chrome"":true,""version"":""106.0"",""blink"":true,""windows"":true,""osname"":""Windows"",""osversion"":""10"",""a"":true}","9:20:43","1","4","Test_2","70","f","1","1767.7999999998137","1280 x 720","1280 x 720","true","1","10","","","","",""
"null","<p style=""font-size: 80px; line-height: 1.4em;"">Too late</br> Speed up!</p>","null","html-keyboard-response","124","922518","0.0-11.0-2.123","5c2520f2f202160001f4c015","vpa4no","DO","40","m","{""name"":""Chrome"",""chrome"":true,""version"":""106.0"",""blink"":true,""windows"":true,""osname"":""Windows"",""osversion"":""10"",""a"":true}","9:20:43","1","4","Test_3","null","j","0","null","1280 x 720","1280 x 720","true","1","0","","","","",""
"null","<p style=""font-size: 80px; line-height: 1.4em;"">Too late</br> Speed up!</p>","null","html-keyboard-response","125","929565","0.0-11.0-2.124","5c2520f2f202160001f4c015","vpa4no","DO","40","m","{""name"":""Chrome"",""chrome"":true,""version"":""106.0"",""blink"":true,""windows"":true,""osname"":""Windows"",""osversion"":""10"",""a"":true}","9:20:43","1","4","Test_4","null","f","0","null","1280 x 720","1280 x 720","true","1","0","","","","",""
"null","<p style=""font-size: 80px;"">+ 0 points</p>","null","html-keyboard-response","126","934741","0.0-11.0-2.125","5c2520f2f202160001f4c015","vpa4no","DO","40","m","{""name"":""Chrome"",""chrome"":true,""version"":""106.0"",""blink"":true,""windows"":true,""osname"":""Windows"",""osversion"":""10"",""a"":true}","9:20:43","1","4","Test_1","70","j","0","3166.5","1280 x 720","1280 x 720","true","1","0","","","","",""
"null","<p style=""font-size: 80px;"">+ 10 points</p>","null","html-keyboard-response","127","937815","0.0-11.0-2.126","5c2520f2f202160001f4c015","vpa4no","DO","40","m","{""name"":""Chrome"",""chrome"":true,""version"":""106.0"",""blink"":true,""windows"":true,""osname"":""Windows"",""osversion"":""10"",""a"":true}","9:20:43","1","4","Test_4","70","f","1","1051.6000000000931","1280 x 720","1280 x 720","true","1","10","","","","",""
"null","<p style=""font-size: 80px;"">+ 10 points</p>","null","html-keyboard-response","128","941028","0.0-11.0-2.127","5c2520f2f202160001f4c015","vpa4no","DO","40","m","{""name"":""Chrome"",""chrome"":true,""version"":""106.0"",""blink"":true,""windows"":true,""osname"":""Windows"",""osversion"":""10"",""a"":true}","9:20:43","1","4","Test_3","74","j","1","1189.5","1280 x 720","1280 x 720","true","1","10","","","","",""
"null","<p style=""font-size: 80px;"">+ 10 points</p>","null","html-keyboard-response","129","943746","0.0-11.0-2.128","5c2520f2f202160001f4c015","vpa4no","DO","40","m","{""name"":""Chrome"",""chrome"":true,""version"":""106.0"",""blink"":true,""windows"":true,""osname"":""Windows"",""osversion"":""10"",""a"":true}","9:20:43","1","4","Test_2","70","f","1","693.7999999998137","1280 x 720","1280 x 720","true","1","10","","","","",""
"null","<p style=""font-size: 80px;"">+ 10 points</p>","null","html-keyboard-response","130","947220","0.0-11.0-2.129","5c2520f2f202160001f4c015","vpa4no","DO","40","m","{""name"":""Chrome"",""chrome"":true,""version"":""106.0"",""blink"":true,""windows"":true,""osname"":""Windows"",""osversion"":""10"",""a"":true}","9:20:43","1","4","Test_1","74","j","1","1456.8999999999069","1280 x 720","1280 x 720","true","1","10","","","","",""
"null","<p style=""font-size: 80px;"">+ 10 points</p>","null","html-keyboard-response","131","951162","0.0-11.0-2.130","5c2520f2f202160001f4c015","vpa4no","DO","40","m","{""name"":""Chrome"",""chrome"":true,""version"":""106.0"",""blink"":true,""windows"":true,""osname"":""Windows"",""osversion"":""10"",""a"":true}","9:20:43","1","4","Test_3","74","j","1","1917.8999999999069","1280 x 720","1280 x 720","true","1","10","","","","",""
"null","<p style=""font-size: 80px;"">+ 10 points</p>","null","html-keyboard-response","132","954391","0.0-11.0-2.131","5c2520f2f202160001f4c015","vpa4no","DO","40","m","{""name"":""Chrome"",""chrome"":true,""version"":""106.0"",""blink"":true,""windows"":true,""osname"":""Windows"",""osversion"":""10"",""a"":true}","9:20:43","1","4","Test_2","70","f","1","1207","1280 x 720","1280 x 720","true","1","10","","","","",""
"null","<p style=""font-size: 80px;"">+ 0 points</p>","null","html-keyboard-response","133","957427","0.0-11.0-2.132","5c2520f2f202160001f4c015","vpa4no","DO","40","m","{""name"":""Chrome"",""chrome"":true,""version"":""106.0"",""blink"":true,""windows"":true,""osname"":""Windows"",""osversion"":""10"",""a"":true}","9:20:43","1","3","Test_2","70","j","0","1012","1280 x 720","1280 x 720","true","1","0","","","","",""
"null","<p style=""font-size: 80px; line-height: 1.4em;"">Too late</br> Speed up!</p>","null","html-keyboard-response","134","964468","0.0-11.0-2.133","5c2520f2f202160001f4c015","vpa4no","DO","40","m","{""name"":""Chrome"",""chrome"":true,""version"":""106.0"",""blink"":true,""windows"":true,""osname"":""Windows"",""osversion"":""10"",""a"":true}","9:20:43","1","3","Test_3","null","f","0","null","1280 x 720","1280 x 720","true","1","0","","","","",""
"null","<p style=""font-size: 80px;"">+ 10 points</p>","null","html-keyboard-response","135","968734","0.0-11.0-2.134","5c2520f2f202160001f4c015","vpa4no","DO","40","m","{""name"":""Chrome"",""chrome"":true,""version"":""106.0"",""blink"":true,""windows"":true,""osname"":""Windows"",""osversion"":""10"",""a"":true}","9:20:43","1","3","Test_4","74","j","1","2253.100000000093","1280 x 720","1280 x 720","true","1","10","","","","",""
"null","<p style=""font-size: 80px;"">+ 10 points</p>","null","html-keyboard-response","136","972823","0.0-11.0-2.135","5c2520f2f202160001f4c015","vpa4no","DO","40","m","{""name"":""Chrome"",""chrome"":true,""version"":""106.0"",""blink"":true,""windows"":true,""osname"":""Windows"",""osversion"":""10"",""a"":true}","9:20:43","1","3","Test_3","70","f","1","2072.1999999997206","1280 x 720","1280 x 720","true","1","10","","","","",""
"null","<p style=""font-size: 80px;"">+ 10 points</p>","null","html-keyboard-response","137","975531","0.0-11.0-2.136","5c2520f2f202160001f4c015","vpa4no","DO","40","m","{""name"":""Chrome"",""chrome"":true,""version"":""106.0"",""blink"":true,""windows"":true,""osname"":""Windows"",""osversion"":""10"",""a"":true}","9:20:43","1","3","Test_4","74","j","1","681","1280 x 720","1280 x 720","true","1","10","","","","",""
"null","<p style=""font-size: 80px;"">+ 10 points</p>","null","html-keyboard-response","138","978321","0.0-11.0-2.137","5c2520f2f202160001f4c015","vpa4no","DO","40","m","{""name"":""Chrome"",""chrome"":true,""version"":""106.0"",""blink"":true,""windows"":true,""osname"":""Windows"",""osversion"":""10"",""a"":true}","9:20:43","1","3","Test_4","74","j","1","763.6000000000931","1280 x 720","1280 x 720","true","1","10","","","","",""
"null","<p style=""font-size: 80px;"">+ 10 points</p>","null","html-keyboard-response","139","981230","0.0-11.0-2.138","5c2520f2f202160001f4c015","vpa4no","DO","40","m","{""name"":""Chrome"",""chrome"":true,""version"":""106.0"",""blink"":true,""windows"":true,""osname"":""Windows"",""osversion"":""10"",""a"":true}","9:20:43","1","3","Test_3","70","f","1","883.5","1280 x 720","1280 x 720","true","1","10","","","","",""
"null","<p style=""font-size: 80px;"">+ 10 points</p>","null","html-keyboard-response","140","984021","0.0-11.0-2.139","5c2520f2f202160001f4c015","vpa4no","DO","40","m","{""name"":""Chrome"",""chrome"":true,""version"":""106.0"",""blink"":true,""windows"":true,""osname"":""Windows"",""osversion"":""10"",""a"":true}","9:20:43","1","3","Test_2","74","j","1","769.2000000001863","1280 x 720","1280 x 720","true","1","10","","","","",""
"null","<p style=""font-size: 80px;"">+ 10 points</p>","null","html-keyboard-response","141","986960","0.0-11.0-2.140","5c2520f2f202160001f4c015","vpa4no","DO","40","m","{""name"":""Chrome"",""chrome"":true,""version"":""106.0"",""blink"":true,""windows"":true,""osname"":""Windows"",""osversion"":""10"",""a"":true}","9:20:43","1","3","Test_1","70","f","1","912.2999999998137","1280 x 720","1280 x 720","true","1","10","","","","",""
"null","<p style=""font-size: 80px;"">+ 10 points</p>","null","html-keyboard-response","142","989705","0.0-11.0-2.141","5c2520f2f202160001f4c015","vpa4no","DO","40","m","{""name"":""Chrome"",""chrome"":true,""version"":""106.0"",""blink"":true,""windows"":true,""osname"":""Windows"",""osversion"":""10"",""a"":true}","9:20:43","1","3","Test_4","74","j","1","733","1280 x 720","1280 x 720","true","1","10","","","","",""
"null","<p style=""font-size: 80px;"">+ 10 points</p>","null","html-keyboard-response","143","992925","0.0-11.0-2.142","5c2520f2f202160001f4c015","vpa4no","DO","40","m","{""name"":""Chrome"",""chrome"":true,""version"":""106.0"",""blink"":true,""windows"":true,""osname"":""Windows"",""osversion"":""10"",""a"":true}","9:20:43","1","3","Test_2","74","j","1","1201.3999999999069","1280 x 720","1280 x 720","true","1","10","","","","",""
"null","<p style=""font-size: 80px;"">+ 10 points</p>","null","html-keyboard-response","144","996701","0.0-11.0-2.143","5c2520f2f202160001f4c015","vpa4no","DO","40","m","{""name"":""Chrome"",""chrome"":true,""version"":""106.0"",""blink"":true,""windows"":true,""osname"":""Windows"",""osversion"":""10"",""a"":true}","9:20:43","1","3","Test_1","70","f","1","1745.1999999997206","1280 x 720","1280 x 720","true","1","10","","","","",""
"null","<p style=""font-size: 80px;"">+ 10 points</p>","null","html-keyboard-response","145","1000157","0.0-11.0-2.144","5c2520f2f202160001f4c015","vpa4no","DO","40","m","{""name"":""Chrome"",""chrome"":true,""version"":""106.0"",""blink"":true,""windows"":true,""osname"":""Windows"",""osversion"":""10"",""a"":true}","9:20:43","1","3","Test_4","74","j","1","1422","1280 x 720","1280 x 720","true","1","10","","","","",""
"null","<p style=""font-size: 80px;"">+ 10 points</p>","null","html-keyboard-response","146","1003246","0.0-11.0-2.145","5c2520f2f202160001f4c015","vpa4no","DO","40","m","{""name"":""Chrome"",""chrome"":true,""version"":""106.0"",""blink"":true,""windows"":true,""osname"":""Windows"",""osversion"":""10"",""a"":true}","9:20:43","1","3","Test_4","74","j","1","1056.8999999999069","1280 x 720","1280 x 720","true","1","10","","","","",""
"null","<p style=""font-size: 80px;"">+ 0 points</p>","null","html-keyboard-response","147","1007286","0.0-11.0-2.146","5c2520f2f202160001f4c015","vpa4no","DO","40","m","{""name"":""Chrome"",""chrome"":true,""version"":""106.0"",""blink"":true,""windows"":true,""osname"":""Windows"",""osversion"":""10"",""a"":true}","9:20:43","1","3","Test_1","74","f","0","2006.8999999999069","1280 x 720","1280 x 720","true","1","0","","","","",""
