"rt","stimulus","key_press","trial_type","trial_index","time_elapsed","internal_node_id","Prolific_ID","random_ID","initials","age","gender","pc_info","start_time","Phase","Rule","Stimulus","Response","CorrResp","Accuracy","ResponseTime","screen_resolution","window_resolution","focus","relevant","Points","responses","question_order","rev_check","butterfly_check","passed_practice"
"null","<p style=""font-size: 80px;"">+ 0 points</p>","null","html-keyboard-response","1","98911","0.0-7.0-2.0","611e66a096a597c609ed90d7","y4xn4k","SS","34","F","{""name"":""Chrome"",""chrome"":true,""version"":""105.0"",""blink"":true,""windows"":true,""osname"":""Windows"",""osversion"":""10"",""a"":true}","9:16:23","0","1","Practice_4","70","j","0","2300.7999999523163","1920 x 1200","1920 x 1200","true","1","0","","","","",""
"null","<p style=""font-size: 80px;"">+ 0 points</p>","null","html-keyboard-response","2","102584","0.0-7.0-2.1","611e66a096a597c609ed90d7","y4xn4k","SS","34","F","{""name"":""Chrome"",""chrome"":true,""version"":""105.0"",""blink"":true,""windows"":true,""osname"":""Windows"",""osversion"":""10"",""a"":true}","9:16:23","0","1","Practice_2","70","j","0","1666.2999999523163","1920 x 1200","1920 x 1200","true","1","0","","","","",""
"null","<p style=""font-size: 80px;"">+ 10 points</p>","null","html-keyboard-response","3","108014","0.0-7.0-2.2","611e66a096a597c609ed90d7","y4xn4k","SS","34","F","{""name"":""Chrome"",""chrome"":true,""version"":""105.0"",""blink"":true,""windows"":true,""osname"":""Windows"",""osversion"":""10"",""a"":true}","9:16:23","0","1","Practice_3","70","f","1","3425.9000000953674","1920 x 1200","1920 x 1200","true","1","10","","","","",""
"null","<p style=""font-size: 80px;"">+ 10 points</p>","null","html-keyboard-response","4","111239","0.0-7.0-2.3","611e66a096a597c609ed90d7","y4xn4k","SS","34","F","{""name"":""Chrome"",""chrome"":true,""version"":""105.0"",""blink"":true,""windows"":true,""osname"":""Windows"",""osversion"":""10"",""a"":true}","9:16:23","0","1","Practice_4","74","j","1","1219.6000000238419","1920 x 1200","1920 x 1200","true","1","10","","","","",""
"null","<p style=""font-size: 80px;"">+ 10 points</p>","null","html-keyboard-response","5","114329","0.0-7.0-2.4","611e66a096a597c609ed90d7","y4xn4k","SS","34","F","{""name"":""Chrome"",""chrome"":true,""version"":""105.0"",""blink"":true,""windows"":true,""osname"":""Windows"",""osversion"":""10"",""a"":true}","9:16:23","0","1","Practice_2","74","j","1","1085.3000000715256","1920 x 1200","1920 x 1200","true","1","10","","","","",""
"null","<p style=""font-size: 80px;"">+ 10 points</p>","null","html-keyboard-response","6","117198","0.0-7.0-2.5","611e66a096a597c609ed90d7","y4xn4k","SS","34","F","{""name"":""Chrome"",""chrome"":true,""version"":""105.0"",""blink"":true,""windows"":true,""osname"":""Windows"",""osversion"":""10"",""a"":true}","9:16:23","0","1","Practice_3","70","f","1","864.2999999523163","1920 x 1200","1920 x 1200","true","1","10","","","","",""
"null","<p style=""font-size: 80px;"">+ 10 points</p>","null","html-keyboard-response","7","123032","0.0-7.0-2.6","611e66a096a597c609ed90d7","y4xn4k","SS","34","F","{""name"":""Chrome"",""chrome"":true,""version"":""105.0"",""blink"":true,""windows"":true,""osname"":""Windows"",""osversion"":""10"",""a"":true}","9:16:23","0","1","Practice_4","74","j","1","3827.100000023842","1920 x 1200","1920 x 1200","true","1","10","","","","",""
"null","<p style=""font-size: 80px;"">+ 10 points</p>","null","html-keyboard-response","8","126638","0.0-7.0-2.7","611e66a096a597c609ed90d7","y4xn4k","SS","34","F","{""name"":""Chrome"",""chrome"":true,""version"":""105.0"",""blink"":true,""windows"":true,""osname"":""Windows"",""osversion"":""10"",""a"":true}","9:16:23","0","1","Practice_1","70","f","1","1603.2999999523163","1920 x 1200","1920 x 1200","true","1","10","","","","",""
"null","<p style=""font-size: 80px;"">+ 10 points</p>","null","html-keyboard-response","9","129397","0.0-7.0-2.8","611e66a096a597c609ed90d7","y4xn4k","SS","34","F","{""name"":""Chrome"",""chrome"":true,""version"":""105.0"",""blink"":true,""windows"":true,""osname"":""Windows"",""osversion"":""10"",""a"":true}","9:16:23","0","1","Practice_1","70","f","1","756.7000000476837","1920 x 1200","1920 x 1200","true","1","10","","","","",""
"null","<p style=""font-size: 80px;"">+ 10 points</p>","null","html-keyboard-response","10","132872","0.0-7.0-2.9","611e66a096a597c609ed90d7","y4xn4k","SS","34","F","{""name"":""Chrome"",""chrome"":true,""version"":""105.0"",""blink"":true,""windows"":true,""osname"":""Windows"",""osversion"":""10"",""a"":true}","9:16:23","0","1","Practice_3","70","f","1","1467.2999999523163","1920 x 1200","1920 x 1200","true","1","10","","","","",""
"null","<p style=""font-size: 80px;"">+ 10 points</p>","null","html-keyboard-response","11","135718","0.0-7.0-2.10","611e66a096a597c609ed90d7","y4xn4k","SS","34","F","{""name"":""Chrome"",""chrome"":true,""version"":""105.0"",""blink"":true,""windows"":true,""osname"":""Windows"",""osversion"":""10"",""a"":true}","9:16:23","0","1","Practice_3","70","f","1","841.2000000476837","1920 x 1200","1920 x 1200","true","1","10","","","","",""
"null","<p style=""font-size: 80px;"">+ 0 points</p>","null","html-keyboard-response","12","138245","0.0-7.0-2.11","611e66a096a597c609ed90d7","y4xn4k","SS","34","F","{""name"":""Chrome"",""chrome"":true,""version"":""105.0"",""blink"":true,""windows"":true,""osname"":""Windows"",""osversion"":""10"",""a"":true}","9:16:23","0","1","Practice_1","74","f","0","523.1000000238419","1920 x 1200","1920 x 1200","true","1","0","","","","",""
"null","<p style=""font-size: 80px;"">+ 10 points</p>","null","html-keyboard-response","13","142430","0.0-7.0-2.12","611e66a096a597c609ed90d7","y4xn4k","SS","34","F","{""name"":""Chrome"",""chrome"":true,""version"":""105.0"",""blink"":true,""windows"":true,""osname"":""Windows"",""osversion"":""10"",""a"":true}","9:16:23","0","1","Practice_4","74","j","1","2179.7999999523163","1920 x 1200","1920 x 1200","true","1","10","","","","",""
"null","<p style=""font-size: 80px;"">+ 10 points</p>","null","html-keyboard-response","14","145478","0.0-7.0-2.13","611e66a096a597c609ed90d7","y4xn4k","SS","34","F","{""name"":""Chrome"",""chrome"":true,""version"":""105.0"",""blink"":true,""windows"":true,""osname"":""Windows"",""osversion"":""10"",""a"":true}","9:16:23","0","1","Practice_2","74","j","1","1042.7999999523163","1920 x 1200","1920 x 1200","true","1","10","","","","",""
"null","<p style=""font-size: 80px;"">+ 10 points</p>","null","html-keyboard-response","15","148720","0.0-7.0-2.14","611e66a096a597c609ed90d7","y4xn4k","SS","34","F","{""name"":""Chrome"",""chrome"":true,""version"":""105.0"",""blink"":true,""windows"":true,""osname"":""Windows"",""osversion"":""10"",""a"":true}","9:16:23","0","1","Practice_3","70","f","1","1237.2999999523163","1920 x 1200","1920 x 1200","true","1","10","","","","",""
"null","<p style=""font-size: 80px;"">+ 10 points</p>","null","html-keyboard-response","16","152150","0.0-7.0-2.15","611e66a096a597c609ed90d7","y4xn4k","SS","34","F","{""name"":""Chrome"",""chrome"":true,""version"":""105.0"",""blink"":true,""windows"":true,""osname"":""Windows"",""osversion"":""10"",""a"":true}","9:16:23","0","1","Practice_2","74","j","1","1425","1920 x 1200","1920 x 1200","true","1","10","","","","",""
"null","<p style=""font-size: 80px;"">+ 10 points</p>","null","html-keyboard-response","17","155112","0.0-7.0-2.16","611e66a096a597c609ed90d7","y4xn4k","SS","34","F","{""name"":""Chrome"",""chrome"":true,""version"":""105.0"",""blink"":true,""windows"":true,""osname"":""Windows"",""osversion"":""10"",""a"":true}","9:16:23","0","1","Practice_1","70","f","1","954","1920 x 1200","1920 x 1200","true","1","10","","","","",""
"null","<p style=""font-size: 80px;"">+ 10 points</p>","null","html-keyboard-response","18","158545","0.0-7.0-2.17","611e66a096a597c609ed90d7","y4xn4k","SS","34","F","{""name"":""Chrome"",""chrome"":true,""version"":""105.0"",""blink"":true,""windows"":true,""osname"":""Windows"",""osversion"":""10"",""a"":true}","9:16:23","0","1","Practice_2","74","j","1","1423.5999999046326","1920 x 1200","1920 x 1200","true","1","10","","","","",""
"null","<p style=""font-size: 80px;"">+ 10 points</p>","null","html-keyboard-response","19","161745","0.0-7.0-2.18","611e66a096a597c609ed90d7","y4xn4k","SS","34","F","{""name"":""Chrome"",""chrome"":true,""version"":""105.0"",""blink"":true,""windows"":true,""osname"":""Windows"",""osversion"":""10"",""a"":true}","9:16:23","0","1","Practice_4","74","j","1","1195","1920 x 1200","1920 x 1200","true","1","10","","","","",""
"null","<p style=""font-size: 80px; line-height: 1.4em;"">Too late</br> Speed up!</p>","null","html-keyboard-response","20","170227","0.0-7.0-2.19","611e66a096a597c609ed90d7","y4xn4k","SS","34","F","{""name"":""Chrome"",""chrome"":true,""version"":""105.0"",""blink"":true,""windows"":true,""osname"":""Windows"",""osversion"":""10"",""a"":true}","9:16:23","0","1","Practice_1","null","f","0","null","1920 x 1200","1920 x 1057","false","1","0","","","","",""
"null","<p style=""font-size: 80px; line-height: 1.4em;"">Too late</br> Speed up!</p>","null","html-keyboard-response","21","180238","0.0-7.0-2.20","611e66a096a597c609ed90d7","y4xn4k","SS","34","F","{""name"":""Chrome"",""chrome"":true,""version"":""105.0"",""blink"":true,""windows"":true,""osname"":""Windows"",""osversion"":""10"",""a"":true}","9:16:23","0","2","Practice_1","null","j","0","null","1920 x 1200","1920 x 1057","false","1","0","","","","",""
"null","<p style=""font-size: 80px;"">+ 0 points</p>","null","html-keyboard-response","22","185444","0.0-7.0-2.21","611e66a096a597c609ed90d7","y4xn4k","SS","34","F","{""name"":""Chrome"",""chrome"":true,""version"":""105.0"",""blink"":true,""windows"":true,""osname"":""Windows"",""osversion"":""10"",""a"":true}","9:16:23","0","2","Practice_3","70","j","0","3199.5","1920 x 1200","1920 x 1057","true","1","0","","","","",""
"null","<p style=""font-size: 80px;"">+ 0 points</p>","null","html-keyboard-response","23","190153","0.0-7.0-2.22","611e66a096a597c609ed90d7","y4xn4k","SS","34","F","{""name"":""Chrome"",""chrome"":true,""version"":""105.0"",""blink"":true,""windows"":true,""osname"":""Windows"",""osversion"":""10"",""a"":true}","9:16:23","0","2","Practice_1","70","j","0","2683.5999999046326","1920 x 1200","1920 x 1057","true","1","0","","","","",""
"null","<p style=""font-size: 80px;"">+ 10 points</p>","null","html-keyboard-response","24","193233","0.0-7.0-2.23","611e66a096a597c609ed90d7","y4xn4k","SS","34","F","{""name"":""Chrome"",""chrome"":true,""version"":""105.0"",""blink"":true,""windows"":true,""osname"":""Windows"",""osversion"":""10"",""a"":true}","9:16:23","0","2","Practice_2","70","f","1","1067","1920 x 1200","1920 x 1057","true","1","10","","","","",""
"null","<p style=""font-size: 80px;"">+ 10 points</p>","null","html-keyboard-response","25","196585","0.0-7.0-2.24","611e66a096a597c609ed90d7","y4xn4k","SS","34","F","{""name"":""Chrome"",""chrome"":true,""version"":""105.0"",""blink"":true,""windows"":true,""osname"":""Windows"",""osversion"":""10"",""a"":true}","9:16:23","0","2","Practice_4","70","f","1","1336.1000000238419","1920 x 1200","1920 x 1057","true","1","10","","","","",""
"null","<p style=""font-size: 80px;"">+ 10 points</p>","null","html-keyboard-response","26","200313","0.0-7.0-2.25","611e66a096a597c609ed90d7","y4xn4k","SS","34","F","{""name"":""Chrome"",""chrome"":true,""version"":""105.0"",""blink"":true,""windows"":true,""osname"":""Windows"",""osversion"":""10"",""a"":true}","9:16:23","0","2","Practice_3","74","j","1","1714","1920 x 1200","1920 x 1057","true","1","10","","","","",""
"null","<p style=""font-size: 80px;"">+ 10 points</p>","null","html-keyboard-response","27","203644","0.0-7.0-2.26","611e66a096a597c609ed90d7","y4xn4k","SS","34","F","{""name"":""Chrome"",""chrome"":true,""version"":""105.0"",""blink"":true,""windows"":true,""osname"":""Windows"",""osversion"":""10"",""a"":true}","9:16:23","0","2","Practice_1","74","j","1","1312","1920 x 1200","1920 x 1057","true","1","10","","","","",""
"null","<p style=""font-size: 80px;"">+ 0 points</p>","null","html-keyboard-response","28","208115","0.0-7.0-2.27","611e66a096a597c609ed90d7","y4xn4k","SS","34","F","{""name"":""Chrome"",""chrome"":true,""version"":""105.0"",""blink"":true,""windows"":true,""osname"":""Windows"",""osversion"":""10"",""a"":true}","9:16:23","0","2","Practice_1","70","j","0","2453.899999976158","1920 x 1200","1920 x 1057","true","1","0","","","","",""
"null","<p style=""font-size: 80px;"">+ 10 points</p>","null","html-keyboard-response","29","210861","0.0-7.0-2.28","611e66a096a597c609ed90d7","y4xn4k","SS","34","F","{""name"":""Chrome"",""chrome"":true,""version"":""105.0"",""blink"":true,""windows"":true,""osname"":""Windows"",""osversion"":""10"",""a"":true}","9:16:23","0","2","Practice_4","70","f","1","724.3999999761581","1920 x 1200","1920 x 1057","true","1","10","","","","",""
"null","<p style=""font-size: 80px;"">+ 0 points</p>","null","html-keyboard-response","30","214565","0.0-7.0-2.29","611e66a096a597c609ed90d7","y4xn4k","SS","34","F","{""name"":""Chrome"",""chrome"":true,""version"":""105.0"",""blink"":true,""windows"":true,""osname"":""Windows"",""osversion"":""10"",""a"":true}","9:16:23","0","2","Practice_2","74","f","0","1682.5","1920 x 1200","1920 x 1057","true","1","0","","","","",""
"null","<p style=""font-size: 80px;"">+ 10 points</p>","null","html-keyboard-response","31","218975","0.0-7.0-2.30","611e66a096a597c609ed90d7","y4xn4k","SS","34","F","{""name"":""Chrome"",""chrome"":true,""version"":""105.0"",""blink"":true,""windows"":true,""osname"":""Windows"",""osversion"":""10"",""a"":true}","9:16:23","0","2","Practice_4","70","f","1","2387.399999976158","1920 x 1200","1920 x 1057","true","1","10","","","","",""
"null","<p style=""font-size: 80px;"">+ 10 points</p>","null","html-keyboard-response","32","221799","0.0-7.0-2.31","611e66a096a597c609ed90d7","y4xn4k","SS","34","F","{""name"":""Chrome"",""chrome"":true,""version"":""105.0"",""blink"":true,""windows"":true,""osname"":""Windows"",""osversion"":""10"",""a"":true}","9:16:23","0","2","Practice_4","70","f","1","793.5","1920 x 1200","1920 x 1057","true","1","10","","","","",""
"null","<p style=""font-size: 80px;"">+ 10 points</p>","null","html-keyboard-response","33","226383","0.0-7.0-2.32","611e66a096a597c609ed90d7","y4xn4k","SS","34","F","{""name"":""Chrome"",""chrome"":true,""version"":""105.0"",""blink"":true,""windows"":true,""osname"":""Windows"",""osversion"":""10"",""a"":true}","9:16:23","0","2","Practice_1","74","j","1","2551.100000023842","1920 x 1200","1920 x 1057","true","1","10","","","","",""
"null","<p style=""font-size: 80px;"">+ 10 points</p>","null","html-keyboard-response","34","229762","0.0-7.0-2.33","611e66a096a597c609ed90d7","y4xn4k","SS","34","F","{""name"":""Chrome"",""chrome"":true,""version"":""105.0"",""blink"":true,""windows"":true,""osname"":""Windows"",""osversion"":""10"",""a"":true}","9:16:23","0","2","Practice_3","74","j","1","1366.3999999761581","1920 x 1200","1920 x 1057","true","1","10","","","","",""
"null","<p style=""font-size: 80px;"">+ 10 points</p>","null","html-keyboard-response","35","232962","0.0-7.0-2.34","611e66a096a597c609ed90d7","y4xn4k","SS","34","F","{""name"":""Chrome"",""chrome"":true,""version"":""105.0"",""blink"":true,""windows"":true,""osname"":""Windows"",""osversion"":""10"",""a"":true}","9:16:23","0","2","Practice_2","70","f","1","1183.5","1920 x 1200","1920 x 1057","true","1","10","","","","",""
"null","<p style=""font-size: 80px;"">+ 0 points</p>","null","html-keyboard-response","36","236306","0.0-7.0-2.35","611e66a096a597c609ed90d7","y4xn4k","SS","34","F","{""name"":""Chrome"",""chrome"":true,""version"":""105.0"",""blink"":true,""windows"":true,""osname"":""Windows"",""osversion"":""10"",""a"":true}","9:16:23","0","2","Practice_3","70","j","0","1320.2999999523163","1920 x 1200","1920 x 1057","true","1","0","","","","",""
"null","<p style=""font-size: 80px;"">+ 10 points</p>","null","html-keyboard-response","37","240324","0.0-7.0-2.36","611e66a096a597c609ed90d7","y4xn4k","SS","34","F","{""name"":""Chrome"",""chrome"":true,""version"":""105.0"",""blink"":true,""windows"":true,""osname"":""Windows"",""osversion"":""10"",""a"":true}","9:16:23","0","2","Practice_2","70","f","1","2002.7999999523163","1920 x 1200","1920 x 1057","true","1","10","","","","",""
"null","<p style=""font-size: 80px;"">+ 10 points</p>","null","html-keyboard-response","38","243415","0.0-7.0-2.37","611e66a096a597c609ed90d7","y4xn4k","SS","34","F","{""name"":""Chrome"",""chrome"":true,""version"":""105.0"",""blink"":true,""windows"":true,""osname"":""Windows"",""osversion"":""10"",""a"":true}","9:16:23","0","2","Practice_4","70","f","1","1060.8999999761581","1920 x 1200","1920 x 1057","true","1","10","","","","",""
"null","<p style=""font-size: 80px;"">+ 10 points</p>","null","html-keyboard-response","39","246598","0.0-7.0-2.38","611e66a096a597c609ed90d7","y4xn4k","SS","34","F","{""name"":""Chrome"",""chrome"":true,""version"":""105.0"",""blink"":true,""windows"":true,""osname"":""Windows"",""osversion"":""10"",""a"":true}","9:16:23","0","2","Practice_3","74","j","1","1154.6999999284744","1920 x 1200","1920 x 1057","true","1","10","","","","",""
"null","<p style=""font-size: 80px;"">+ 0 points</p>","null","html-keyboard-response","40","249832","0.0-7.0-2.39","611e66a096a597c609ed90d7","y4xn4k","SS","34","F","{""name"":""Chrome"",""chrome"":true,""version"":""105.0"",""blink"":true,""windows"":true,""osname"":""Windows"",""osversion"":""10"",""a"":true}","9:16:23","0","2","Practice_2","74","f","0","1202.6999999284744","1920 x 1200","1920 x 1057","true","1","0","","","","",""
"8039.800000071526","","","survey-multi-choice","127","257874","0.0-8.0","611e66a096a597c609ed90d7","y4xn4k","SS","34","F","{""name"":""Chrome"",""chrome"":true,""version"":""105.0"",""blink"":true,""windows"":true,""osname"":""Windows"",""osversion"":""10"",""a"":true}","9:16:23","","","","","","","","","","","1","","{""Q0"":""The red one"",""Q1"":""1""}","[0,1]","1","The red one","2"
"null","<p style=""font-size: 80px;"">+ 0 points</p>","null","html-keyboard-response","1","270600","0.0-11.0-2.0","611e66a096a597c609ed90d7","y4xn4k","SS","34","F","{""name"":""Chrome"",""chrome"":true,""version"":""105.0"",""blink"":true,""windows"":true,""osname"":""Windows"",""osversion"":""10"",""a"":true}","9:16:23","1","3","Test_4","70","j","0","573.9000000953674","1920 x 1200","1920 x 1057","true","1","0","","","","",""
"null","<p style=""font-size: 80px;"">+ 10 points</p>","null","html-keyboard-response","2","273703","0.0-11.0-2.1","611e66a096a597c609ed90d7","y4xn4k","SS","34","F","{""name"":""Chrome"",""chrome"":true,""version"":""105.0"",""blink"":true,""windows"":true,""osname"":""Windows"",""osversion"":""10"",""a"":true}","9:16:23","1","3","Test_3","70","f","1","1078.6000000238419","1920 x 1200","1920 x 1057","true","1","10","","","","",""
"null","<p style=""font-size: 80px;"">+ 10 points</p>","null","html-keyboard-response","3","276368","0.0-11.0-2.2","611e66a096a597c609ed90d7","y4xn4k","SS","34","F","{""name"":""Chrome"",""chrome"":true,""version"":""105.0"",""blink"":true,""windows"":true,""osname"":""Windows"",""osversion"":""10"",""a"":true}","9:16:23","1","3","Test_4","74","j","1","639.1000000238419","1920 x 1200","1920 x 1057","true","1","10","","","","",""
"null","<p style=""font-size: 80px;"">+ 10 points</p>","null","html-keyboard-response","4","279637","0.0-11.0-2.3","611e66a096a597c609ed90d7","y4xn4k","SS","34","F","{""name"":""Chrome"",""chrome"":true,""version"":""105.0"",""blink"":true,""windows"":true,""osname"":""Windows"",""osversion"":""10"",""a"":true}","9:16:23","1","3","Test_1","70","f","1","1249.9000000953674","1920 x 1200","1920 x 1057","true","1","10","","","","",""
"null","<p style=""font-size: 80px;"">+ 10 points</p>","null","html-keyboard-response","5","284106","0.0-11.0-2.4","611e66a096a597c609ed90d7","y4xn4k","SS","34","F","{""name"":""Chrome"",""chrome"":true,""version"":""105.0"",""blink"":true,""windows"":true,""osname"":""Windows"",""osversion"":""10"",""a"":true}","9:16:23","1","3","Test_3","70","f","1","2444.600000023842","1920 x 1200","1920 x 1057","true","1","10","","","","",""
"null","<p style=""font-size: 80px;"">+ 10 points</p>","null","html-keyboard-response","6","287581","0.0-11.0-2.5","611e66a096a597c609ed90d7","y4xn4k","SS","34","F","{""name"":""Chrome"",""chrome"":true,""version"":""105.0"",""blink"":true,""windows"":true,""osname"":""Windows"",""osversion"":""10"",""a"":true}","9:16:23","1","3","Test_1","70","f","1","1458.8999999761581","1920 x 1200","1920 x 1057","true","1","10","","","","",""
"null","<p style=""font-size: 80px;"">+ 10 points</p>","null","html-keyboard-response","7","290580","0.0-11.0-2.6","611e66a096a597c609ed90d7","y4xn4k","SS","34","F","{""name"":""Chrome"",""chrome"":true,""version"":""105.0"",""blink"":true,""windows"":true,""osname"":""Windows"",""osversion"":""10"",""a"":true}","9:16:23","1","3","Test_2","74","j","1","979.0999999046326","1920 x 1200","1920 x 1057","true","1","10","","","","",""
"null","<p style=""font-size: 80px;"">+ 0 points</p>","null","html-keyboard-response","8","293958","0.0-11.0-2.7","611e66a096a597c609ed90d7","y4xn4k","SS","34","F","{""name"":""Chrome"",""chrome"":true,""version"":""105.0"",""blink"":true,""windows"":true,""osname"":""Windows"",""osversion"":""10"",""a"":true}","9:16:23","1","3","Test_3","74","f","0","1357.7000000476837","1920 x 1200","1920 x 1057","true","1","0","","","","",""
"null","<p style=""font-size: 80px;"">+ 10 points</p>","null","html-keyboard-response","9","297428","0.0-11.0-2.8","611e66a096a597c609ed90d7","y4xn4k","SS","34","F","{""name"":""Chrome"",""chrome"":true,""version"":""105.0"",""blink"":true,""windows"":true,""osname"":""Windows"",""osversion"":""10"",""a"":true}","9:16:23","1","3","Test_2","74","j","1","1457.1000000238419","1920 x 1200","1920 x 1057","true","1","10","","","","",""
"null","<p style=""font-size: 80px;"">+ 10 points</p>","null","html-keyboard-response","10","302615","0.0-11.0-2.9","611e66a096a597c609ed90d7","y4xn4k","SS","34","F","{""name"":""Chrome"",""chrome"":true,""version"":""105.0"",""blink"":true,""windows"":true,""osname"":""Windows"",""osversion"":""10"",""a"":true}","9:16:23","1","3","Test_1","70","f","1","3167.7999999523163","1920 x 1200","1920 x 1057","true","1","10","","","","",""
"null","<p style=""font-size: 80px;"">+ 10 points</p>","null","html-keyboard-response","11","305599","0.0-11.0-2.10","611e66a096a597c609ed90d7","y4xn4k","SS","34","F","{""name"":""Chrome"",""chrome"":true,""version"":""105.0"",""blink"":true,""windows"":true,""osname"":""Windows"",""osversion"":""10"",""a"":true}","9:16:23","1","3","Test_4","74","j","1","973.5","1920 x 1200","1920 x 1057","true","1","10","","","","",""
"null","<p style=""font-size: 80px;"">+ 10 points</p>","null","html-keyboard-response","12","308511","0.0-11.0-2.11","611e66a096a597c609ed90d7","y4xn4k","SS","34","F","{""name"":""Chrome"",""chrome"":true,""version"":""105.0"",""blink"":true,""windows"":true,""osname"":""Windows"",""osversion"":""10"",""a"":true}","9:16:23","1","3","Test_2","74","j","1","888.7000000476837","1920 x 1200","1920 x 1057","true","1","10","","","","",""
"null","<p style=""font-size: 80px;"">+ 10 points</p>","null","html-keyboard-response","13","312061","0.0-11.0-2.12","611e66a096a597c609ed90d7","y4xn4k","SS","34","F","{""name"":""Chrome"",""chrome"":true,""version"":""105.0"",""blink"":true,""windows"":true,""osname"":""Windows"",""osversion"":""10"",""a"":true}","9:16:23","1","3","Test_3","70","f","1","1521.2999999523163","1920 x 1200","1920 x 1057","true","1","10","","","","",""
"null","<p style=""font-size: 80px;"">+ 10 points</p>","null","html-keyboard-response","14","315115","0.0-11.0-2.13","611e66a096a597c609ed90d7","y4xn4k","SS","34","F","{""name"":""Chrome"",""chrome"":true,""version"":""105.0"",""blink"":true,""windows"":true,""osname"":""Windows"",""osversion"":""10"",""a"":true}","9:16:23","1","3","Test_4","74","j","1","1049.2000000476837","1920 x 1200","1920 x 1057","true","1","10","","","","",""
"null","<p style=""font-size: 80px;"">+ 10 points</p>","null","html-keyboard-response","15","318745","0.0-11.0-2.14","611e66a096a597c609ed90d7","y4xn4k","SS","34","F","{""name"":""Chrome"",""chrome"":true,""version"":""105.0"",""blink"":true,""windows"":true,""osname"":""Windows"",""osversion"":""10"",""a"":true}","9:16:23","1","3","Test_1","70","f","1","1597.5","1920 x 1200","1920 x 1057","true","1","10","","","","",""
"null","<p style=""font-size: 80px;"">+ 10 points</p>","null","html-keyboard-response","16","321848","0.0-11.0-2.15","611e66a096a597c609ed90d7","y4xn4k","SS","34","F","{""name"":""Chrome"",""chrome"":true,""version"":""105.0"",""blink"":true,""windows"":true,""osname"":""Windows"",""osversion"":""10"",""a"":true}","9:16:23","1","3","Test_3","70","f","1","1084.8000000715256","1920 x 1200","1920 x 1057","true","1","10","","","","",""
"null","<p style=""font-size: 80px;"">+ 10 points</p>","null","html-keyboard-response","17","325633","0.0-11.0-2.16","611e66a096a597c609ed90d7","y4xn4k","SS","34","F","{""name"":""Chrome"",""chrome"":true,""version"":""105.0"",""blink"":true,""windows"":true,""osname"":""Windows"",""osversion"":""10"",""a"":true}","9:16:23","1","3","Test_2","74","j","1","1765.2000000476837","1920 x 1200","1920 x 1057","true","1","10","","","","",""
"null","<p style=""font-size: 80px;"">+ 0 points</p>","null","html-keyboard-response","18","329162","0.0-11.0-2.17","611e66a096a597c609ed90d7","y4xn4k","SS","34","F","{""name"":""Chrome"",""chrome"":true,""version"":""105.0"",""blink"":true,""windows"":true,""osname"":""Windows"",""osversion"":""10"",""a"":true}","9:16:23","1","4","Test_3","70","j","0","1505.3999999761581","1920 x 1200","1920 x 1057","true","1","0","","","","",""
"null","<p style=""font-size: 80px;"">+ 10 points</p>","null","html-keyboard-response","19","331881","0.0-11.0-2.18","611e66a096a597c609ed90d7","y4xn4k","SS","34","F","{""name"":""Chrome"",""chrome"":true,""version"":""105.0"",""blink"":true,""windows"":true,""osname"":""Windows"",""osversion"":""10"",""a"":true}","9:16:23","1","4","Test_2","70","f","1","711.6000000238419","1920 x 1200","1920 x 1057","true","1","10","","","","",""
"null","<p style=""font-size: 80px;"">+ 10 points</p>","null","html-keyboard-response","20","334312","0.0-11.0-2.19","611e66a096a597c609ed90d7","y4xn4k","SS","34","F","{""name"":""Chrome"",""chrome"":true,""version"":""105.0"",""blink"":true,""windows"":true,""osname"":""Windows"",""osversion"":""10"",""a"":true}","9:16:23","1","4","Test_2","70","f","1","409.60000002384186","1920 x 1200","1920 x 1057","true","1","10","","","","",""
"null","<p style=""font-size: 80px;"">+ 0 points</p>","null","html-keyboard-response","21","337027","0.0-11.0-2.20","611e66a096a597c609ed90d7","y4xn4k","SS","34","F","{""name"":""Chrome"",""chrome"":true,""version"":""105.0"",""blink"":true,""windows"":true,""osname"":""Windows"",""osversion"":""10"",""a"":true}","9:16:23","1","4","Test_1","70","j","0","691.8000000715256","1920 x 1200","1920 x 1057","true","1","0","","","","",""
"null","<p style=""font-size: 80px;"">+ 10 points</p>","null","html-keyboard-response","22","339652","0.0-11.0-2.21","611e66a096a597c609ed90d7","y4xn4k","SS","34","F","{""name"":""Chrome"",""chrome"":true,""version"":""105.0"",""blink"":true,""windows"":true,""osname"":""Windows"",""osversion"":""10"",""a"":true}","9:16:23","1","4","Test_1","74","j","1","591.6000000238419","1920 x 1200","1920 x 1057","true","1","10","","","","",""
"null","<p style=""font-size: 80px;"">+ 0 points</p>","null","html-keyboard-response","23","342351","0.0-11.0-2.22","611e66a096a597c609ed90d7","y4xn4k","SS","34","F","{""name"":""Chrome"",""chrome"":true,""version"":""105.0"",""blink"":true,""windows"":true,""osname"":""Windows"",""osversion"":""10"",""a"":true}","9:16:23","1","4","Test_2","74","f","0","679","1920 x 1200","1920 x 1057","true","1","0","","","","",""
"null","<p style=""font-size: 80px;"">+ 10 points</p>","null","html-keyboard-response","24","348717","0.0-11.0-2.23","611e66a096a597c609ed90d7","y4xn4k","SS","34","F","{""name"":""Chrome"",""chrome"":true,""version"":""105.0"",""blink"":true,""windows"":true,""osname"":""Windows"",""osversion"":""10"",""a"":true}","9:16:23","1","4","Test_3","74","j","1","4335.5","1920 x 1200","1920 x 1057","true","1","10","","","","",""
"null","<p style=""font-size: 80px;"">+ 10 points</p>","null","html-keyboard-response","25","351255","0.0-11.0-2.24","611e66a096a597c609ed90d7","y4xn4k","SS","34","F","{""name"":""Chrome"",""chrome"":true,""version"":""105.0"",""blink"":true,""windows"":true,""osname"":""Windows"",""osversion"":""10"",""a"":true}","9:16:23","1","4","Test_3","74","j","1","506.2000000476837","1920 x 1200","1920 x 1057","true","1","10","","","","",""
"null","<p style=""font-size: 80px;"">+ 10 points</p>","null","html-keyboard-response","26","356123","0.0-11.0-2.25","611e66a096a597c609ed90d7","y4xn4k","SS","34","F","{""name"":""Chrome"",""chrome"":true,""version"":""105.0"",""blink"":true,""windows"":true,""osname"":""Windows"",""osversion"":""10"",""a"":true}","9:16:23","1","4","Test_1","74","j","1","2835.100000023842","1920 x 1200","1920 x 1057","true","1","10","","","","",""
"null","<p style=""font-size: 80px;"">+ 10 points</p>","null","html-keyboard-response","27","362352","0.0-11.0-2.26","611e66a096a597c609ed90d7","y4xn4k","SS","34","F","{""name"":""Chrome"",""chrome"":true,""version"":""105.0"",""blink"":true,""windows"":true,""osname"":""Windows"",""osversion"":""10"",""a"":true}","9:16:23","1","4","Test_1","74","j","1","4198.5","1920 x 1200","1920 x 1057","true","1","10","","","","",""
"null","<p style=""font-size: 80px;"">+ 0 points</p>","null","html-keyboard-response","28","366306","0.0-11.0-2.27","611e66a096a597c609ed90d7","y4xn4k","SS","34","F","{""name"":""Chrome"",""chrome"":true,""version"":""105.0"",""blink"":true,""windows"":true,""osname"":""Windows"",""osversion"":""10"",""a"":true}","9:16:23","1","4","Test_3","70","j","0","1933.5","1920 x 1200","1920 x 1057","true","1","0","","","","",""
"null","<p style=""font-size: 80px;"">+ 10 points</p>","null","html-keyboard-response","29","369402","0.0-11.0-2.28","611e66a096a597c609ed90d7","y4xn4k","SS","34","F","{""name"":""Chrome"",""chrome"":true,""version"":""105.0"",""blink"":true,""windows"":true,""osname"":""Windows"",""osversion"":""10"",""a"":true}","9:16:23","1","4","Test_4","70","f","1","1085.3999999761581","1920 x 1200","1920 x 1057","true","1","10","","","","",""
"null","<p style=""font-size: 80px;"">+ 10 points</p>","null","html-keyboard-response","30","372145","0.0-11.0-2.29","611e66a096a597c609ed90d7","y4xn4k","SS","34","F","{""name"":""Chrome"",""chrome"":true,""version"":""105.0"",""blink"":true,""windows"":true,""osname"":""Windows"",""osversion"":""10"",""a"":true}","9:16:23","1","4","Test_4","70","f","1","723.5999999046326","1920 x 1200","1920 x 1057","true","1","10","","","","",""
"null","<p style=""font-size: 80px;"">+ 10 points</p>","null","html-keyboard-response","31","375263","0.0-11.0-2.30","611e66a096a597c609ed90d7","y4xn4k","SS","34","F","{""name"":""Chrome"",""chrome"":true,""version"":""105.0"",""blink"":true,""windows"":true,""osname"":""Windows"",""osversion"":""10"",""a"":true}","9:16:23","1","4","Test_2","70","f","1","1100.0999999046326","1920 x 1200","1920 x 1057","true","1","10","","","","",""
"null","<p style=""font-size: 80px;"">+ 10 points</p>","null","html-keyboard-response","32","378157","0.0-11.0-2.31","611e66a096a597c609ed90d7","y4xn4k","SS","34","F","{""name"":""Chrome"",""chrome"":true,""version"":""105.0"",""blink"":true,""windows"":true,""osname"":""Windows"",""osversion"":""10"",""a"":true}","9:16:23","1","4","Test_4","70","f","1","890.1999999284744","1920 x 1200","1920 x 1057","true","1","10","","","","",""
"null","<p style=""font-size: 80px;"">+ 10 points</p>","null","html-keyboard-response","33","381194","0.0-11.0-2.32","611e66a096a597c609ed90d7","y4xn4k","SS","34","F","{""name"":""Chrome"",""chrome"":true,""version"":""105.0"",""blink"":true,""windows"":true,""osname"":""Windows"",""osversion"":""10"",""a"":true}","9:16:23","1","4","Test_1","74","j","1","1007.1000000238419","1920 x 1200","1920 x 1057","true","1","10","","","","",""
"null","<p style=""font-size: 80px;"">+ 10 points</p>","null","html-keyboard-response","34","384985","0.0-11.0-2.33","611e66a096a597c609ed90d7","y4xn4k","SS","34","F","{""name"":""Chrome"",""chrome"":true,""version"":""105.0"",""blink"":true,""windows"":true,""osname"":""Windows"",""osversion"":""10"",""a"":true}","9:16:23","1","4","Test_4","70","f","1","1761.1000000238419","1920 x 1200","1920 x 1057","true","1","10","","","","",""
"null","<p style=""font-size: 80px;"">+ 10 points</p>","null","html-keyboard-response","35","389271","0.0-11.0-2.34","611e66a096a597c609ed90d7","y4xn4k","SS","34","F","{""name"":""Chrome"",""chrome"":true,""version"":""105.0"",""blink"":true,""windows"":true,""osname"":""Windows"",""osversion"":""10"",""a"":true}","9:16:23","1","4","Test_4","70","f","1","2259","1920 x 1200","1920 x 1057","true","1","10","","","","",""
"null","<p style=""font-size: 80px;"">+ 10 points</p>","null","html-keyboard-response","36","391873","0.0-11.0-2.35","611e66a096a597c609ed90d7","y4xn4k","SS","34","F","{""name"":""Chrome"",""chrome"":true,""version"":""105.0"",""blink"":true,""windows"":true,""osname"":""Windows"",""osversion"":""10"",""a"":true}","9:16:23","1","4","Test_4","70","f","1","582.3999999761581","1920 x 1200","1920 x 1057","true","1","10","","","","",""
"null","<p style=""font-size: 80px;"">+ 10 points</p>","null","html-keyboard-response","37","394477","0.0-11.0-2.36","611e66a096a597c609ed90d7","y4xn4k","SS","34","F","{""name"":""Chrome"",""chrome"":true,""version"":""105.0"",""blink"":true,""windows"":true,""osname"":""Windows"",""osversion"":""10"",""a"":true}","9:16:23","1","4","Test_2","70","f","1","578.3000000715256","1920 x 1200","1920 x 1057","true","1","10","","","","",""
"null","<p style=""font-size: 80px;"">+ 10 points</p>","null","html-keyboard-response","38","397224","0.0-11.0-2.37","611e66a096a597c609ed90d7","y4xn4k","SS","34","F","{""name"":""Chrome"",""chrome"":true,""version"":""105.0"",""blink"":true,""windows"":true,""osname"":""Windows"",""osversion"":""10"",""a"":true}","9:16:23","1","4","Test_2","70","f","1","719.6999999284744","1920 x 1200","1920 x 1057","true","1","10","","","","",""
"null","<p style=""font-size: 80px;"">+ 10 points</p>","null","html-keyboard-response","39","400765","0.0-11.0-2.38","611e66a096a597c609ed90d7","y4xn4k","SS","34","F","{""name"":""Chrome"",""chrome"":true,""version"":""105.0"",""blink"":true,""windows"":true,""osname"":""Windows"",""osversion"":""10"",""a"":true}","9:16:23","1","4","Test_1","74","j","1","1509.1000000238419","1920 x 1200","1920 x 1057","true","1","10","","","","",""
"null","<p style=""font-size: 80px;"">+ 10 points</p>","null","html-keyboard-response","40","404070","0.0-11.0-2.39","611e66a096a597c609ed90d7","y4xn4k","SS","34","F","{""name"":""Chrome"",""chrome"":true,""version"":""105.0"",""blink"":true,""windows"":true,""osname"":""Windows"",""osversion"":""10"",""a"":true}","9:16:23","1","4","Test_3","74","j","1","1278.3999999761581","1920 x 1200","1920 x 1057","true","1","10","","","","",""
"null","<p style=""font-size: 80px;"">+ 10 points</p>","null","html-keyboard-response","41","406536","0.0-11.0-2.40","611e66a096a597c609ed90d7","y4xn4k","SS","34","F","{""name"":""Chrome"",""chrome"":true,""version"":""105.0"",""blink"":true,""windows"":true,""osname"":""Windows"",""osversion"":""10"",""a"":true}","9:16:23","1","4","Test_3","74","j","1","436.7000000476837","1920 x 1200","1920 x 1057","true","1","10","","","","",""
"null","<p style=""font-size: 80px;"">+ 0 points</p>","null","html-keyboard-response","42","409298","0.0-11.0-2.41","611e66a096a597c609ed90d7","y4xn4k","SS","34","F","{""name"":""Chrome"",""chrome"":true,""version"":""105.0"",""blink"":true,""windows"":true,""osname"":""Windows"",""osversion"":""10"",""a"":true}","9:16:23","1","3","Test_2","70","j","0","734","1920 x 1200","1920 x 1057","true","1","0","","","","",""
"null","<p style=""font-size: 80px;"">+ 10 points</p>","null","html-keyboard-response","43","411792","0.0-11.0-2.42","611e66a096a597c609ed90d7","y4xn4k","SS","34","F","{""name"":""Chrome"",""chrome"":true,""version"":""105.0"",""blink"":true,""windows"":true,""osname"":""Windows"",""osversion"":""10"",""a"":true}","9:16:23","1","3","Test_2","74","j","1","465.90000009536743","1920 x 1200","1920 x 1057","true","1","10","","","","",""
"null","<p style=""font-size: 80px;"">+ 0 points</p>","null","html-keyboard-response","44","414408","0.0-11.0-2.43","611e66a096a597c609ed90d7","y4xn4k","SS","34","F","{""name"":""Chrome"",""chrome"":true,""version"":""105.0"",""blink"":true,""windows"":true,""osname"":""Windows"",""osversion"":""10"",""a"":true}","9:16:23","1","3","Test_3","74","f","0","586.5999999046326","1920 x 1200","1920 x 1057","true","1","0","","","","",""
"null","<p style=""font-size: 80px;"">+ 10 points</p>","null","html-keyboard-response","45","416963","0.0-11.0-2.44","611e66a096a597c609ed90d7","y4xn4k","SS","34","F","{""name"":""Chrome"",""chrome"":true,""version"":""105.0"",""blink"":true,""windows"":true,""osname"":""Windows"",""osversion"":""10"",""a"":true}","9:16:23","1","3","Test_3","70","f","1","534.7999999523163","1920 x 1200","1920 x 1057","true","1","10","","","","",""
"null","<p style=""font-size: 80px;"">+ 10 points</p>","null","html-keyboard-response","46","419887","0.0-11.0-2.45","611e66a096a597c609ed90d7","y4xn4k","SS","34","F","{""name"":""Chrome"",""chrome"":true,""version"":""105.0"",""blink"":true,""windows"":true,""osname"":""Windows"",""osversion"":""10"",""a"":true}","9:16:23","1","3","Test_4","74","j","1","903.3999999761581","1920 x 1200","1920 x 1057","true","1","10","","","","",""
"null","<p style=""font-size: 80px;"">+ 10 points</p>","null","html-keyboard-response","47","422477","0.0-11.0-2.46","611e66a096a597c609ed90d7","y4xn4k","SS","34","F","{""name"":""Chrome"",""chrome"":true,""version"":""105.0"",""blink"":true,""windows"":true,""osname"":""Windows"",""osversion"":""10"",""a"":true}","9:16:23","1","3","Test_4","74","j","1","564.1000000238419","1920 x 1200","1920 x 1057","true","1","10","","","","",""
"null","<p style=""font-size: 80px;"">+ 10 points</p>","null","html-keyboard-response","48","425307","0.0-11.0-2.47","611e66a096a597c609ed90d7","y4xn4k","SS","34","F","{""name"":""Chrome"",""chrome"":true,""version"":""105.0"",""blink"":true,""windows"":true,""osname"":""Windows"",""osversion"":""10"",""a"":true}","9:16:23","1","3","Test_3","70","f","1","808.2999999523163","1920 x 1200","1920 x 1057","true","1","10","","","","",""
"null","<p style=""font-size: 80px;"">+ 10 points</p>","null","html-keyboard-response","49","427989","0.0-11.0-2.48","611e66a096a597c609ed90d7","y4xn4k","SS","34","F","{""name"":""Chrome"",""chrome"":true,""version"":""105.0"",""blink"":true,""windows"":true,""osname"":""Windows"",""osversion"":""10"",""a"":true}","9:16:23","1","3","Test_1","70","f","1","665.1000000238419","1920 x 1200","1920 x 1057","true","1","10","","","","",""
"null","<p style=""font-size: 80px;"">+ 0 points</p>","null","html-keyboard-response","50","431258","0.0-11.0-2.49","611e66a096a597c609ed90d7","y4xn4k","SS","34","F","{""name"":""Chrome"",""chrome"":true,""version"":""105.0"",""blink"":true,""windows"":true,""osname"":""Windows"",""osversion"":""10"",""a"":true}","9:16:23","1","3","Test_2","70","j","0","1240.3999999761581","1920 x 1200","1920 x 1057","true","1","0","","","","",""
"null","<p style=""font-size: 80px;"">+ 10 points</p>","null","html-keyboard-response","51","433930","0.0-11.0-2.50","611e66a096a597c609ed90d7","y4xn4k","SS","34","F","{""name"":""Chrome"",""chrome"":true,""version"":""105.0"",""blink"":true,""windows"":true,""osname"":""Windows"",""osversion"":""10"",""a"":true}","9:16:23","1","3","Test_3","70","f","1","640.6000000238419","1920 x 1200","1920 x 1057","true","1","10","","","","",""
"null","<p style=""font-size: 80px;"">+ 10 points</p>","null","html-keyboard-response","52","437160","0.0-11.0-2.51","611e66a096a597c609ed90d7","y4xn4k","SS","34","F","{""name"":""Chrome"",""chrome"":true,""version"":""105.0"",""blink"":true,""windows"":true,""osname"":""Windows"",""osversion"":""10"",""a"":true}","9:16:23","1","3","Test_4","74","j","1","1202.3999999761581","1920 x 1200","1920 x 1057","true","1","10","","","","",""
"null","<p style=""font-size: 80px;"">+ 10 points</p>","null","html-keyboard-response","53","440289","0.0-11.0-2.52","611e66a096a597c609ed90d7","y4xn4k","SS","34","F","{""name"":""Chrome"",""chrome"":true,""version"":""105.0"",""blink"":true,""windows"":true,""osname"":""Windows"",""osversion"":""10"",""a"":true}","9:16:23","1","3","Test_1","70","f","1","1109","1920 x 1200","1920 x 1057","true","1","10","","","","",""
"null","<p style=""font-size: 80px;"">+ 10 points</p>","null","html-keyboard-response","54","443187","0.0-11.0-2.53","611e66a096a597c609ed90d7","y4xn4k","SS","34","F","{""name"":""Chrome"",""chrome"":true,""version"":""105.0"",""blink"":true,""windows"":true,""osname"":""Windows"",""osversion"":""10"",""a"":true}","9:16:23","1","3","Test_1","70","f","1","875.5","1920 x 1200","1920 x 1057","true","1","10","","","","",""
"null","<p style=""font-size: 80px;"">+ 10 points</p>","null","html-keyboard-response","55","446114","0.0-11.0-2.54","611e66a096a597c609ed90d7","y4xn4k","SS","34","F","{""name"":""Chrome"",""chrome"":true,""version"":""105.0"",""blink"":true,""windows"":true,""osname"":""Windows"",""osversion"":""10"",""a"":true}","9:16:23","1","3","Test_4","74","j","1","896.8000000715256","1920 x 1200","1920 x 1057","true","1","10","","","","",""
"null","<p style=""font-size: 80px;"">+ 10 points</p>","null","html-keyboard-response","56","449094","0.0-11.0-2.55","611e66a096a597c609ed90d7","y4xn4k","SS","34","F","{""name"":""Chrome"",""chrome"":true,""version"":""105.0"",""blink"":true,""windows"":true,""osname"":""Windows"",""osversion"":""10"",""a"":true}","9:16:23","1","3","Test_1","70","f","1","954.3999999761581","1920 x 1200","1920 x 1057","true","1","10","","","","",""
"null","<p style=""font-size: 80px;"">+ 10 points</p>","null","html-keyboard-response","57","452133","0.0-11.0-2.56","611e66a096a597c609ed90d7","y4xn4k","SS","34","F","{""name"":""Chrome"",""chrome"":true,""version"":""105.0"",""blink"":true,""windows"":true,""osname"":""Windows"",""osversion"":""10"",""a"":true}","9:16:23","1","3","Test_3","70","f","1","1015.8999999761581","1920 x 1200","1920 x 1057","true","1","10","","","","",""
"null","<p style=""font-size: 80px;"">+ 10 points</p>","null","html-keyboard-response","58","454912","0.0-11.0-2.57","611e66a096a597c609ed90d7","y4xn4k","SS","34","F","{""name"":""Chrome"",""chrome"":true,""version"":""105.0"",""blink"":true,""windows"":true,""osname"":""Windows"",""osversion"":""10"",""a"":true}","9:16:23","1","3","Test_2","74","j","1","751.2999999523163","1920 x 1200","1920 x 1057","true","1","10","","","","",""
"null","<p style=""font-size: 80px;"">+ 10 points</p>","null","html-keyboard-response","59","459217","0.0-11.0-2.58","611e66a096a597c609ed90d7","y4xn4k","SS","34","F","{""name"":""Chrome"",""chrome"":true,""version"":""105.0"",""blink"":true,""windows"":true,""osname"":""Windows"",""osversion"":""10"",""a"":true}","9:16:23","1","3","Test_1","70","f","1","2284.5","1920 x 1200","1920 x 1057","true","1","10","","","","",""
"null","<p style=""font-size: 80px;"">+ 10 points</p>","null","html-keyboard-response","60","461806","0.0-11.0-2.59","611e66a096a597c609ed90d7","y4xn4k","SS","34","F","{""name"":""Chrome"",""chrome"":true,""version"":""105.0"",""blink"":true,""windows"":true,""osname"":""Windows"",""osversion"":""10"",""a"":true}","9:16:23","1","3","Test_3","70","f","1","564.3999999761581","1920 x 1200","1920 x 1057","true","1","10","","","","",""
"null","<p style=""font-size: 80px;"">+ 10 points</p>","null","html-keyboard-response","61","464919","0.0-11.0-2.60","611e66a096a597c609ed90d7","y4xn4k","SS","34","F","{""name"":""Chrome"",""chrome"":true,""version"":""105.0"",""blink"":true,""windows"":true,""osname"":""Windows"",""osversion"":""10"",""a"":true}","9:16:23","1","3","Test_2","74","j","1","1089.7999999523163","1920 x 1200","1920 x 1057","true","1","10","","","","",""
"null","<p style=""font-size: 80px;"">+ 10 points</p>","null","html-keyboard-response","62","468413","0.0-11.0-2.61","611e66a096a597c609ed90d7","y4xn4k","SS","34","F","{""name"":""Chrome"",""chrome"":true,""version"":""105.0"",""blink"":true,""windows"":true,""osname"":""Windows"",""osversion"":""10"",""a"":true}","9:16:23","1","3","Test_1","70","f","1","1474.7000000476837","1920 x 1200","1920 x 1057","true","1","10","","","","",""
"null","<p style=""font-size: 80px;"">+ 10 points</p>","null","html-keyboard-response","63","471701","0.0-11.0-2.62","611e66a096a597c609ed90d7","y4xn4k","SS","34","F","{""name"":""Chrome"",""chrome"":true,""version"":""105.0"",""blink"":true,""windows"":true,""osname"":""Windows"",""osversion"":""10"",""a"":true}","9:16:23","1","3","Test_4","74","j","1","1262.8999999761581","1920 x 1200","1920 x 1057","true","1","10","","","","",""
"null","<p style=""font-size: 80px;"">+ 10 points</p>","null","html-keyboard-response","64","474962","0.0-11.0-2.63","611e66a096a597c609ed90d7","y4xn4k","SS","34","F","{""name"":""Chrome"",""chrome"":true,""version"":""105.0"",""blink"":true,""windows"":true,""osname"":""Windows"",""osversion"":""10"",""a"":true}","9:16:23","1","4","Test_1","74","j","1","1237.4000000953674","1920 x 1200","1920 x 1057","true","1","10","","","","",""
"null","<p style=""font-size: 80px;"">+ 10 points</p>","null","html-keyboard-response","65","477525","0.0-11.0-2.64","611e66a096a597c609ed90d7","y4xn4k","SS","34","F","{""name"":""Chrome"",""chrome"":true,""version"":""105.0"",""blink"":true,""windows"":true,""osname"":""Windows"",""osversion"":""10"",""a"":true}","9:16:23","1","4","Test_1","74","j","1","542.8999999761581","1920 x 1200","1920 x 1057","true","1","10","","","","",""
"null","<p style=""font-size: 80px;"">+ 10 points</p>","null","html-keyboard-response","66","480610","0.0-11.0-2.65","611e66a096a597c609ed90d7","y4xn4k","SS","34","F","{""name"":""Chrome"",""chrome"":true,""version"":""105.0"",""blink"":true,""windows"":true,""osname"":""Windows"",""osversion"":""10"",""a"":true}","9:16:23","1","4","Test_3","74","j","1","1062.6999999284744","1920 x 1200","1920 x 1057","true","1","10","","","","",""
"null","<p style=""font-size: 80px;"">+ 10 points</p>","null","html-keyboard-response","67","483296","0.0-11.0-2.66","611e66a096a597c609ed90d7","y4xn4k","SS","34","F","{""name"":""Chrome"",""chrome"":true,""version"":""105.0"",""blink"":true,""windows"":true,""osname"":""Windows"",""osversion"":""10"",""a"":true}","9:16:23","1","4","Test_1","74","j","1","666.5","1920 x 1200","1920 x 1057","true","1","10","","","","",""
"null","<p style=""font-size: 80px;"">+ 10 points</p>","null","html-keyboard-response","68","486270","0.0-11.0-2.67","611e66a096a597c609ed90d7","y4xn4k","SS","34","F","{""name"":""Chrome"",""chrome"":true,""version"":""105.0"",""blink"":true,""windows"":true,""osname"":""Windows"",""osversion"":""10"",""a"":true}","9:16:23","1","4","Test_1","74","j","1","955.7999999523163","1920 x 1200","1920 x 1057","true","1","10","","","","",""
"null","<p style=""font-size: 80px;"">+ 10 points</p>","null","html-keyboard-response","69","489034","0.0-11.0-2.68","611e66a096a597c609ed90d7","y4xn4k","SS","34","F","{""name"":""Chrome"",""chrome"":true,""version"":""105.0"",""blink"":true,""windows"":true,""osname"":""Windows"",""osversion"":""10"",""a"":true}","9:16:23","1","4","Test_3","74","j","1","733.6000000238419","1920 x 1200","1920 x 1057","true","1","10","","","","",""
"null","<p style=""font-size: 80px;"">+ 10 points</p>","null","html-keyboard-response","70","491670","0.0-11.0-2.69","611e66a096a597c609ed90d7","y4xn4k","SS","34","F","{""name"":""Chrome"",""chrome"":true,""version"":""105.0"",""blink"":true,""windows"":true,""osname"":""Windows"",""osversion"":""10"",""a"":true}","9:16:23","1","4","Test_3","74","j","1","620.1000000238419","1920 x 1200","1920 x 1057","true","1","10","","","","",""
"null","<p style=""font-size: 80px;"">+ 10 points</p>","null","html-keyboard-response","71","495346","0.0-11.0-2.70","611e66a096a597c609ed90d7","y4xn4k","SS","34","F","{""name"":""Chrome"",""chrome"":true,""version"":""105.0"",""blink"":true,""windows"":true,""osname"":""Windows"",""osversion"":""10"",""a"":true}","9:16:23","1","4","Test_2","70","f","1","1657.8999999761581","1920 x 1200","1920 x 1057","true","1","10","","","","",""
"null","<p style=""font-size: 80px;"">+ 10 points</p>","null","html-keyboard-response","72","497962","0.0-11.0-2.71","611e66a096a597c609ed90d7","y4xn4k","SS","34","F","{""name"":""Chrome"",""chrome"":true,""version"":""105.0"",""blink"":true,""windows"":true,""osname"":""Windows"",""osversion"":""10"",""a"":true}","9:16:23","1","4","Test_2","70","f","1","588.4000000953674","1920 x 1200","1920 x 1057","true","1","10","","","","",""
"null","<p style=""font-size: 80px;"">+ 10 points</p>","null","html-keyboard-response","73","500956","0.0-11.0-2.72","611e66a096a597c609ed90d7","y4xn4k","SS","34","F","{""name"":""Chrome"",""chrome"":true,""version"":""105.0"",""blink"":true,""windows"":true,""osname"":""Windows"",""osversion"":""10"",""a"":true}","9:16:23","1","4","Test_4","70","f","1","968.5","1920 x 1200","1920 x 1057","true","1","10","","","","",""
"null","<p style=""font-size: 80px;"">+ 10 points</p>","null","html-keyboard-response","74","503856","0.0-11.0-2.73","611e66a096a597c609ed90d7","y4xn4k","SS","34","F","{""name"":""Chrome"",""chrome"":true,""version"":""105.0"",""blink"":true,""windows"":true,""osname"":""Windows"",""osversion"":""10"",""a"":true}","9:16:23","1","4","Test_1","74","j","1","871.1000000238419","1920 x 1200","1920 x 1057","true","1","10","","","","",""
"null","<p style=""font-size: 80px;"">+ 10 points</p>","null","html-keyboard-response","75","509096","0.0-11.0-2.74","611e66a096a597c609ed90d7","y4xn4k","SS","34","F","{""name"":""Chrome"",""chrome"":true,""version"":""105.0"",""blink"":true,""windows"":true,""osname"":""Windows"",""osversion"":""10"",""a"":true}","9:16:23","1","4","Test_4","70","f","1","3222","1920 x 1200","1920 x 1057","true","1","10","","","","",""
"null","<p style=""font-size: 80px;"">+ 10 points</p>","null","html-keyboard-response","76","511999","0.0-11.0-2.75","611e66a096a597c609ed90d7","y4xn4k","SS","34","F","{""name"":""Chrome"",""chrome"":true,""version"":""105.0"",""blink"":true,""windows"":true,""osname"":""Windows"",""osversion"":""10"",""a"":true}","9:16:23","1","4","Test_2","70","f","1","882.1999999284744","1920 x 1200","1920 x 1057","true","1","10","","","","",""
"null","<p style=""font-size: 80px;"">+ 10 points</p>","null","html-keyboard-response","77","514809","0.0-11.0-2.76","611e66a096a597c609ed90d7","y4xn4k","SS","34","F","{""name"":""Chrome"",""chrome"":true,""version"":""105.0"",""blink"":true,""windows"":true,""osname"":""Windows"",""osversion"":""10"",""a"":true}","9:16:23","1","4","Test_4","70","f","1","793.5","1920 x 1200","1920 x 1057","true","1","10","","","","",""
"null","<p style=""font-size: 80px;"">+ 10 points</p>","null","html-keyboard-response","78","519632","0.0-11.0-2.77","611e66a096a597c609ed90d7","y4xn4k","SS","34","F","{""name"":""Chrome"",""chrome"":true,""version"":""105.0"",""blink"":true,""windows"":true,""osname"":""Windows"",""osversion"":""10"",""a"":true}","9:16:23","1","4","Test_2","70","f","1","2807.399999976158","1920 x 1200","1920 x 1057","true","1","10","","","","",""
"null","<p style=""font-size: 80px;"">+ 10 points</p>","null","html-keyboard-response","79","525153","0.0-11.0-2.78","611e66a096a597c609ed90d7","y4xn4k","SS","34","F","{""name"":""Chrome"",""chrome"":true,""version"":""105.0"",""blink"":true,""windows"":true,""osname"":""Windows"",""osversion"":""10"",""a"":true}","9:16:23","1","4","Test_3","74","j","1","3501","1920 x 1200","1920 x 1057","true","1","10","","","","",""
"null","<p style=""font-size: 80px;"">+ 10 points</p>","null","html-keyboard-response","80","528013","0.0-11.0-2.79","611e66a096a597c609ed90d7","y4xn4k","SS","34","F","{""name"":""Chrome"",""chrome"":true,""version"":""105.0"",""blink"":true,""windows"":true,""osname"":""Windows"",""osversion"":""10"",""a"":true}","9:16:23","1","4","Test_4","70","f","1","841.6000000238419","1920 x 1200","1920 x 1057","true","1","10","","","","",""
"null","<p style=""font-size: 80px;"">+ 10 points</p>","null","html-keyboard-response","81","530746","0.0-11.0-2.80","611e66a096a597c609ed90d7","y4xn4k","SS","34","F","{""name"":""Chrome"",""chrome"":true,""version"":""105.0"",""blink"":true,""windows"":true,""osname"":""Windows"",""osversion"":""10"",""a"":true}","9:16:23","1","4","Test_4","70","f","1","711.6000000238419","1920 x 1200","1920 x 1057","true","1","10","","","","",""
"null","<p style=""font-size: 80px;"">+ 10 points</p>","null","html-keyboard-response","82","533399","0.0-11.0-2.81","611e66a096a597c609ed90d7","y4xn4k","SS","34","F","{""name"":""Chrome"",""chrome"":true,""version"":""105.0"",""blink"":true,""windows"":true,""osname"":""Windows"",""osversion"":""10"",""a"":true}","9:16:23","1","4","Test_2","70","f","1","630.3999999761581","1920 x 1200","1920 x 1057","true","1","10","","","","",""
"null","<p style=""font-size: 80px;"">+ 10 points</p>","null","html-keyboard-response","83","535988","0.0-11.0-2.82","611e66a096a597c609ed90d7","y4xn4k","SS","34","F","{""name"":""Chrome"",""chrome"":true,""version"":""105.0"",""blink"":true,""windows"":true,""osname"":""Windows"",""osversion"":""10"",""a"":true}","9:16:23","1","3","Test_1","70","f","1","557.8999999761581","1920 x 1200","1920 x 1057","true","1","10","","","","",""
"null","<p style=""font-size: 80px;"">+ 10 points</p>","null","html-keyboard-response","84","539015","0.0-11.0-2.83","611e66a096a597c609ed90d7","y4xn4k","SS","34","F","{""name"":""Chrome"",""chrome"":true,""version"":""105.0"",""blink"":true,""windows"":true,""osname"":""Windows"",""osversion"":""10"",""a"":true}","9:16:23","1","3","Test_3","70","f","1","1007.3999999761581","1920 x 1200","1920 x 1057","true","1","10","","","","",""
"null","<p style=""font-size: 80px;"">+ 10 points</p>","null","html-keyboard-response","85","542736","0.0-11.0-2.84","611e66a096a597c609ed90d7","y4xn4k","SS","34","F","{""name"":""Chrome"",""chrome"":true,""version"":""105.0"",""blink"":true,""windows"":true,""osname"":""Windows"",""osversion"":""10"",""a"":true}","9:16:23","1","3","Test_3","70","f","1","1701.3999999761581","1920 x 1200","1920 x 1057","true","1","10","","","","",""
"null","<p style=""font-size: 80px;"">+ 10 points</p>","null","html-keyboard-response","86","545745","0.0-11.0-2.85","611e66a096a597c609ed90d7","y4xn4k","SS","34","F","{""name"":""Chrome"",""chrome"":true,""version"":""105.0"",""blink"":true,""windows"":true,""osname"":""Windows"",""osversion"":""10"",""a"":true}","9:16:23","1","3","Test_4","74","j","1","980.6999999284744","1920 x 1200","1920 x 1057","true","1","10","","","","",""
"null","<p style=""font-size: 80px;"">+ 10 points</p>","null","html-keyboard-response","87","548444","0.0-11.0-2.86","611e66a096a597c609ed90d7","y4xn4k","SS","34","F","{""name"":""Chrome"",""chrome"":true,""version"":""105.0"",""blink"":true,""windows"":true,""osname"":""Windows"",""osversion"":""10"",""a"":true}","9:16:23","1","3","Test_4","74","j","1","671.1000000238419","1920 x 1200","1920 x 1057","true","1","10","","","","",""
"null","<p style=""font-size: 80px;"">+ 10 points</p>","null","html-keyboard-response","88","553480","0.0-11.0-2.87","611e66a096a597c609ed90d7","y4xn4k","SS","34","F","{""name"":""Chrome"",""chrome"":true,""version"":""105.0"",""blink"":true,""windows"":true,""osname"":""Windows"",""osversion"":""10"",""a"":true}","9:16:23","1","3","Test_2","74","j","1","3009.100000023842","1920 x 1200","1920 x 1057","true","1","10","","","","",""
"null","<p style=""font-size: 80px;"">+ 10 points</p>","null","html-keyboard-response","89","556071","0.0-11.0-2.88","611e66a096a597c609ed90d7","y4xn4k","SS","34","F","{""name"":""Chrome"",""chrome"":true,""version"":""105.0"",""blink"":true,""windows"":true,""osname"":""Windows"",""osversion"":""10"",""a"":true}","9:16:23","1","3","Test_2","74","j","1","564.9000000953674","1920 x 1200","1920 x 1057","true","1","10","","","","",""
"null","<p style=""font-size: 80px;"">+ 10 points</p>","null","html-keyboard-response","90","559001","0.0-11.0-2.89","611e66a096a597c609ed90d7","y4xn4k","SS","34","F","{""name"":""Chrome"",""chrome"":true,""version"":""105.0"",""blink"":true,""windows"":true,""osname"":""Windows"",""osversion"":""10"",""a"":true}","9:16:23","1","3","Test_4","74","j","1","902.7999999523163","1920 x 1200","1920 x 1057","true","1","10","","","","",""
"null","<p style=""font-size: 80px;"">+ 10 points</p>","null","html-keyboard-response","91","561744","0.0-11.0-2.90","611e66a096a597c609ed90d7","y4xn4k","SS","34","F","{""name"":""Chrome"",""chrome"":true,""version"":""105.0"",""blink"":true,""windows"":true,""osname"":""Windows"",""osversion"":""10"",""a"":true}","9:16:23","1","3","Test_1","70","f","1","714.8999999761581","1920 x 1200","1920 x 1057","true","1","10","","","","",""
"null","<p style=""font-size: 80px;"">+ 10 points</p>","null","html-keyboard-response","92","564674","0.0-11.0-2.91","611e66a096a597c609ed90d7","y4xn4k","SS","34","F","{""name"":""Chrome"",""chrome"":true,""version"":""105.0"",""blink"":true,""windows"":true,""osname"":""Windows"",""osversion"":""10"",""a"":true}","9:16:23","1","3","Test_2","74","j","1","899.7000000476837","1920 x 1200","1920 x 1057","true","1","10","","","","",""
"null","<p style=""font-size: 80px;"">+ 10 points</p>","null","html-keyboard-response","93","568068","0.0-11.0-2.92","611e66a096a597c609ed90d7","y4xn4k","SS","34","F","{""name"":""Chrome"",""chrome"":true,""version"":""105.0"",""blink"":true,""windows"":true,""osname"":""Windows"",""osversion"":""10"",""a"":true}","9:16:23","1","3","Test_3","70","f","1","1371.7000000476837","1920 x 1200","1920 x 1057","true","1","10","","","","",""
"null","<p style=""font-size: 80px;"">+ 10 points</p>","null","html-keyboard-response","94","570658","0.0-11.0-2.93","611e66a096a597c609ed90d7","y4xn4k","SS","34","F","{""name"":""Chrome"",""chrome"":true,""version"":""105.0"",""blink"":true,""windows"":true,""osname"":""Windows"",""osversion"":""10"",""a"":true}","9:16:23","1","3","Test_3","70","f","1","559.7000000476837","1920 x 1200","1920 x 1057","true","1","10","","","","",""
"null","<p style=""font-size: 80px;"">+ 10 points</p>","null","html-keyboard-response","95","573759","0.0-11.0-2.94","611e66a096a597c609ed90d7","y4xn4k","SS","34","F","{""name"":""Chrome"",""chrome"":true,""version"":""105.0"",""blink"":true,""windows"":true,""osname"":""Windows"",""osversion"":""10"",""a"":true}","9:16:23","1","3","Test_4","74","j","1","1083.7000000476837","1920 x 1200","1920 x 1057","true","1","10","","","","",""
"null","<p style=""font-size: 80px;"">+ 10 points</p>","null","html-keyboard-response","96","576349","0.0-11.0-2.95","611e66a096a597c609ed90d7","y4xn4k","SS","34","F","{""name"":""Chrome"",""chrome"":true,""version"":""105.0"",""blink"":true,""windows"":true,""osname"":""Windows"",""osversion"":""10"",""a"":true}","9:16:23","1","3","Test_1","70","f","1","571.3999999761581","1920 x 1200","1920 x 1057","true","1","10","","","","",""
"null","<p style=""font-size: 80px;"">+ 10 points</p>","null","html-keyboard-response","97","579193","0.0-11.0-2.96","611e66a096a597c609ed90d7","y4xn4k","SS","34","F","{""name"":""Chrome"",""chrome"":true,""version"":""105.0"",""blink"":true,""windows"":true,""osname"":""Windows"",""osversion"":""10"",""a"":true}","9:16:23","1","3","Test_1","70","f","1","823.6000000238419","1920 x 1200","1920 x 1057","true","1","10","","","","",""
"null","<p style=""font-size: 80px;"">+ 0 points</p>","null","html-keyboard-response","98","581951","0.0-11.0-2.97","611e66a096a597c609ed90d7","y4xn4k","SS","34","F","{""name"":""Chrome"",""chrome"":true,""version"":""105.0"",""blink"":true,""windows"":true,""osname"":""Windows"",""osversion"":""10"",""a"":true}","9:16:23","1","4","Test_1","70","j","0","737.3000000715256","1920 x 1200","1920 x 1057","true","1","0","","","","",""
"null","<p style=""font-size: 80px;"">+ 10 points</p>","null","html-keyboard-response","99","584627","0.0-11.0-2.98","611e66a096a597c609ed90d7","y4xn4k","SS","34","F","{""name"":""Chrome"",""chrome"":true,""version"":""105.0"",""blink"":true,""windows"":true,""osname"":""Windows"",""osversion"":""10"",""a"":true}","9:16:23","1","4","Test_4","70","f","1","668.3999999761581","1920 x 1200","1920 x 1057","true","1","10","","","","",""
"null","<p style=""font-size: 80px;"">+ 10 points</p>","null","html-keyboard-response","100","587146","0.0-11.0-2.99","611e66a096a597c609ed90d7","y4xn4k","SS","34","F","{""name"":""Chrome"",""chrome"":true,""version"":""105.0"",""blink"":true,""windows"":true,""osname"":""Windows"",""osversion"":""10"",""a"":true}","9:16:23","1","4","Test_4","70","f","1","498.09999990463257","1920 x 1200","1920 x 1057","true","1","10","","","","",""
"null","<p style=""font-size: 80px;"">+ 10 points</p>","null","html-keyboard-response","101","589851","0.0-11.0-2.100","611e66a096a597c609ed90d7","y4xn4k","SS","34","F","{""name"":""Chrome"",""chrome"":true,""version"":""105.0"",""blink"":true,""windows"":true,""osname"":""Windows"",""osversion"":""10"",""a"":true}","9:16:23","1","4","Test_3","74","j","1","694.1999999284744","1920 x 1200","1920 x 1057","true","1","10","","","","",""
"null","<p style=""font-size: 80px;"">+ 0 points</p>","null","html-keyboard-response","102","593063","0.0-11.0-2.101","611e66a096a597c609ed90d7","y4xn4k","SS","34","F","{""name"":""Chrome"",""chrome"":true,""version"":""105.0"",""blink"":true,""windows"":true,""osname"":""Windows"",""osversion"":""10"",""a"":true}","9:16:23","1","4","Test_1","70","j","0","1191.7999999523163","1920 x 1200","1920 x 1057","true","1","0","","","","",""
"null","<p style=""font-size: 80px;"">+ 10 points</p>","null","html-keyboard-response","103","595764","0.0-11.0-2.102","611e66a096a597c609ed90d7","y4xn4k","SS","34","F","{""name"":""Chrome"",""chrome"":true,""version"":""105.0"",""blink"":true,""windows"":true,""osname"":""Windows"",""osversion"":""10"",""a"":true}","9:16:23","1","4","Test_3","74","j","1","666","1920 x 1200","1920 x 1057","true","1","10","","","","",""
"null","<p style=""font-size: 80px;"">+ 10 points</p>","null","html-keyboard-response","104","598515","0.0-11.0-2.103","611e66a096a597c609ed90d7","y4xn4k","SS","34","F","{""name"":""Chrome"",""chrome"":true,""version"":""105.0"",""blink"":true,""windows"":true,""osname"":""Windows"",""osversion"":""10"",""a"":true}","9:16:23","1","4","Test_4","70","f","1","718.6000000238419","1920 x 1200","1920 x 1057","true","1","10","","","","",""
"null","<p style=""font-size: 80px;"">+ 10 points</p>","null","html-keyboard-response","105","603550","0.0-11.0-2.104","611e66a096a597c609ed90d7","y4xn4k","SS","34","F","{""name"":""Chrome"",""chrome"":true,""version"":""105.0"",""blink"":true,""windows"":true,""osname"":""Windows"",""osversion"":""10"",""a"":true}","9:16:23","1","4","Test_3","74","j","1","3020.2999999523163","1920 x 1200","1920 x 1057","true","1","10","","","","",""
"null","<p style=""font-size: 80px;"">+ 10 points</p>","null","html-keyboard-response","106","606471","0.0-11.0-2.105","611e66a096a597c609ed90d7","y4xn4k","SS","34","F","{""name"":""Chrome"",""chrome"":true,""version"":""105.0"",""blink"":true,""windows"":true,""osname"":""Windows"",""osversion"":""10"",""a"":true}","9:16:23","1","4","Test_4","70","f","1","895.2000000476837","1920 x 1200","1920 x 1057","true","1","10","","","","",""
"null","<p style=""font-size: 80px;"">+ 10 points</p>","null","html-keyboard-response","107","609283","0.0-11.0-2.106","611e66a096a597c609ed90d7","y4xn4k","SS","34","F","{""name"":""Chrome"",""chrome"":true,""version"":""105.0"",""blink"":true,""windows"":true,""osname"":""Windows"",""osversion"":""10"",""a"":true}","9:16:23","1","4","Test_2","70","f","1","790.1000000238419","1920 x 1200","1920 x 1057","true","1","10","","","","",""
"null","<p style=""font-size: 80px;"">+ 10 points</p>","null","html-keyboard-response","108","612031","0.0-11.0-2.107","611e66a096a597c609ed90d7","y4xn4k","SS","34","F","{""name"":""Chrome"",""chrome"":true,""version"":""105.0"",""blink"":true,""windows"":true,""osname"":""Windows"",""osversion"":""10"",""a"":true}","9:16:23","1","4","Test_2","70","f","1","722.1999999284744","1920 x 1200","1920 x 1057","true","1","10","","","","",""
"null","<p style=""font-size: 80px;"">+ 10 points</p>","null","html-keyboard-response","109","615009","0.0-11.0-2.108","611e66a096a597c609ed90d7","y4xn4k","SS","34","F","{""name"":""Chrome"",""chrome"":true,""version"":""105.0"",""blink"":true,""windows"":true,""osname"":""Windows"",""osversion"":""10"",""a"":true}","9:16:23","1","4","Test_4","70","f","1","956.8999999761581","1920 x 1200","1920 x 1057","true","1","10","","","","",""
"null","<p style=""font-size: 80px;"">+ 10 points</p>","null","html-keyboard-response","110","675980","0.0-11.0-2.109","611e66a096a597c609ed90d7","y4xn4k","SS","34","F","{""name"":""Chrome"",""chrome"":true,""version"":""105.0"",""blink"":true,""windows"":true,""osname"":""Windows"",""osversion"":""10"",""a"":true}","9:16:23","1","4","Test_2","70","f","1","947.8999999761581","1920 x 1200","1920 x 1057","true","1","10","","","","",""
"null","<p style=""font-size: 80px;"">+ 10 points</p>","null","html-keyboard-response","111","678950","0.0-11.0-2.110","611e66a096a597c609ed90d7","y4xn4k","SS","34","F","{""name"":""Chrome"",""chrome"":true,""version"":""105.0"",""blink"":true,""windows"":true,""osname"":""Windows"",""osversion"":""10"",""a"":true}","9:16:23","1","4","Test_1","74","j","1","961.6000000238419","1920 x 1200","1920 x 1057","true","1","10","","","","",""
"null","<p style=""font-size: 80px;"">+ 10 points</p>","null","html-keyboard-response","112","681675","0.0-11.0-2.111","611e66a096a597c609ed90d7","y4xn4k","SS","34","F","{""name"":""Chrome"",""chrome"":true,""version"":""105.0"",""blink"":true,""windows"":true,""osname"":""Windows"",""osversion"":""10"",""a"":true}","9:16:23","1","4","Test_3","74","j","1","721.2999999523163","1920 x 1200","1920 x 1057","true","1","10","","","","",""
"null","<p style=""font-size: 80px;"">+ 10 points</p>","null","html-keyboard-response","113","684220","0.0-11.0-2.112","611e66a096a597c609ed90d7","y4xn4k","SS","34","F","{""name"":""Chrome"",""chrome"":true,""version"":""105.0"",""blink"":true,""windows"":true,""osname"":""Windows"",""osversion"":""10"",""a"":true}","9:16:23","1","4","Test_2","70","f","1","537.6000000238419","1920 x 1200","1920 x 1057","true","1","10","","","","",""
"null","<p style=""font-size: 80px;"">+ 10 points</p>","null","html-keyboard-response","114","686919","0.0-11.0-2.113","611e66a096a597c609ed90d7","y4xn4k","SS","34","F","{""name"":""Chrome"",""chrome"":true,""version"":""105.0"",""blink"":true,""windows"":true,""osname"":""Windows"",""osversion"":""10"",""a"":true}","9:16:23","1","4","Test_1","74","j","1","692.5","1920 x 1200","1920 x 1057","true","1","10","","","","",""
"null","<p style=""font-size: 80px;"">+ 10 points</p>","null","html-keyboard-response","115","689423","0.0-11.0-2.114","611e66a096a597c609ed90d7","y4xn4k","SS","34","F","{""name"":""Chrome"",""chrome"":true,""version"":""105.0"",""blink"":true,""windows"":true,""osname"":""Windows"",""osversion"":""10"",""a"":true}","9:16:23","1","4","Test_2","70","f","1","495.6999999284744","1920 x 1200","1920 x 1057","true","1","10","","","","",""
"null","<p style=""font-size: 80px;"">+ 10 points</p>","null","html-keyboard-response","116","692191","0.0-11.0-2.115","611e66a096a597c609ed90d7","y4xn4k","SS","34","F","{""name"":""Chrome"",""chrome"":true,""version"":""105.0"",""blink"":true,""windows"":true,""osname"":""Windows"",""osversion"":""10"",""a"":true}","9:16:23","1","4","Test_3","74","j","1","758.5","1920 x 1200","1920 x 1057","true","1","10","","","","",""
"null","<p style=""font-size: 80px;"">+ 10 points</p>","null","html-keyboard-response","117","695015","0.0-11.0-2.116","611e66a096a597c609ed90d7","y4xn4k","SS","34","F","{""name"":""Chrome"",""chrome"":true,""version"":""105.0"",""blink"":true,""windows"":true,""osname"":""Windows"",""osversion"":""10"",""a"":true}","9:16:23","1","4","Test_4","70","f","1","815.2000000476837","1920 x 1200","1920 x 1057","true","1","10","","","","",""
"null","<p style=""font-size: 80px;"">+ 10 points</p>","null","html-keyboard-response","118","697606","0.0-11.0-2.117","611e66a096a597c609ed90d7","y4xn4k","SS","34","F","{""name"":""Chrome"",""chrome"":true,""version"":""105.0"",""blink"":true,""windows"":true,""osname"":""Windows"",""osversion"":""10"",""a"":true}","9:16:23","1","4","Test_3","74","j","1","583.2999999523163","1920 x 1200","1920 x 1057","true","1","10","","","","",""
"null","<p style=""font-size: 80px;"">+ 10 points</p>","null","html-keyboard-response","119","701173","0.0-11.0-2.118","611e66a096a597c609ed90d7","y4xn4k","SS","34","F","{""name"":""Chrome"",""chrome"":true,""version"":""105.0"",""blink"":true,""windows"":true,""osname"":""Windows"",""osversion"":""10"",""a"":true}","9:16:23","1","3","Test_4","74","j","1","1557.3999999761581","1920 x 1200","1920 x 1057","true","1","10","","","","",""
"null","<p style=""font-size: 80px;"">+ 10 points</p>","null","html-keyboard-response","120","704047","0.0-11.0-2.119","611e66a096a597c609ed90d7","y4xn4k","SS","34","F","{""name"":""Chrome"",""chrome"":true,""version"":""105.0"",""blink"":true,""windows"":true,""osname"":""Windows"",""osversion"":""10"",""a"":true}","9:16:23","1","3","Test_3","70","f","1","865.7999999523163","1920 x 1200","1920 x 1057","true","1","10","","","","",""
"null","<p style=""font-size: 80px;"">+ 10 points</p>","null","html-keyboard-response","121","706628","0.0-11.0-2.120","611e66a096a597c609ed90d7","y4xn4k","SS","34","F","{""name"":""Chrome"",""chrome"":true,""version"":""105.0"",""blink"":true,""windows"":true,""osname"":""Windows"",""osversion"":""10"",""a"":true}","9:16:23","1","3","Test_1","70","f","1","573.7000000476837","1920 x 1200","1920 x 1057","true","1","10","","","","",""
"null","<p style=""font-size: 80px;"">+ 10 points</p>","null","html-keyboard-response","122","709415","0.0-11.0-2.121","611e66a096a597c609ed90d7","y4xn4k","SS","34","F","{""name"":""Chrome"",""chrome"":true,""version"":""105.0"",""blink"":true,""windows"":true,""osname"":""Windows"",""osversion"":""10"",""a"":true}","9:16:23","1","3","Test_4","74","j","1","778.1000000238419","1920 x 1200","1920 x 1057","true","1","10","","","","",""
"null","<p style=""font-size: 80px;"">+ 10 points</p>","null","html-keyboard-response","123","712015","0.0-11.0-2.122","611e66a096a597c609ed90d7","y4xn4k","SS","34","F","{""name"":""Chrome"",""chrome"":true,""version"":""105.0"",""blink"":true,""windows"":true,""osname"":""Windows"",""osversion"":""10"",""a"":true}","9:16:23","1","3","Test_1","70","f","1","595.2000000476837","1920 x 1200","1920 x 1057","true","1","10","","","","",""
"null","<p style=""font-size: 80px;"">+ 10 points</p>","null","html-keyboard-response","124","715055","0.0-11.0-2.123","611e66a096a597c609ed90d7","y4xn4k","SS","34","F","{""name"":""Chrome"",""chrome"":true,""version"":""105.0"",""blink"":true,""windows"":true,""osname"":""Windows"",""osversion"":""10"",""a"":true}","9:16:23","1","3","Test_2","74","j","1","1032.5999999046326","1920 x 1200","1920 x 1057","true","1","10","","","","",""
"null","<p style=""font-size: 80px;"">+ 10 points</p>","null","html-keyboard-response","125","717580","0.0-11.0-2.124","611e66a096a597c609ed90d7","y4xn4k","SS","34","F","{""name"":""Chrome"",""chrome"":true,""version"":""105.0"",""blink"":true,""windows"":true,""osname"":""Windows"",""osversion"":""10"",""a"":true}","9:16:23","1","3","Test_2","74","j","1","518.3999999761581","1920 x 1200","1920 x 1057","true","1","10","","","","",""
"null","<p style=""font-size: 80px;"">+ 10 points</p>","null","html-keyboard-response","126","720197","0.0-11.0-2.125","611e66a096a597c609ed90d7","y4xn4k","SS","34","F","{""name"":""Chrome"",""chrome"":true,""version"":""105.0"",""blink"":true,""windows"":true,""osname"":""Windows"",""osversion"":""10"",""a"":true}","9:16:23","1","3","Test_3","70","f","1","610.4000000953674","1920 x 1200","1920 x 1057","true","1","10","","","","",""
"null","<p style=""font-size: 80px;"">+ 10 points</p>","null","html-keyboard-response","127","723422","0.0-11.0-2.126","611e66a096a597c609ed90d7","y4xn4k","SS","34","F","{""name"":""Chrome"",""chrome"":true,""version"":""105.0"",""blink"":true,""windows"":true,""osname"":""Windows"",""osversion"":""10"",""a"":true}","9:16:23","1","3","Test_1","70","f","1","1218.6000000238419","1920 x 1200","1920 x 1057","true","1","10","","","","",""
"null","<p style=""font-size: 80px;"">+ 10 points</p>","null","html-keyboard-response","128","726742","0.0-11.0-2.127","611e66a096a597c609ed90d7","y4xn4k","SS","34","F","{""name"":""Chrome"",""chrome"":true,""version"":""105.0"",""blink"":true,""windows"":true,""osname"":""Windows"",""osversion"":""10"",""a"":true}","9:16:23","1","3","Test_3","70","f","1","1313.3000000715256","1920 x 1200","1920 x 1057","true","1","10","","","","",""
"null","<p style=""font-size: 80px;"">+ 10 points</p>","null","html-keyboard-response","129","729408","0.0-11.0-2.128","611e66a096a597c609ed90d7","y4xn4k","SS","34","F","{""name"":""Chrome"",""chrome"":true,""version"":""105.0"",""blink"":true,""windows"":true,""osname"":""Windows"",""osversion"":""10"",""a"":true}","9:16:23","1","3","Test_4","74","j","1","658.3999999761581","1920 x 1200","1920 x 1057","true","1","10","","","","",""
"null","<p style=""font-size: 80px;"">+ 10 points</p>","null","html-keyboard-response","130","732143","0.0-11.0-2.129","611e66a096a597c609ed90d7","y4xn4k","SS","34","F","{""name"":""Chrome"",""chrome"":true,""version"":""105.0"",""blink"":true,""windows"":true,""osname"":""Windows"",""osversion"":""10"",""a"":true}","9:16:23","1","3","Test_2","74","j","1","728.1000000238419","1920 x 1200","1920 x 1057","true","1","10","","","","",""
"null","<p style=""font-size: 80px;"">+ 10 points</p>","null","html-keyboard-response","131","735119","0.0-11.0-2.130","611e66a096a597c609ed90d7","y4xn4k","SS","34","F","{""name"":""Chrome"",""chrome"":true,""version"":""105.0"",""blink"":true,""windows"":true,""osname"":""Windows"",""osversion"":""10"",""a"":true}","9:16:23","1","3","Test_3","70","f","1","967.5","1920 x 1200","1920 x 1057","true","1","10","","","","",""
"null","<p style=""font-size: 80px;"">+ 10 points</p>","null","html-keyboard-response","132","737628","0.0-11.0-2.131","611e66a096a597c609ed90d7","y4xn4k","SS","34","F","{""name"":""Chrome"",""chrome"":true,""version"":""105.0"",""blink"":true,""windows"":true,""osname"":""Windows"",""osversion"":""10"",""a"":true}","9:16:23","1","3","Test_2","74","j","1","503.3000000715256","1920 x 1200","1920 x 1057","true","1","10","","","","",""
"null","<p style=""font-size: 80px;"">+ 10 points</p>","null","html-keyboard-response","133","740439","0.0-11.0-2.132","611e66a096a597c609ed90d7","y4xn4k","SS","34","F","{""name"":""Chrome"",""chrome"":true,""version"":""105.0"",""blink"":true,""windows"":true,""osname"":""Windows"",""osversion"":""10"",""a"":true}","9:16:23","1","3","Test_4","74","j","1","804.3999999761581","1920 x 1200","1920 x 1057","true","1","10","","","","",""
"null","<p style=""font-size: 80px;"">+ 0 points</p>","null","html-keyboard-response","134","743094","0.0-11.0-2.133","611e66a096a597c609ed90d7","y4xn4k","SS","34","F","{""name"":""Chrome"",""chrome"":true,""version"":""105.0"",""blink"":true,""windows"":true,""osname"":""Windows"",""osversion"":""10"",""a"":true}","9:16:23","1","4","Test_4","74","f","0","649.5","1920 x 1200","1920 x 1057","true","1","0","","","","",""
"null","<p style=""font-size: 80px;"">+ 10 points</p>","null","html-keyboard-response","135","745693","0.0-11.0-2.134","611e66a096a597c609ed90d7","y4xn4k","SS","34","F","{""name"":""Chrome"",""chrome"":true,""version"":""105.0"",""blink"":true,""windows"":true,""osname"":""Windows"",""osversion"":""10"",""a"":true}","9:16:23","1","4","Test_4","70","f","1","592.1000000238419","1920 x 1200","1920 x 1057","true","1","10","","","","",""
"null","<p style=""font-size: 80px;"">+ 10 points</p>","null","html-keyboard-response","136","748543","0.0-11.0-2.135","611e66a096a597c609ed90d7","y4xn4k","SS","34","F","{""name"":""Chrome"",""chrome"":true,""version"":""105.0"",""blink"":true,""windows"":true,""osname"":""Windows"",""osversion"":""10"",""a"":true}","9:16:23","1","4","Test_1","74","j","1","844.3999999761581","1920 x 1200","1920 x 1057","true","1","10","","","","",""
"null","<p style=""font-size: 80px;"">+ 0 points</p>","null","html-keyboard-response","137","751560","0.0-11.0-2.136","611e66a096a597c609ed90d7","y4xn4k","SS","34","F","{""name"":""Chrome"",""chrome"":true,""version"":""105.0"",""blink"":true,""windows"":true,""osname"":""Windows"",""osversion"":""10"",""a"":true}","9:16:23","1","4","Test_4","74","f","0","1007.7999999523163","1920 x 1200","1920 x 1057","true","1","0","","","","",""
"null","<p style=""font-size: 80px;"">+ 10 points</p>","null","html-keyboard-response","138","754334","0.0-11.0-2.137","611e66a096a597c609ed90d7","y4xn4k","SS","34","F","{""name"":""Chrome"",""chrome"":true,""version"":""105.0"",""blink"":true,""windows"":true,""osname"":""Windows"",""osversion"":""10"",""a"":true}","9:16:23","1","4","Test_3","74","j","1","766.7000000476837","1920 x 1200","1920 x 1057","true","1","10","","","","",""
"null","<p style=""font-size: 80px;"">+ 10 points</p>","null","html-keyboard-response","139","757280","0.0-11.0-2.138","611e66a096a597c609ed90d7","y4xn4k","SS","34","F","{""name"":""Chrome"",""chrome"":true,""version"":""105.0"",""blink"":true,""windows"":true,""osname"":""Windows"",""osversion"":""10"",""a"":true}","9:16:23","1","4","Test_2","70","f","1","939","1920 x 1200","1920 x 1057","true","1","10","","","","",""
"null","<p style=""font-size: 80px;"">+ 10 points</p>","null","html-keyboard-response","140","759895","0.0-11.0-2.139","611e66a096a597c609ed90d7","y4xn4k","SS","34","F","{""name"":""Chrome"",""chrome"":true,""version"":""105.0"",""blink"":true,""windows"":true,""osname"":""Windows"",""osversion"":""10"",""a"":true}","9:16:23","1","4","Test_2","70","f","1","607.1000000238419","1920 x 1200","1920 x 1057","true","1","10","","","","",""
"null","<p style=""font-size: 80px;"">+ 10 points</p>","null","html-keyboard-response","141","763015","0.0-11.0-2.140","611e66a096a597c609ed90d7","y4xn4k","SS","34","F","{""name"":""Chrome"",""chrome"":true,""version"":""105.0"",""blink"":true,""windows"":true,""osname"":""Windows"",""osversion"":""10"",""a"":true}","9:16:23","1","4","Test_4","70","f","1","1113.5","1920 x 1200","1920 x 1057","true","1","10","","","","",""
"null","<p style=""font-size: 80px;"">+ 10 points</p>","null","html-keyboard-response","142","765623","0.0-11.0-2.141","611e66a096a597c609ed90d7","y4xn4k","SS","34","F","{""name"":""Chrome"",""chrome"":true,""version"":""105.0"",""blink"":true,""windows"":true,""osname"":""Windows"",""osversion"":""10"",""a"":true}","9:16:23","1","4","Test_1","74","j","1","599.9000000953674","1920 x 1200","1920 x 1057","true","1","10","","","","",""
"null","<p style=""font-size: 80px;"">+ 10 points</p>","null","html-keyboard-response","143","768556","0.0-11.0-2.142","611e66a096a597c609ed90d7","y4xn4k","SS","34","F","{""name"":""Chrome"",""chrome"":true,""version"":""105.0"",""blink"":true,""windows"":true,""osname"":""Windows"",""osversion"":""10"",""a"":true}","9:16:23","1","4","Test_2","70","f","1","926.3999999761581","1920 x 1200","1920 x 1057","true","1","10","","","","",""
"null","<p style=""font-size: 80px;"">+ 10 points</p>","null","html-keyboard-response","144","771439","0.0-11.0-2.143","611e66a096a597c609ed90d7","y4xn4k","SS","34","F","{""name"":""Chrome"",""chrome"":true,""version"":""105.0"",""blink"":true,""windows"":true,""osname"":""Windows"",""osversion"":""10"",""a"":true}","9:16:23","1","4","Test_1","74","j","1","877","1920 x 1200","1920 x 1057","true","1","10","","","","",""
"null","<p style=""font-size: 80px;"">+ 0 points</p>","null","html-keyboard-response","145","775007","0.0-11.0-2.144","611e66a096a597c609ed90d7","y4xn4k","SS","34","F","{""name"":""Chrome"",""chrome"":true,""version"":""105.0"",""blink"":true,""windows"":true,""osname"":""Windows"",""osversion"":""10"",""a"":true}","9:16:23","1","4","Test_3","70","j","0","1560.6000000238419","1920 x 1200","1920 x 1057","true","1","0","","","","",""
"null","<p style=""font-size: 80px;"">+ 10 points</p>","null","html-keyboard-response","146","778135","0.0-11.0-2.145","611e66a096a597c609ed90d7","y4xn4k","SS","34","F","{""name"":""Chrome"",""chrome"":true,""version"":""105.0"",""blink"":true,""windows"":true,""osname"":""Windows"",""osversion"":""10"",""a"":true}","9:16:23","1","4","Test_1","74","j","1","1121.8000000715256","1920 x 1200","1920 x 1057","true","1","10","","","","",""
"null","<p style=""font-size: 80px;"">+ 10 points</p>","null","html-keyboard-response","147","780863","0.0-11.0-2.146","611e66a096a597c609ed90d7","y4xn4k","SS","34","F","{""name"":""Chrome"",""chrome"":true,""version"":""105.0"",""blink"":true,""windows"":true,""osname"":""Windows"",""osversion"":""10"",""a"":true}","9:16:23","1","4","Test_2","70","f","1","718.5","1920 x 1200","1920 x 1057","true","1","10","","","","",""
"null","<p style=""font-size: 80px;"">+ 10 points</p>","null","html-keyboard-response","148","783670","0.0-11.0-2.147","611e66a096a597c609ed90d7","y4xn4k","SS","34","F","{""name"":""Chrome"",""chrome"":true,""version"":""105.0"",""blink"":true,""windows"":true,""osname"":""Windows"",""osversion"":""10"",""a"":true}","9:16:23","1","4","Test_3","74","j","1","800.2000000476837","1920 x 1200","1920 x 1057","true","1","10","","","","",""
"null","<p style=""font-size: 80px;"">+ 10 points</p>","null","html-keyboard-response","149","786167","0.0-11.0-2.148","611e66a096a597c609ed90d7","y4xn4k","SS","34","F","{""name"":""Chrome"",""chrome"":true,""version"":""105.0"",""blink"":true,""windows"":true,""osname"":""Windows"",""osversion"":""10"",""a"":true}","9:16:23","1","4","Test_3","74","j","1","489","1920 x 1200","1920 x 1057","true","1","10","","","","",""
"null","<p style=""font-size: 80px;"">+ 10 points</p>","null","html-keyboard-response","150","789021","0.0-11.0-2.149","611e66a096a597c609ed90d7","y4xn4k","SS","34","F","{""name"":""Chrome"",""chrome"":true,""version"":""105.0"",""blink"":true,""windows"":true,""osname"":""Windows"",""osversion"":""10"",""a"":true}","9:16:23","1","4","Test_4","70","f","1","845.3000000715256","1920 x 1200","1920 x 1057","true","1","10","","","","",""
"null","<p style=""font-size: 80px;"">+ 10 points</p>","null","html-keyboard-response","151","792127","0.0-11.0-2.150","611e66a096a597c609ed90d7","y4xn4k","SS","34","F","{""name"":""Chrome"",""chrome"":true,""version"":""105.0"",""blink"":true,""windows"":true,""osname"":""Windows"",""osversion"":""10"",""a"":true}","9:16:23","1","4","Test_3","74","j","1","1099.3999999761581","1920 x 1200","1920 x 1057","true","1","10","","","","",""
"null","<p style=""font-size: 80px;"">+ 10 points</p>","null","html-keyboard-response","152","794711","0.0-11.0-2.151","611e66a096a597c609ed90d7","y4xn4k","SS","34","F","{""name"":""Chrome"",""chrome"":true,""version"":""105.0"",""blink"":true,""windows"":true,""osname"":""Windows"",""osversion"":""10"",""a"":true}","9:16:23","1","4","Test_2","70","f","1","577.7999999523163","1920 x 1200","1920 x 1057","true","1","10","","","","",""
"null","<p style=""font-size: 80px;"">+ 10 points</p>","null","html-keyboard-response","153","797509","0.0-11.0-2.152","611e66a096a597c609ed90d7","y4xn4k","SS","34","F","{""name"":""Chrome"",""chrome"":true,""version"":""105.0"",""blink"":true,""windows"":true,""osname"":""Windows"",""osversion"":""10"",""a"":true}","9:16:23","1","4","Test_1","74","j","1","790.7999999523163","1920 x 1200","1920 x 1057","true","1","10","","","","",""
"null","<p style=""font-size: 80px;"">+ 10 points</p>","null","html-keyboard-response","154","800021","0.0-11.0-2.153","611e66a096a597c609ed90d7","y4xn4k","SS","34","F","{""name"":""Chrome"",""chrome"":true,""version"":""105.0"",""blink"":true,""windows"":true,""osname"":""Windows"",""osversion"":""10"",""a"":true}","9:16:23","1","4","Test_2","70","f","1","504.8000000715256","1920 x 1200","1920 x 1057","true","1","10","","","","",""
"null","<p style=""font-size: 80px;"">+ 10 points</p>","null","html-keyboard-response","155","804551","0.0-11.0-2.154","611e66a096a597c609ed90d7","y4xn4k","SS","34","F","{""name"":""Chrome"",""chrome"":true,""version"":""105.0"",""blink"":true,""windows"":true,""osname"":""Windows"",""osversion"":""10"",""a"":true}","9:16:23","1","4","Test_4","70","f","1","2521.600000023842","1920 x 1200","1920 x 1057","true","1","10","","","","",""
"null","<p style=""font-size: 80px;"">+ 10 points</p>","null","html-keyboard-response","156","807343","0.0-11.0-2.155","611e66a096a597c609ed90d7","y4xn4k","SS","34","F","{""name"":""Chrome"",""chrome"":true,""version"":""105.0"",""blink"":true,""windows"":true,""osname"":""Windows"",""osversion"":""10"",""a"":true}","9:16:23","1","4","Test_3","74","j","1","784","1920 x 1200","1920 x 1057","true","1","10","","","","",""
"null","<p style=""font-size: 80px;"">+ 0 points</p>","null","html-keyboard-response","157","810590","0.0-11.0-2.156","611e66a096a597c609ed90d7","y4xn4k","SS","34","F","{""name"":""Chrome"",""chrome"":true,""version"":""105.0"",""blink"":true,""windows"":true,""osname"":""Windows"",""osversion"":""10"",""a"":true}","9:16:23","1","3","Test_1","74","f","0","1241.6999999284744","1920 x 1200","1920 x 1057","true","1","0","","","","",""
"null","<p style=""font-size: 80px;"">+ 10 points</p>","null","html-keyboard-response","158","813207","0.0-11.0-2.157","611e66a096a597c609ed90d7","y4xn4k","SS","34","F","{""name"":""Chrome"",""chrome"":true,""version"":""105.0"",""blink"":true,""windows"":true,""osname"":""Windows"",""osversion"":""10"",""a"":true}","9:16:23","1","3","Test_1","70","f","1","611.3000000715256","1920 x 1200","1920 x 1057","true","1","10","","","","",""
"null","<p style=""font-size: 80px;"">+ 10 points</p>","null","html-keyboard-response","159","815995","0.0-11.0-2.158","611e66a096a597c609ed90d7","y4xn4k","SS","34","F","{""name"":""Chrome"",""chrome"":true,""version"":""105.0"",""blink"":true,""windows"":true,""osname"":""Windows"",""osversion"":""10"",""a"":true}","9:16:23","1","3","Test_4","74","j","1","781.2999999523163","1920 x 1200","1920 x 1057","true","1","10","","","","",""
"null","<p style=""font-size: 80px;"">+ 10 points</p>","null","html-keyboard-response","160","818844","0.0-11.0-2.159","611e66a096a597c609ed90d7","y4xn4k","SS","34","F","{""name"":""Chrome"",""chrome"":true,""version"":""105.0"",""blink"":true,""windows"":true,""osname"":""Windows"",""osversion"":""10"",""a"":true}","9:16:23","1","3","Test_4","74","j","1","843","1920 x 1200","1920 x 1057","true","1","10","","","","",""
"null","<p style=""font-size: 80px;"">+ 10 points</p>","null","html-keyboard-response","161","821479","0.0-11.0-2.160","611e66a096a597c609ed90d7","y4xn4k","SS","34","F","{""name"":""Chrome"",""chrome"":true,""version"":""105.0"",""blink"":true,""windows"":true,""osname"":""Windows"",""osversion"":""10"",""a"":true}","9:16:23","1","3","Test_2","74","j","1","626","1920 x 1200","1920 x 1057","true","1","10","","","","",""
"null","<p style=""font-size: 80px;"">+ 10 points</p>","null","html-keyboard-response","162","825101","0.0-11.0-2.161","611e66a096a597c609ed90d7","y4xn4k","SS","34","F","{""name"":""Chrome"",""chrome"":true,""version"":""105.0"",""blink"":true,""windows"":true,""osname"":""Windows"",""osversion"":""10"",""a"":true}","9:16:23","1","3","Test_4","74","j","1","1615.1000000238419","1920 x 1200","1920 x 1057","true","1","10","","","","",""
"null","<p style=""font-size: 80px;"">+ 10 points</p>","null","html-keyboard-response","163","828062","0.0-11.0-2.162","611e66a096a597c609ed90d7","y4xn4k","SS","34","F","{""name"":""Chrome"",""chrome"":true,""version"":""105.0"",""blink"":true,""windows"":true,""osname"":""Windows"",""osversion"":""10"",""a"":true}","9:16:23","1","3","Test_3","70","f","1","954","1920 x 1200","1920 x 1057","true","1","10","","","","",""
"null","<p style=""font-size: 80px;"">+ 10 points</p>","null","html-keyboard-response","164","832444","0.0-11.0-2.163","611e66a096a597c609ed90d7","y4xn4k","SS","34","F","{""name"":""Chrome"",""chrome"":true,""version"":""105.0"",""blink"":true,""windows"":true,""osname"":""Windows"",""osversion"":""10"",""a"":true}","9:16:23","1","3","Test_3","70","f","1","2374.399999976158","1920 x 1200","1920 x 1057","true","1","10","","","","",""
"null","<p style=""font-size: 80px;"">+ 10 points</p>","null","html-keyboard-response","165","834982","0.0-11.0-2.164","611e66a096a597c609ed90d7","y4xn4k","SS","34","F","{""name"":""Chrome"",""chrome"":true,""version"":""105.0"",""blink"":true,""windows"":true,""osname"":""Windows"",""osversion"":""10"",""a"":true}","9:16:23","1","3","Test_4","74","j","1","530.5","1920 x 1200","1920 x 1057","true","1","10","","","","",""
"null","<p style=""font-size: 80px;"">+ 10 points</p>","null","html-keyboard-response","166","837639","0.0-11.0-2.165","611e66a096a597c609ed90d7","y4xn4k","SS","34","F","{""name"":""Chrome"",""chrome"":true,""version"":""105.0"",""blink"":true,""windows"":true,""osname"":""Windows"",""osversion"":""10"",""a"":true}","9:16:23","1","3","Test_1","70","f","1","649.1000000238419","1920 x 1200","1920 x 1057","true","1","10","","","","",""
"null","<p style=""font-size: 80px;"">+ 10 points</p>","null","html-keyboard-response","167","840212","0.0-11.0-2.166","611e66a096a597c609ed90d7","y4xn4k","SS","34","F","{""name"":""Chrome"",""chrome"":true,""version"":""105.0"",""blink"":true,""windows"":true,""osname"":""Windows"",""osversion"":""10"",""a"":true}","9:16:23","1","3","Test_1","70","f","1","567.6999999284744","1920 x 1200","1920 x 1057","true","1","10","","","","",""
"null","<p style=""font-size: 80px;"">+ 10 points</p>","null","html-keyboard-response","168","843112","0.0-11.0-2.167","611e66a096a597c609ed90d7","y4xn4k","SS","34","F","{""name"":""Chrome"",""chrome"":true,""version"":""105.0"",""blink"":true,""windows"":true,""osname"":""Windows"",""osversion"":""10"",""a"":true}","9:16:23","1","3","Test_2","74","j","1","889.7999999523163","1920 x 1200","1920 x 1057","true","1","10","","","","",""
"null","<p style=""font-size: 80px;"">+ 10 points</p>","null","html-keyboard-response","169","845831","0.0-11.0-2.168","611e66a096a597c609ed90d7","y4xn4k","SS","34","F","{""name"":""Chrome"",""chrome"":true,""version"":""105.0"",""blink"":true,""windows"":true,""osname"":""Windows"",""osversion"":""10"",""a"":true}","9:16:23","1","3","Test_3","70","f","1","712.3999999761581","1920 x 1200","1920 x 1057","true","1","10","","","","",""
"null","<p style=""font-size: 80px;"">+ 10 points</p>","null","html-keyboard-response","170","848565","0.0-11.0-2.169","611e66a096a597c609ed90d7","y4xn4k","SS","34","F","{""name"":""Chrome"",""chrome"":true,""version"":""105.0"",""blink"":true,""windows"":true,""osname"":""Windows"",""osversion"":""10"",""a"":true}","9:16:23","1","3","Test_2","74","j","1","726.7999999523163","1920 x 1200","1920 x 1057","true","1","10","","","","",""
"null","<p style=""font-size: 80px;"">+ 10 points</p>","null","html-keyboard-response","171","851085","0.0-11.0-2.170","611e66a096a597c609ed90d7","y4xn4k","SS","34","F","{""name"":""Chrome"",""chrome"":true,""version"":""105.0"",""blink"":true,""windows"":true,""osname"":""Windows"",""osversion"":""10"",""a"":true}","9:16:23","1","3","Test_2","74","j","1","512.3999999761581","1920 x 1200","1920 x 1057","true","1","10","","","","",""
"null","<p style=""font-size: 80px;"">+ 10 points</p>","null","html-keyboard-response","172","853870","0.0-11.0-2.171","611e66a096a597c609ed90d7","y4xn4k","SS","34","F","{""name"":""Chrome"",""chrome"":true,""version"":""105.0"",""blink"":true,""windows"":true,""osname"":""Windows"",""osversion"":""10"",""a"":true}","9:16:23","1","3","Test_3","70","f","1","778.5","1920 x 1200","1920 x 1057","true","1","10","","","","",""
"null","<p style=""font-size: 80px;"">+ 10 points</p>","null","html-keyboard-response","173","856485","0.0-11.0-2.172","611e66a096a597c609ed90d7","y4xn4k","SS","34","F","{""name"":""Chrome"",""chrome"":true,""version"":""105.0"",""blink"":true,""windows"":true,""osname"":""Windows"",""osversion"":""10"",""a"":true}","9:16:23","1","3","Test_4","74","j","1","608.7999999523163","1920 x 1200","1920 x 1057","true","1","10","","","","",""
"null","<p style=""font-size: 80px;"">+ 10 points</p>","null","html-keyboard-response","174","859183","0.0-11.0-2.173","611e66a096a597c609ed90d7","y4xn4k","SS","34","F","{""name"":""Chrome"",""chrome"":true,""version"":""105.0"",""blink"":true,""windows"":true,""osname"":""Windows"",""osversion"":""10"",""a"":true}","9:16:23","1","3","Test_3","70","f","1","690.3999999761581","1920 x 1200","1920 x 1057","true","1","10","","","","",""
"null","<p style=""font-size: 80px;"">+ 0 points</p>","null","html-keyboard-response","175","862431","0.0-11.0-2.174","611e66a096a597c609ed90d7","y4xn4k","SS","34","F","{""name"":""Chrome"",""chrome"":true,""version"":""105.0"",""blink"":true,""windows"":true,""osname"":""Windows"",""osversion"":""10"",""a"":true}","9:16:23","1","4","Test_4","74","f","0","1239.6000000238419","1920 x 1200","1920 x 1057","true","1","0","","","","",""
"null","<p style=""font-size: 80px;"">+ 10 points</p>","null","html-keyboard-response","176","865095","0.0-11.0-2.175","611e66a096a597c609ed90d7","y4xn4k","SS","34","F","{""name"":""Chrome"",""chrome"":true,""version"":""105.0"",""blink"":true,""windows"":true,""osname"":""Windows"",""osversion"":""10"",""a"":true}","9:16:23","1","4","Test_1","74","j","1","655.8999999761581","1920 x 1200","1920 x 1057","true","1","10","","","","",""
"null","<p style=""font-size: 80px;"">+ 10 points</p>","null","html-keyboard-response","177","867726","0.0-11.0-2.176","611e66a096a597c609ed90d7","y4xn4k","SS","34","F","{""name"":""Chrome"",""chrome"":true,""version"":""105.0"",""blink"":true,""windows"":true,""osname"":""Windows"",""osversion"":""10"",""a"":true}","9:16:23","1","4","Test_3","74","j","1","624.1000000238419","1920 x 1200","1920 x 1057","true","1","10","","","","",""
"null","<p style=""font-size: 80px;"">+ 10 points</p>","null","html-keyboard-response","178","870175","0.0-11.0-2.177","611e66a096a597c609ed90d7","y4xn4k","SS","34","F","{""name"":""Chrome"",""chrome"":true,""version"":""105.0"",""blink"":true,""windows"":true,""osname"":""Windows"",""osversion"":""10"",""a"":true}","9:16:23","1","4","Test_3","74","j","1","439.89999997615814","1920 x 1200","1920 x 1057","true","1","10","","","","",""
"null","<p style=""font-size: 80px;"">+ 10 points</p>","null","html-keyboard-response","179","872742","0.0-11.0-2.178","611e66a096a597c609ed90d7","y4xn4k","SS","34","F","{""name"":""Chrome"",""chrome"":true,""version"":""105.0"",""blink"":true,""windows"":true,""osname"":""Windows"",""osversion"":""10"",""a"":true}","9:16:23","1","4","Test_3","74","j","1","560","1920 x 1200","1920 x 1057","true","1","10","","","","",""
"null","<p style=""font-size: 80px;"">+ 10 points</p>","null","html-keyboard-response","180","875260","0.0-11.0-2.179","611e66a096a597c609ed90d7","y4xn4k","SS","34","F","{""name"":""Chrome"",""chrome"":true,""version"":""105.0"",""blink"":true,""windows"":true,""osname"":""Windows"",""osversion"":""10"",""a"":true}","9:16:23","1","4","Test_3","74","j","1","510.5","1920 x 1200","1920 x 1057","true","1","10","","","","",""
"null","<p style=""font-size: 80px;"">+ 10 points</p>","null","html-keyboard-response","181","878616","0.0-11.0-2.180","611e66a096a597c609ed90d7","y4xn4k","SS","34","F","{""name"":""Chrome"",""chrome"":true,""version"":""105.0"",""blink"":true,""windows"":true,""osname"":""Windows"",""osversion"":""10"",""a"":true}","9:16:23","1","4","Test_2","70","f","1","1350.2000000476837","1920 x 1200","1920 x 1057","true","1","10","","","","",""
"null","<p style=""font-size: 80px;"">+ 10 points</p>","null","html-keyboard-response","182","881165","0.0-11.0-2.181","611e66a096a597c609ed90d7","y4xn4k","SS","34","F","{""name"":""Chrome"",""chrome"":true,""version"":""105.0"",""blink"":true,""windows"":true,""osname"":""Windows"",""osversion"":""10"",""a"":true}","9:16:23","1","4","Test_3","74","j","1","542.8999999761581","1920 x 1200","1920 x 1057","true","1","10","","","","",""
"null","<p style=""font-size: 80px;"">+ 10 points</p>","null","html-keyboard-response","183","884860","0.0-11.0-2.182","611e66a096a597c609ed90d7","y4xn4k","SS","34","F","{""name"":""Chrome"",""chrome"":true,""version"":""105.0"",""blink"":true,""windows"":true,""osname"":""Windows"",""osversion"":""10"",""a"":true}","9:16:23","1","4","Test_1","74","j","1","1687.5","1920 x 1200","1920 x 1057","true","1","10","","","","",""
"null","<p style=""font-size: 80px;"">+ 10 points</p>","null","html-keyboard-response","184","888750","0.0-11.0-2.183","611e66a096a597c609ed90d7","y4xn4k","SS","34","F","{""name"":""Chrome"",""chrome"":true,""version"":""105.0"",""blink"":true,""windows"":true,""osname"":""Windows"",""osversion"":""10"",""a"":true}","9:16:23","1","4","Test_1","74","j","1","1883.8000000715256","1920 x 1200","1920 x 1057","true","1","10","","","","",""
"null","<p style=""font-size: 80px;"">+ 10 points</p>","null","html-keyboard-response","185","891814","0.0-11.0-2.184","611e66a096a597c609ed90d7","y4xn4k","SS","34","F","{""name"":""Chrome"",""chrome"":true,""version"":""105.0"",""blink"":true,""windows"":true,""osname"":""Windows"",""osversion"":""10"",""a"":true}","9:16:23","1","4","Test_1","74","j","1","1056.7999999523163","1920 x 1200","1920 x 1057","true","1","10","","","","",""
"null","<p style=""font-size: 80px;"">+ 0 points</p>","null","html-keyboard-response","186","894784","0.0-11.0-2.185","611e66a096a597c609ed90d7","y4xn4k","SS","34","F","{""name"":""Chrome"",""chrome"":true,""version"":""105.0"",""blink"":true,""windows"":true,""osname"":""Windows"",""osversion"":""10"",""a"":true}","9:16:23","1","4","Test_3","70","j","0","960.7999999523163","1920 x 1200","1920 x 1057","true","1","0","","","","",""
"null","<p style=""font-size: 80px;"">+ 10 points</p>","null","html-keyboard-response","187","897631","0.0-11.0-2.186","611e66a096a597c609ed90d7","y4xn4k","SS","34","F","{""name"":""Chrome"",""chrome"":true,""version"":""105.0"",""blink"":true,""windows"":true,""osname"":""Windows"",""osversion"":""10"",""a"":true}","9:16:23","1","4","Test_1","74","j","1","839.3000000715256","1920 x 1200","1920 x 1057","true","1","10","","","","",""
"null","<p style=""font-size: 80px;"">+ 10 points</p>","null","html-keyboard-response","188","900176","0.0-11.0-2.187","611e66a096a597c609ed90d7","y4xn4k","SS","34","F","{""name"":""Chrome"",""chrome"":true,""version"":""105.0"",""blink"":true,""windows"":true,""osname"":""Windows"",""osversion"":""10"",""a"":true}","9:16:23","1","4","Test_2","70","f","1","536.2000000476837","1920 x 1200","1920 x 1057","true","1","10","","","","",""
