"rt","stimulus","key_press","trial_type","trial_index","time_elapsed","internal_node_id","Prolific_ID","random_ID","initials","age","gender","pc_info","start_time","Phase","Rule","Stimulus","Response","CorrResp","Accuracy","ResponseTime","screen_resolution","window_resolution","focus","relevant","Points","responses","question_order","rev_check","butterfly_check","passed_practice"
"null","<p style=""font-size: 80px;"">+ 10 points</p>","null","html-keyboard-response","1","82087","0.0-7.0-2.0","613bd1d54b15612f60104b1a","7g6a8l","AC","26","F","{""name"":""Chrome"",""chrome"":true,""version"":""105.0"",""blink"":true,""windows"":true,""osname"":""Windows"",""osversion"":""10"",""a"":true}","9:20:15","0","1","Practice_1","70","f","1","782.7000000476837","2048 x 1152","2048 x 1152","true","1","10","","","","",""
"null","<p style=""font-size: 80px;"">+ 10 points</p>","null","html-keyboard-response","2","84828","0.0-7.0-2.1","613bd1d54b15612f60104b1a","7g6a8l","AC","26","F","{""name"":""Chrome"",""chrome"":true,""version"":""105.0"",""blink"":true,""windows"":true,""osname"":""Windows"",""osversion"":""10"",""a"":true}","9:20:15","0","1","Practice_4","74","j","1","715","2048 x 1152","2048 x 1152","true","1","10","","","","",""
"null","<p style=""font-size: 80px;"">+ 0 points</p>","null","html-keyboard-response","3","87356","0.0-7.0-2.2","613bd1d54b15612f60104b1a","7g6a8l","AC","26","F","{""name"":""Chrome"",""chrome"":true,""version"":""105.0"",""blink"":true,""windows"":true,""osname"":""Windows"",""osversion"":""10"",""a"":true}","9:20:15","0","1","Practice_2","70","j","0","516","2048 x 1152","2048 x 1152","true","1","0","","","","",""
"null","<p style=""font-size: 80px;"">+ 10 points</p>","null","html-keyboard-response","4","90049","0.0-7.0-2.3","613bd1d54b15612f60104b1a","7g6a8l","AC","26","F","{""name"":""Chrome"",""chrome"":true,""version"":""105.0"",""blink"":true,""windows"":true,""osname"":""Windows"",""osversion"":""10"",""a"":true}","9:20:15","0","1","Practice_4","74","j","1","673.1000001430511","2048 x 1152","2048 x 1152","true","1","10","","","","",""
"null","<p style=""font-size: 80px;"">+ 10 points</p>","null","html-keyboard-response","5","93103","0.0-7.0-2.4","613bd1d54b15612f60104b1a","7g6a8l","AC","26","F","{""name"":""Chrome"",""chrome"":true,""version"":""105.0"",""blink"":true,""windows"":true,""osname"":""Windows"",""osversion"":""10"",""a"":true}","9:20:15","0","1","Practice_1","70","f","1","1024.2999999523163","2048 x 1152","2048 x 1152","true","1","10","","","","",""
"null","<p style=""font-size: 80px;"">+ 10 points</p>","null","html-keyboard-response","6","96384","0.0-7.0-2.5","613bd1d54b15612f60104b1a","7g6a8l","AC","26","F","{""name"":""Chrome"",""chrome"":true,""version"":""105.0"",""blink"":true,""windows"":true,""osname"":""Windows"",""osversion"":""10"",""a"":true}","9:20:15","0","1","Practice_4","74","j","1","1263.7999999523163","2048 x 1152","2048 x 1152","true","1","10","","","","",""
"null","<p style=""font-size: 80px;"">+ 10 points</p>","null","html-keyboard-response","7","99271","0.0-7.0-2.6","613bd1d54b15612f60104b1a","7g6a8l","AC","26","F","{""name"":""Chrome"",""chrome"":true,""version"":""105.0"",""blink"":true,""windows"":true,""osname"":""Windows"",""osversion"":""10"",""a"":true}","9:20:15","0","1","Practice_4","74","j","1","857.0999999046326","2048 x 1152","2048 x 1152","true","1","10","","","","",""
"null","<p style=""font-size: 80px;"">+ 10 points</p>","null","html-keyboard-response","8","102260","0.0-7.0-2.7","613bd1d54b15612f60104b1a","7g6a8l","AC","26","F","{""name"":""Chrome"",""chrome"":true,""version"":""105.0"",""blink"":true,""windows"":true,""osname"":""Windows"",""osversion"":""10"",""a"":true}","9:20:15","0","1","Practice_1","70","f","1","972","2048 x 1152","2048 x 1152","true","1","10","","","","",""
"null","<p style=""font-size: 80px;"">+ 10 points</p>","null","html-keyboard-response","9","105078","0.0-7.0-2.8","613bd1d54b15612f60104b1a","7g6a8l","AC","26","F","{""name"":""Chrome"",""chrome"":true,""version"":""105.0"",""blink"":true,""windows"":true,""osname"":""Windows"",""osversion"":""10"",""a"":true}","9:20:15","0","1","Practice_3","70","f","1","791.3000001907349","2048 x 1152","2048 x 1152","true","1","10","","","","",""
"null","<p style=""font-size: 80px;"">+ 0 points</p>","null","html-keyboard-response","10","107556","0.0-7.0-2.9","613bd1d54b15612f60104b1a","7g6a8l","AC","26","F","{""name"":""Chrome"",""chrome"":true,""version"":""105.0"",""blink"":true,""windows"":true,""osname"":""Windows"",""osversion"":""10"",""a"":true}","9:20:15","0","1","Practice_4","70","j","0","459.7999999523163","2048 x 1152","2048 x 1152","true","1","0","","","","",""
"null","<p style=""font-size: 80px;"">+ 10 points</p>","null","html-keyboard-response","11","111091","0.0-7.0-2.10","613bd1d54b15612f60104b1a","7g6a8l","AC","26","F","{""name"":""Chrome"",""chrome"":true,""version"":""105.0"",""blink"":true,""windows"":true,""osname"":""Windows"",""osversion"":""10"",""a"":true}","9:20:15","0","1","Practice_3","70","f","1","1520.9000000953674","2048 x 1152","2048 x 1152","true","1","10","","","","",""
"null","<p style=""font-size: 80px;"">+ 10 points</p>","null","html-keyboard-response","12","114181","0.0-7.0-2.11","613bd1d54b15612f60104b1a","7g6a8l","AC","26","F","{""name"":""Chrome"",""chrome"":true,""version"":""105.0"",""blink"":true,""windows"":true,""osname"":""Windows"",""osversion"":""10"",""a"":true}","9:20:15","0","1","Practice_3","70","f","1","1072.5999999046326","2048 x 1152","2048 x 1152","true","1","10","","","","",""
"null","<p style=""font-size: 80px;"">+ 10 points</p>","null","html-keyboard-response","13","117302","0.0-7.0-2.12","613bd1d54b15612f60104b1a","7g6a8l","AC","26","F","{""name"":""Chrome"",""chrome"":true,""version"":""105.0"",""blink"":true,""windows"":true,""osname"":""Windows"",""osversion"":""10"",""a"":true}","9:20:15","0","1","Practice_2","74","j","1","1104.3000001907349","2048 x 1152","2048 x 1152","true","1","10","","","","",""
"null","<p style=""font-size: 80px;"">+ 0 points</p>","null","html-keyboard-response","14","120113","0.0-7.0-2.13","613bd1d54b15612f60104b1a","7g6a8l","AC","26","F","{""name"":""Chrome"",""chrome"":true,""version"":""105.0"",""blink"":true,""windows"":true,""osname"":""Windows"",""osversion"":""10"",""a"":true}","9:20:15","0","1","Practice_1","74","f","0","787","2048 x 1152","2048 x 1152","true","1","0","","","","",""
"null","<p style=""font-size: 80px;"">+ 10 points</p>","null","html-keyboard-response","15","123019","0.0-7.0-2.14","613bd1d54b15612f60104b1a","7g6a8l","AC","26","F","{""name"":""Chrome"",""chrome"":true,""version"":""105.0"",""blink"":true,""windows"":true,""osname"":""Windows"",""osversion"":""10"",""a"":true}","9:20:15","0","1","Practice_3","70","f","1","885.7999999523163","2048 x 1152","2048 x 1152","true","1","10","","","","",""
"null","<p style=""font-size: 80px;"">+ 10 points</p>","null","html-keyboard-response","16","126219","0.0-7.0-2.15","613bd1d54b15612f60104b1a","7g6a8l","AC","26","F","{""name"":""Chrome"",""chrome"":true,""version"":""105.0"",""blink"":true,""windows"":true,""osname"":""Windows"",""osversion"":""10"",""a"":true}","9:20:15","0","1","Practice_1","70","f","1","1181.3999998569489","2048 x 1152","2048 x 1152","true","1","10","","","","",""
"null","<p style=""font-size: 80px;"">+ 10 points</p>","null","html-keyboard-response","17","130598","0.0-7.0-2.16","613bd1d54b15612f60104b1a","7g6a8l","AC","26","F","{""name"":""Chrome"",""chrome"":true,""version"":""105.0"",""blink"":true,""windows"":true,""osname"":""Windows"",""osversion"":""10"",""a"":true}","9:20:15","0","1","Practice_3","70","f","1","2354.2000000476837","2048 x 1152","2048 x 1152","true","1","10","","","","",""
"null","<p style=""font-size: 80px;"">+ 10 points</p>","null","html-keyboard-response","18","133306","0.0-7.0-2.17","613bd1d54b15612f60104b1a","7g6a8l","AC","26","F","{""name"":""Chrome"",""chrome"":true,""version"":""105.0"",""blink"":true,""windows"":true,""osname"":""Windows"",""osversion"":""10"",""a"":true}","9:20:15","0","1","Practice_2","74","j","1","689.6000001430511","2048 x 1152","2048 x 1152","true","1","10","","","","",""
"null","<p style=""font-size: 80px;"">+ 10 points</p>","null","html-keyboard-response","19","135876","0.0-7.0-2.18","613bd1d54b15612f60104b1a","7g6a8l","AC","26","F","{""name"":""Chrome"",""chrome"":true,""version"":""105.0"",""blink"":true,""windows"":true,""osname"":""Windows"",""osversion"":""10"",""a"":true}","9:20:15","0","1","Practice_2","74","j","1","545.0999999046326","2048 x 1152","2048 x 1152","true","1","10","","","","",""
"null","<p style=""font-size: 80px;"">+ 10 points</p>","null","html-keyboard-response","20","138834","0.0-7.0-2.19","613bd1d54b15612f60104b1a","7g6a8l","AC","26","F","{""name"":""Chrome"",""chrome"":true,""version"":""105.0"",""blink"":true,""windows"":true,""osname"":""Windows"",""osversion"":""10"",""a"":true}","9:20:15","0","1","Practice_2","74","j","1","944.5999999046326","2048 x 1152","2048 x 1152","true","1","10","","","","",""
"null","<p style=""font-size: 80px;"">+ 0 points</p>","null","html-keyboard-response","21","141265","0.0-7.0-2.20","613bd1d54b15612f60104b1a","7g6a8l","AC","26","F","{""name"":""Chrome"",""chrome"":true,""version"":""105.0"",""blink"":true,""windows"":true,""osname"":""Windows"",""osversion"":""10"",""a"":true}","9:20:15","0","2","Practice_2","74","f","0","418.60000014305115","2048 x 1152","2048 x 1152","true","1","0","","","","",""
"null","<p style=""font-size: 80px;"">+ 0 points</p>","null","html-keyboard-response","22","144062","0.0-7.0-2.21","613bd1d54b15612f60104b1a","7g6a8l","AC","26","F","{""name"":""Chrome"",""chrome"":true,""version"":""105.0"",""blink"":true,""windows"":true,""osname"":""Windows"",""osversion"":""10"",""a"":true}","9:20:15","0","2","Practice_3","70","j","0","772.6000001430511","2048 x 1152","2048 x 1152","true","1","0","","","","",""
"null","<p style=""font-size: 80px;"">+ 0 points</p>","null","html-keyboard-response","23","146519","0.0-7.0-2.22","613bd1d54b15612f60104b1a","7g6a8l","AC","26","F","{""name"":""Chrome"",""chrome"":true,""version"":""105.0"",""blink"":true,""windows"":true,""osname"":""Windows"",""osversion"":""10"",""a"":true}","9:20:15","0","2","Practice_4","74","f","0","442.7999999523163","2048 x 1152","2048 x 1152","true","1","0","","","","",""
"null","<p style=""font-size: 80px;"">+ 10 points</p>","null","html-keyboard-response","24","149309","0.0-7.0-2.23","613bd1d54b15612f60104b1a","7g6a8l","AC","26","F","{""name"":""Chrome"",""chrome"":true,""version"":""105.0"",""blink"":true,""windows"":true,""osname"":""Windows"",""osversion"":""10"",""a"":true}","9:20:15","0","2","Practice_3","74","j","1","765.3000001907349","2048 x 1152","2048 x 1152","true","1","10","","","","",""
"null","<p style=""font-size: 80px;"">+ 10 points</p>","null","html-keyboard-response","25","151910","0.0-7.0-2.24","613bd1d54b15612f60104b1a","7g6a8l","AC","26","F","{""name"":""Chrome"",""chrome"":true,""version"":""105.0"",""blink"":true,""windows"":true,""osname"":""Windows"",""osversion"":""10"",""a"":true}","9:20:15","0","2","Practice_2","70","f","1","573.1999998092651","2048 x 1152","2048 x 1152","true","1","10","","","","",""
"null","<p style=""font-size: 80px;"">+ 10 points</p>","null","html-keyboard-response","26","154510","0.0-7.0-2.25","613bd1d54b15612f60104b1a","7g6a8l","AC","26","F","{""name"":""Chrome"",""chrome"":true,""version"":""105.0"",""blink"":true,""windows"":true,""osname"":""Windows"",""osversion"":""10"",""a"":true}","9:20:15","0","2","Practice_3","74","j","1","581.3999998569489","2048 x 1152","2048 x 1152","true","1","10","","","","",""
"null","<p style=""font-size: 80px;"">+ 10 points</p>","null","html-keyboard-response","27","157312","0.0-7.0-2.26","613bd1d54b15612f60104b1a","7g6a8l","AC","26","F","{""name"":""Chrome"",""chrome"":true,""version"":""105.0"",""blink"":true,""windows"":true,""osname"":""Windows"",""osversion"":""10"",""a"":true}","9:20:15","0","2","Practice_4","70","f","1","773.6000001430511","2048 x 1152","2048 x 1152","true","1","10","","","","",""
"null","<p style=""font-size: 80px;"">+ 10 points</p>","null","html-keyboard-response","28","159882","0.0-7.0-2.27","613bd1d54b15612f60104b1a","7g6a8l","AC","26","F","{""name"":""Chrome"",""chrome"":true,""version"":""105.0"",""blink"":true,""windows"":true,""osname"":""Windows"",""osversion"":""10"",""a"":true}","9:20:15","0","2","Practice_1","74","j","1","550.4000000953674","2048 x 1152","2048 x 1152","true","1","10","","","","",""
"null","<p style=""font-size: 80px;"">+ 10 points</p>","null","html-keyboard-response","29","162739","0.0-7.0-2.28","613bd1d54b15612f60104b1a","7g6a8l","AC","26","F","{""name"":""Chrome"",""chrome"":true,""version"":""105.0"",""blink"":true,""windows"":true,""osname"":""Windows"",""osversion"":""10"",""a"":true}","9:20:15","0","2","Practice_2","70","f","1","841.7999999523163","2048 x 1152","2048 x 1152","true","1","10","","","","",""
"null","<p style=""font-size: 80px;"">+ 0 points</p>","null","html-keyboard-response","30","165390","0.0-7.0-2.29","613bd1d54b15612f60104b1a","7g6a8l","AC","26","F","{""name"":""Chrome"",""chrome"":true,""version"":""105.0"",""blink"":true,""windows"":true,""osname"":""Windows"",""osversion"":""10"",""a"":true}","9:20:15","0","2","Practice_2","74","f","0","623.3999998569489","2048 x 1152","2048 x 1152","true","1","0","","","","",""
"null","<p style=""font-size: 80px;"">+ 0 points</p>","null","html-keyboard-response","31","168277","0.0-7.0-2.30","613bd1d54b15612f60104b1a","7g6a8l","AC","26","F","{""name"":""Chrome"",""chrome"":true,""version"":""105.0"",""blink"":true,""windows"":true,""osname"":""Windows"",""osversion"":""10"",""a"":true}","9:20:15","0","2","Practice_3","70","j","0","868.4000000953674","2048 x 1152","2048 x 1152","true","1","0","","","","",""
"null","<p style=""font-size: 80px;"">+ 10 points</p>","null","html-keyboard-response","32","171406","0.0-7.0-2.31","613bd1d54b15612f60104b1a","7g6a8l","AC","26","F","{""name"":""Chrome"",""chrome"":true,""version"":""105.0"",""blink"":true,""windows"":true,""osname"":""Windows"",""osversion"":""10"",""a"":true}","9:20:15","0","2","Practice_4","70","f","1","1111","2048 x 1152","2048 x 1152","true","1","10","","","","",""
"null","<p style=""font-size: 80px;"">+ 10 points</p>","null","html-keyboard-response","33","174337","0.0-7.0-2.32","613bd1d54b15612f60104b1a","7g6a8l","AC","26","F","{""name"":""Chrome"",""chrome"":true,""version"":""105.0"",""blink"":true,""windows"":true,""osname"":""Windows"",""osversion"":""10"",""a"":true}","9:20:15","0","2","Practice_1","74","j","1","922.5","2048 x 1152","2048 x 1152","true","1","10","","","","",""
"null","<p style=""font-size: 80px;"">+ 10 points</p>","null","html-keyboard-response","34","177805","0.0-7.0-2.33","613bd1d54b15612f60104b1a","7g6a8l","AC","26","F","{""name"":""Chrome"",""chrome"":true,""version"":""105.0"",""blink"":true,""windows"":true,""osname"":""Windows"",""osversion"":""10"",""a"":true}","9:20:15","0","2","Practice_1","74","j","1","1451.2999999523163","2048 x 1152","2048 x 1152","true","1","10","","","","",""
"null","<p style=""font-size: 80px;"">+ 10 points</p>","null","html-keyboard-response","35","180587","0.0-7.0-2.34","613bd1d54b15612f60104b1a","7g6a8l","AC","26","F","{""name"":""Chrome"",""chrome"":true,""version"":""105.0"",""blink"":true,""windows"":true,""osname"":""Windows"",""osversion"":""10"",""a"":true}","9:20:15","0","2","Practice_1","74","j","1","763","2048 x 1152","2048 x 1152","true","1","10","","","","",""
"null","<p style=""font-size: 80px;"">+ 10 points</p>","null","html-keyboard-response","36","183452","0.0-7.0-2.35","613bd1d54b15612f60104b1a","7g6a8l","AC","26","F","{""name"":""Chrome"",""chrome"":true,""version"":""105.0"",""blink"":true,""windows"":true,""osname"":""Windows"",""osversion"":""10"",""a"":true}","9:20:15","0","2","Practice_2","70","f","1","847.8000001907349","2048 x 1152","2048 x 1152","true","1","10","","","","",""
"null","<p style=""font-size: 80px;"">+ 10 points</p>","null","html-keyboard-response","37","186357","0.0-7.0-2.36","613bd1d54b15612f60104b1a","7g6a8l","AC","26","F","{""name"":""Chrome"",""chrome"":true,""version"":""105.0"",""blink"":true,""windows"":true,""osname"":""Windows"",""osversion"":""10"",""a"":true}","9:20:15","0","2","Practice_1","74","j","1","880.2000000476837","2048 x 1152","2048 x 1152","true","1","10","","","","",""
"null","<p style=""font-size: 80px;"">+ 0 points</p>","null","html-keyboard-response","38","189004","0.0-7.0-2.37","613bd1d54b15612f60104b1a","7g6a8l","AC","26","F","{""name"":""Chrome"",""chrome"":true,""version"":""105.0"",""blink"":true,""windows"":true,""osname"":""Windows"",""osversion"":""10"",""a"":true}","9:20:15","0","2","Practice_3","70","j","0","621.2000000476837","2048 x 1152","2048 x 1152","true","1","0","","","","",""
"null","<p style=""font-size: 80px;"">+ 0 points</p>","null","html-keyboard-response","39","191443","0.0-7.0-2.38","613bd1d54b15612f60104b1a","7g6a8l","AC","26","F","{""name"":""Chrome"",""chrome"":true,""version"":""105.0"",""blink"":true,""windows"":true,""osname"":""Windows"",""osversion"":""10"",""a"":true}","9:20:15","0","2","Practice_4","74","f","0","428.10000014305115","2048 x 1152","2048 x 1152","true","1","0","","","","",""
"null","<p style=""font-size: 80px;"">+ 10 points</p>","null","html-keyboard-response","40","194964","0.0-7.0-2.39","613bd1d54b15612f60104b1a","7g6a8l","AC","26","F","{""name"":""Chrome"",""chrome"":true,""version"":""105.0"",""blink"":true,""windows"":true,""osname"":""Windows"",""osversion"":""10"",""a"":true}","9:20:15","0","2","Practice_4","70","f","1","1503.2000000476837","2048 x 1152","2048 x 1152","true","1","10","","","","",""
"6356.399999856949","","","survey-multi-choice","127","201323","0.0-8.0","613bd1d54b15612f60104b1a","7g6a8l","AC","26","F","{""name"":""Chrome"",""chrome"":true,""version"":""105.0"",""blink"":true,""windows"":true,""osname"":""Windows"",""osversion"":""10"",""a"":true}","9:20:15","","","","","","","","","","","1","","{""Q0"":""The red one"",""Q1"":""1""}","[0,1]","1","The red one","2"
"null","<p style=""font-size: 80px;"">+ 10 points</p>","null","html-keyboard-response","1","209127","0.0-11.0-2.0","613bd1d54b15612f60104b1a","7g6a8l","AC","26","F","{""name"":""Chrome"",""chrome"":true,""version"":""105.0"",""blink"":true,""windows"":true,""osname"":""Windows"",""osversion"":""10"",""a"":true}","9:20:15","1","3","Test_3","70","f","1","787.6000001430511","2048 x 1152","2048 x 1152","true","1","10","","","","",""
"null","<p style=""font-size: 80px;"">+ 10 points</p>","null","html-keyboard-response","2","211695","0.0-11.0-2.1","613bd1d54b15612f60104b1a","7g6a8l","AC","26","F","{""name"":""Chrome"",""chrome"":true,""version"":""105.0"",""blink"":true,""windows"":true,""osname"":""Windows"",""osversion"":""10"",""a"":true}","9:20:15","1","3","Test_3","70","f","1","552.4000000953674","2048 x 1152","2048 x 1152","true","1","10","","","","",""
"null","<p style=""font-size: 80px;"">+ 10 points</p>","null","html-keyboard-response","3","215349","0.0-11.0-2.2","613bd1d54b15612f60104b1a","7g6a8l","AC","26","F","{""name"":""Chrome"",""chrome"":true,""version"":""105.0"",""blink"":true,""windows"":true,""osname"":""Windows"",""osversion"":""10"",""a"":true}","9:20:15","1","3","Test_2","74","j","1","1631.9000000953674","2048 x 1152","2048 x 1152","true","1","10","","","","",""
"null","<p style=""font-size: 80px;"">+ 10 points</p>","null","html-keyboard-response","4","218182","0.0-11.0-2.3","613bd1d54b15612f60104b1a","7g6a8l","AC","26","F","{""name"":""Chrome"",""chrome"":true,""version"":""105.0"",""blink"":true,""windows"":true,""osname"":""Windows"",""osversion"":""10"",""a"":true}","9:20:15","1","3","Test_3","70","f","1","805.1000001430511","2048 x 1152","2048 x 1152","true","1","10","","","","",""
"null","<p style=""font-size: 80px;"">+ 10 points</p>","null","html-keyboard-response","5","220920","0.0-11.0-2.4","613bd1d54b15612f60104b1a","7g6a8l","AC","26","F","{""name"":""Chrome"",""chrome"":true,""version"":""105.0"",""blink"":true,""windows"":true,""osname"":""Windows"",""osversion"":""10"",""a"":true}","9:20:15","1","3","Test_2","74","j","1","710.0999999046326","2048 x 1152","2048 x 1152","true","1","10","","","","",""
"null","<p style=""font-size: 80px;"">+ 10 points</p>","null","html-keyboard-response","6","223608","0.0-11.0-2.5","613bd1d54b15612f60104b1a","7g6a8l","AC","26","F","{""name"":""Chrome"",""chrome"":true,""version"":""105.0"",""blink"":true,""windows"":true,""osname"":""Windows"",""osversion"":""10"",""a"":true}","9:20:15","1","3","Test_2","74","j","1","663","2048 x 1152","2048 x 1152","true","1","10","","","","",""
"null","<p style=""font-size: 80px;"">+ 10 points</p>","null","html-keyboard-response","7","226781","0.0-11.0-2.6","613bd1d54b15612f60104b1a","7g6a8l","AC","26","F","{""name"":""Chrome"",""chrome"":true,""version"":""105.0"",""blink"":true,""windows"":true,""osname"":""Windows"",""osversion"":""10"",""a"":true}","9:20:15","1","3","Test_4","74","j","1","1148.4000000953674","2048 x 1152","2048 x 1152","true","1","10","","","","",""
"null","<p style=""font-size: 80px;"">+ 10 points</p>","null","html-keyboard-response","8","229994","0.0-11.0-2.7","613bd1d54b15612f60104b1a","7g6a8l","AC","26","F","{""name"":""Chrome"",""chrome"":true,""version"":""105.0"",""blink"":true,""windows"":true,""osname"":""Windows"",""osversion"":""10"",""a"":true}","9:20:15","1","3","Test_3","70","f","1","1190.4000000953674","2048 x 1152","2048 x 1152","true","1","10","","","","",""
"null","<p style=""font-size: 80px;"">+ 10 points</p>","null","html-keyboard-response","9","232881","0.0-11.0-2.8","613bd1d54b15612f60104b1a","7g6a8l","AC","26","F","{""name"":""Chrome"",""chrome"":true,""version"":""105.0"",""blink"":true,""windows"":true,""osname"":""Windows"",""osversion"":""10"",""a"":true}","9:20:15","1","3","Test_4","74","j","1","867.7000000476837","2048 x 1152","2048 x 1152","true","1","10","","","","",""
"null","<p style=""font-size: 80px;"">+ 10 points</p>","null","html-keyboard-response","10","235739","0.0-11.0-2.9","613bd1d54b15612f60104b1a","7g6a8l","AC","26","F","{""name"":""Chrome"",""chrome"":true,""version"":""105.0"",""blink"":true,""windows"":true,""osname"":""Windows"",""osversion"":""10"",""a"":true}","9:20:15","1","3","Test_2","74","j","1","839.2999999523163","2048 x 1152","2048 x 1152","true","1","10","","","","",""
"null","<p style=""font-size: 80px;"">+ 10 points</p>","null","html-keyboard-response","11","238599","0.0-11.0-2.10","613bd1d54b15612f60104b1a","7g6a8l","AC","26","F","{""name"":""Chrome"",""chrome"":true,""version"":""105.0"",""blink"":true,""windows"":true,""osname"":""Windows"",""osversion"":""10"",""a"":true}","9:20:15","1","3","Test_1","70","f","1","843.0999999046326","2048 x 1152","2048 x 1152","true","1","10","","","","",""
"null","<p style=""font-size: 80px;"">+ 10 points</p>","null","html-keyboard-response","12","241262","0.0-11.0-2.11","613bd1d54b15612f60104b1a","7g6a8l","AC","26","F","{""name"":""Chrome"",""chrome"":true,""version"":""105.0"",""blink"":true,""windows"":true,""osname"":""Windows"",""osversion"":""10"",""a"":true}","9:20:15","1","3","Test_1","70","f","1","645.5","2048 x 1152","2048 x 1152","true","1","10","","","","",""
"null","<p style=""font-size: 80px;"">+ 10 points</p>","null","html-keyboard-response","13","243727","0.0-11.0-2.12","613bd1d54b15612f60104b1a","7g6a8l","AC","26","F","{""name"":""Chrome"",""chrome"":true,""version"":""105.0"",""blink"":true,""windows"":true,""osname"":""Windows"",""osversion"":""10"",""a"":true}","9:20:15","1","3","Test_1","70","f","1","443.60000014305115","2048 x 1152","2048 x 1152","true","1","10","","","","",""
"null","<p style=""font-size: 80px;"">+ 10 points</p>","null","html-keyboard-response","14","246509","0.0-11.0-2.13","613bd1d54b15612f60104b1a","7g6a8l","AC","26","F","{""name"":""Chrome"",""chrome"":true,""version"":""105.0"",""blink"":true,""windows"":true,""osname"":""Windows"",""osversion"":""10"",""a"":true}","9:20:15","1","3","Test_3","70","f","1","757.5","2048 x 1152","2048 x 1152","true","1","10","","","","",""
"null","<p style=""font-size: 80px;"">+ 10 points</p>","null","html-keyboard-response","15","249686","0.0-11.0-2.14","613bd1d54b15612f60104b1a","7g6a8l","AC","26","F","{""name"":""Chrome"",""chrome"":true,""version"":""105.0"",""blink"":true,""windows"":true,""osname"":""Windows"",""osversion"":""10"",""a"":true}","9:20:15","1","3","Test_1","70","f","1","1148.9000000953674","2048 x 1152","2048 x 1152","true","1","10","","","","",""
"null","<p style=""font-size: 80px;"">+ 10 points</p>","null","html-keyboard-response","16","252812","0.0-11.0-2.15","613bd1d54b15612f60104b1a","7g6a8l","AC","26","F","{""name"":""Chrome"",""chrome"":true,""version"":""105.0"",""blink"":true,""windows"":true,""osname"":""Windows"",""osversion"":""10"",""a"":true}","9:20:15","1","3","Test_1","70","f","1","1109.6000001430511","2048 x 1152","2048 x 1152","true","1","10","","","","",""
"null","<p style=""font-size: 80px;"">+ 10 points</p>","null","html-keyboard-response","17","256399","0.0-11.0-2.16","613bd1d54b15612f60104b1a","7g6a8l","AC","26","F","{""name"":""Chrome"",""chrome"":true,""version"":""105.0"",""blink"":true,""windows"":true,""osname"":""Windows"",""osversion"":""10"",""a"":true}","9:20:15","1","3","Test_2","74","j","1","1563.5","2048 x 1152","2048 x 1152","true","1","10","","","","",""
"null","<p style=""font-size: 80px;"">+ 10 points</p>","null","html-keyboard-response","18","259186","0.0-11.0-2.17","613bd1d54b15612f60104b1a","7g6a8l","AC","26","F","{""name"":""Chrome"",""chrome"":true,""version"":""105.0"",""blink"":true,""windows"":true,""osname"":""Windows"",""osversion"":""10"",""a"":true}","9:20:15","1","3","Test_4","74","j","1","763.5999999046326","2048 x 1152","2048 x 1152","true","1","10","","","","",""
"null","<p style=""font-size: 80px;"">+ 10 points</p>","null","html-keyboard-response","19","262574","0.0-11.0-2.18","613bd1d54b15612f60104b1a","7g6a8l","AC","26","F","{""name"":""Chrome"",""chrome"":true,""version"":""105.0"",""blink"":true,""windows"":true,""osname"":""Windows"",""osversion"":""10"",""a"":true}","9:20:15","1","3","Test_4","74","j","1","1360.9000000953674","2048 x 1152","2048 x 1152","true","1","10","","","","",""
"null","<p style=""font-size: 80px;"">+ 0 points</p>","null","html-keyboard-response","20","266030","0.0-11.0-2.19","613bd1d54b15612f60104b1a","7g6a8l","AC","26","F","{""name"":""Chrome"",""chrome"":true,""version"":""105.0"",""blink"":true,""windows"":true,""osname"":""Windows"",""osversion"":""10"",""a"":true}","9:20:15","1","4","Test_1","70","j","0","1431.7000000476837","2048 x 1152","2048 x 1152","true","1","0","","","","",""
"null","<p style=""font-size: 80px;"">+ 0 points</p>","null","html-keyboard-response","21","268622","0.0-11.0-2.20","613bd1d54b15612f60104b1a","7g6a8l","AC","26","F","{""name"":""Chrome"",""chrome"":true,""version"":""105.0"",""blink"":true,""windows"":true,""osname"":""Windows"",""osversion"":""10"",""a"":true}","9:20:15","1","4","Test_4","74","f","0","563.5","2048 x 1152","2048 x 1152","true","1","0","","","","",""
"null","<p style=""font-size: 80px;"">+ 10 points</p>","null","html-keyboard-response","22","271690","0.0-11.0-2.21","613bd1d54b15612f60104b1a","7g6a8l","AC","26","F","{""name"":""Chrome"",""chrome"":true,""version"":""105.0"",""blink"":true,""windows"":true,""osname"":""Windows"",""osversion"":""10"",""a"":true}","9:20:15","1","4","Test_1","74","j","1","1050.9000000953674","2048 x 1152","2048 x 1152","true","1","10","","","","",""
"null","<p style=""font-size: 80px;"">+ 10 points</p>","null","html-keyboard-response","23","274278","0.0-11.0-2.22","613bd1d54b15612f60104b1a","7g6a8l","AC","26","F","{""name"":""Chrome"",""chrome"":true,""version"":""105.0"",""blink"":true,""windows"":true,""osname"":""Windows"",""osversion"":""10"",""a"":true}","9:20:15","1","4","Test_1","74","j","1","573.6000001430511","2048 x 1152","2048 x 1152","true","1","10","","","","",""
"null","<p style=""font-size: 80px;"">+ 10 points</p>","null","html-keyboard-response","24","276844","0.0-11.0-2.23","613bd1d54b15612f60104b1a","7g6a8l","AC","26","F","{""name"":""Chrome"",""chrome"":true,""version"":""105.0"",""blink"":true,""windows"":true,""osname"":""Windows"",""osversion"":""10"",""a"":true}","9:20:15","1","4","Test_1","74","j","1","547.2999999523163","2048 x 1152","2048 x 1152","true","1","10","","","","",""
"null","<p style=""font-size: 80px;"">+ 10 points</p>","null","html-keyboard-response","25","280225","0.0-11.0-2.24","613bd1d54b15612f60104b1a","7g6a8l","AC","26","F","{""name"":""Chrome"",""chrome"":true,""version"":""105.0"",""blink"":true,""windows"":true,""osname"":""Windows"",""osversion"":""10"",""a"":true}","9:20:15","1","4","Test_2","70","f","1","1361.1000001430511","2048 x 1152","2048 x 1152","true","1","10","","","","",""
"null","<p style=""font-size: 80px;"">+ 10 points</p>","null","html-keyboard-response","26","283036","0.0-11.0-2.25","613bd1d54b15612f60104b1a","7g6a8l","AC","26","F","{""name"":""Chrome"",""chrome"":true,""version"":""105.0"",""blink"":true,""windows"":true,""osname"":""Windows"",""osversion"":""10"",""a"":true}","9:20:15","1","4","Test_4","70","f","1","800.3000001907349","2048 x 1152","2048 x 1152","true","1","10","","","","",""
"null","<p style=""font-size: 80px;"">+ 10 points</p>","null","html-keyboard-response","27","285632","0.0-11.0-2.26","613bd1d54b15612f60104b1a","7g6a8l","AC","26","F","{""name"":""Chrome"",""chrome"":true,""version"":""105.0"",""blink"":true,""windows"":true,""osname"":""Windows"",""osversion"":""10"",""a"":true}","9:20:15","1","4","Test_4","70","f","1","580.4000000953674","2048 x 1152","2048 x 1152","true","1","10","","","","",""
"null","<p style=""font-size: 80px;"">+ 10 points</p>","null","html-keyboard-response","28","288428","0.0-11.0-2.27","613bd1d54b15612f60104b1a","7g6a8l","AC","26","F","{""name"":""Chrome"",""chrome"":true,""version"":""105.0"",""blink"":true,""windows"":true,""osname"":""Windows"",""osversion"":""10"",""a"":true}","9:20:15","1","4","Test_4","70","f","1","781.2000000476837","2048 x 1152","2048 x 1152","true","1","10","","","","",""
"null","<p style=""font-size: 80px;"">+ 10 points</p>","null","html-keyboard-response","29","291136","0.0-11.0-2.28","613bd1d54b15612f60104b1a","7g6a8l","AC","26","F","{""name"":""Chrome"",""chrome"":true,""version"":""105.0"",""blink"":true,""windows"":true,""osname"":""Windows"",""osversion"":""10"",""a"":true}","9:20:15","1","4","Test_3","74","j","1","697","2048 x 1152","2048 x 1152","true","1","10","","","","",""
"null","<p style=""font-size: 80px;"">+ 10 points</p>","null","html-keyboard-response","30","294349","0.0-11.0-2.29","613bd1d54b15612f60104b1a","7g6a8l","AC","26","F","{""name"":""Chrome"",""chrome"":true,""version"":""105.0"",""blink"":true,""windows"":true,""osname"":""Windows"",""osversion"":""10"",""a"":true}","9:20:15","1","4","Test_3","74","j","1","1191.2000000476837","2048 x 1152","2048 x 1152","true","1","10","","","","",""
"null","<p style=""font-size: 80px;"">+ 10 points</p>","null","html-keyboard-response","31","297242","0.0-11.0-2.30","613bd1d54b15612f60104b1a","7g6a8l","AC","26","F","{""name"":""Chrome"",""chrome"":true,""version"":""105.0"",""blink"":true,""windows"":true,""osname"":""Windows"",""osversion"":""10"",""a"":true}","9:20:15","1","4","Test_2","70","f","1","865.2000000476837","2048 x 1152","2048 x 1152","true","1","10","","","","",""
"null","<p style=""font-size: 80px;"">+ 10 points</p>","null","html-keyboard-response","32","300139","0.0-11.0-2.31","613bd1d54b15612f60104b1a","7g6a8l","AC","26","F","{""name"":""Chrome"",""chrome"":true,""version"":""105.0"",""blink"":true,""windows"":true,""osname"":""Windows"",""osversion"":""10"",""a"":true}","9:20:15","1","4","Test_2","70","f","1","880.4000000953674","2048 x 1152","2048 x 1152","true","1","10","","","","",""
"null","<p style=""font-size: 80px;"">+ 10 points</p>","null","html-keyboard-response","33","302925","0.0-11.0-2.32","613bd1d54b15612f60104b1a","7g6a8l","AC","26","F","{""name"":""Chrome"",""chrome"":true,""version"":""105.0"",""blink"":true,""windows"":true,""osname"":""Windows"",""osversion"":""10"",""a"":true}","9:20:15","1","4","Test_1","74","j","1","772.7000000476837","2048 x 1152","2048 x 1152","true","1","10","","","","",""
"null","<p style=""font-size: 80px;"">+ 10 points</p>","null","html-keyboard-response","34","306486","0.0-11.0-2.33","613bd1d54b15612f60104b1a","7g6a8l","AC","26","F","{""name"":""Chrome"",""chrome"":true,""version"":""105.0"",""blink"":true,""windows"":true,""osname"":""Windows"",""osversion"":""10"",""a"":true}","9:20:15","1","4","Test_3","74","j","1","1546.8000001907349","2048 x 1152","2048 x 1152","true","1","10","","","","",""
"null","<p style=""font-size: 80px;"">+ 0 points</p>","null","html-keyboard-response","35","309163","0.0-11.0-2.34","613bd1d54b15612f60104b1a","7g6a8l","AC","26","F","{""name"":""Chrome"",""chrome"":true,""version"":""105.0"",""blink"":true,""windows"":true,""osname"":""Windows"",""osversion"":""10"",""a"":true}","9:20:15","1","4","Test_1","70","j","0","664.1999998092651","2048 x 1152","2048 x 1152","true","1","0","","","","",""
"null","<p style=""font-size: 80px;"">+ 10 points</p>","null","html-keyboard-response","36","311739","0.0-11.0-2.35","613bd1d54b15612f60104b1a","7g6a8l","AC","26","F","{""name"":""Chrome"",""chrome"":true,""version"":""105.0"",""blink"":true,""windows"":true,""osname"":""Windows"",""osversion"":""10"",""a"":true}","9:20:15","1","4","Test_2","70","f","1","556.0999999046326","2048 x 1152","2048 x 1152","true","1","10","","","","",""
"null","<p style=""font-size: 80px;"">+ 10 points</p>","null","html-keyboard-response","37","314979","0.0-11.0-2.36","613bd1d54b15612f60104b1a","7g6a8l","AC","26","F","{""name"":""Chrome"",""chrome"":true,""version"":""105.0"",""blink"":true,""windows"":true,""osname"":""Windows"",""osversion"":""10"",""a"":true}","9:20:15","1","4","Test_4","70","f","1","1215.8999998569489","2048 x 1152","2048 x 1152","true","1","10","","","","",""
"null","<p style=""font-size: 80px;"">+ 10 points</p>","null","html-keyboard-response","38","318621","0.0-11.0-2.37","613bd1d54b15612f60104b1a","7g6a8l","AC","26","F","{""name"":""Chrome"",""chrome"":true,""version"":""105.0"",""blink"":true,""windows"":true,""osname"":""Windows"",""osversion"":""10"",""a"":true}","9:20:15","1","4","Test_2","70","f","1","1618.8000001907349","2048 x 1152","2048 x 1152","true","1","10","","","","",""
"null","<p style=""font-size: 80px;"">+ 10 points</p>","null","html-keyboard-response","39","321969","0.0-11.0-2.38","613bd1d54b15612f60104b1a","7g6a8l","AC","26","F","{""name"":""Chrome"",""chrome"":true,""version"":""105.0"",""blink"":true,""windows"":true,""osname"":""Windows"",""osversion"":""10"",""a"":true}","9:20:15","1","4","Test_3","74","j","1","1328.5","2048 x 1152","2048 x 1152","true","1","10","","","","",""
"null","<p style=""font-size: 80px;"">+ 10 points</p>","null","html-keyboard-response","40","324930","0.0-11.0-2.39","613bd1d54b15612f60104b1a","7g6a8l","AC","26","F","{""name"":""Chrome"",""chrome"":true,""version"":""105.0"",""blink"":true,""windows"":true,""osname"":""Windows"",""osversion"":""10"",""a"":true}","9:20:15","1","4","Test_4","70","f","1","947.5999999046326","2048 x 1152","2048 x 1152","true","1","10","","","","",""
"null","<p style=""font-size: 80px;"">+ 0 points</p>","null","html-keyboard-response","41","327836","0.0-11.0-2.40","613bd1d54b15612f60104b1a","7g6a8l","AC","26","F","{""name"":""Chrome"",""chrome"":true,""version"":""105.0"",""blink"":true,""windows"":true,""osname"":""Windows"",""osversion"":""10"",""a"":true}","9:20:15","1","3","Test_3","74","f","0","884.8000001907349","2048 x 1152","2048 x 1152","true","1","0","","","","",""
"null","<p style=""font-size: 80px;"">+ 10 points</p>","null","html-keyboard-response","42","330795","0.0-11.0-2.41","613bd1d54b15612f60104b1a","7g6a8l","AC","26","F","{""name"":""Chrome"",""chrome"":true,""version"":""105.0"",""blink"":true,""windows"":true,""osname"":""Windows"",""osversion"":""10"",""a"":true}","9:20:15","1","3","Test_1","70","f","1","941.2000000476837","2048 x 1152","2048 x 1152","true","1","10","","","","",""
"null","<p style=""font-size: 80px;"">+ 10 points</p>","null","html-keyboard-response","43","333613","0.0-11.0-2.42","613bd1d54b15612f60104b1a","7g6a8l","AC","26","F","{""name"":""Chrome"",""chrome"":true,""version"":""105.0"",""blink"":true,""windows"":true,""osname"":""Windows"",""osversion"":""10"",""a"":true}","9:20:15","1","3","Test_2","74","j","1","804.7000000476837","2048 x 1152","2048 x 1152","true","1","10","","","","",""
"null","<p style=""font-size: 80px;"">+ 0 points</p>","null","html-keyboard-response","44","336421","0.0-11.0-2.43","613bd1d54b15612f60104b1a","7g6a8l","AC","26","F","{""name"":""Chrome"",""chrome"":true,""version"":""105.0"",""blink"":true,""windows"":true,""osname"":""Windows"",""osversion"":""10"",""a"":true}","9:20:15","1","3","Test_4","70","j","0","789.1000001430511","2048 x 1152","2048 x 1152","true","1","0","","","","",""
"null","<p style=""font-size: 80px;"">+ 10 points</p>","null","html-keyboard-response","45","338960","0.0-11.0-2.44","613bd1d54b15612f60104b1a","7g6a8l","AC","26","F","{""name"":""Chrome"",""chrome"":true,""version"":""105.0"",""blink"":true,""windows"":true,""osname"":""Windows"",""osversion"":""10"",""a"":true}","9:20:15","1","3","Test_2","74","j","1","512.7999999523163","2048 x 1152","2048 x 1152","true","1","10","","","","",""
"null","<p style=""font-size: 80px;"">+ 10 points</p>","null","html-keyboard-response","46","342151","0.0-11.0-2.45","613bd1d54b15612f60104b1a","7g6a8l","AC","26","F","{""name"":""Chrome"",""chrome"":true,""version"":""105.0"",""blink"":true,""windows"":true,""osname"":""Windows"",""osversion"":""10"",""a"":true}","9:20:15","1","3","Test_2","74","j","1","1170.5999999046326","2048 x 1152","2048 x 1152","true","1","10","","","","",""
"null","<p style=""font-size: 80px;"">+ 10 points</p>","null","html-keyboard-response","47","345233","0.0-11.0-2.46","613bd1d54b15612f60104b1a","7g6a8l","AC","26","F","{""name"":""Chrome"",""chrome"":true,""version"":""105.0"",""blink"":true,""windows"":true,""osname"":""Windows"",""osversion"":""10"",""a"":true}","9:20:15","1","3","Test_3","70","f","1","1067.2999999523163","2048 x 1152","2048 x 1152","true","1","10","","","","",""
"null","<p style=""font-size: 80px;"">+ 0 points</p>","null","html-keyboard-response","48","347914","0.0-11.0-2.47","613bd1d54b15612f60104b1a","7g6a8l","AC","26","F","{""name"":""Chrome"",""chrome"":true,""version"":""105.0"",""blink"":true,""windows"":true,""osname"":""Windows"",""osversion"":""10"",""a"":true}","9:20:15","1","3","Test_1","74","f","0","658.2999999523163","2048 x 1152","2048 x 1152","true","1","0","","","","",""
"null","<p style=""font-size: 80px;"">+ 10 points</p>","null","html-keyboard-response","49","351324","0.0-11.0-2.48","613bd1d54b15612f60104b1a","7g6a8l","AC","26","F","{""name"":""Chrome"",""chrome"":true,""version"":""105.0"",""blink"":true,""windows"":true,""osname"":""Windows"",""osversion"":""10"",""a"":true}","9:20:15","1","3","Test_4","74","j","1","1386.4000000953674","2048 x 1152","2048 x 1152","true","1","10","","","","",""
"null","<p style=""font-size: 80px;"">+ 10 points</p>","null","html-keyboard-response","50","353959","0.0-11.0-2.49","613bd1d54b15612f60104b1a","7g6a8l","AC","26","F","{""name"":""Chrome"",""chrome"":true,""version"":""105.0"",""blink"":true,""windows"":true,""osname"":""Windows"",""osversion"":""10"",""a"":true}","9:20:15","1","3","Test_2","74","j","1","617.5","2048 x 1152","2048 x 1152","true","1","10","","","","",""
"null","<p style=""font-size: 80px;"">+ 10 points</p>","null","html-keyboard-response","51","357615","0.0-11.0-2.50","613bd1d54b15612f60104b1a","7g6a8l","AC","26","F","{""name"":""Chrome"",""chrome"":true,""version"":""105.0"",""blink"":true,""windows"":true,""osname"":""Windows"",""osversion"":""10"",""a"":true}","9:20:15","1","3","Test_3","70","f","1","1630.8000001907349","2048 x 1152","2048 x 1152","true","1","10","","","","",""
"null","<p style=""font-size: 80px;"">+ 10 points</p>","null","html-keyboard-response","52","361056","0.0-11.0-2.51","613bd1d54b15612f60104b1a","7g6a8l","AC","26","F","{""name"":""Chrome"",""chrome"":true,""version"":""105.0"",""blink"":true,""windows"":true,""osname"":""Windows"",""osversion"":""10"",""a"":true}","9:20:15","1","3","Test_1","70","f","1","1417.4000000953674","2048 x 1152","2048 x 1152","true","1","10","","","","",""
"null","<p style=""font-size: 80px;"">+ 10 points</p>","null","html-keyboard-response","53","364299","0.0-11.0-2.52","613bd1d54b15612f60104b1a","7g6a8l","AC","26","F","{""name"":""Chrome"",""chrome"":true,""version"":""105.0"",""blink"":true,""windows"":true,""osname"":""Windows"",""osversion"":""10"",""a"":true}","9:20:15","1","3","Test_4","74","j","1","1224.2000000476837","2048 x 1152","2048 x 1152","true","1","10","","","","",""
"null","<p style=""font-size: 80px;"">+ 10 points</p>","null","html-keyboard-response","54","366923","0.0-11.0-2.53","613bd1d54b15612f60104b1a","7g6a8l","AC","26","F","{""name"":""Chrome"",""chrome"":true,""version"":""105.0"",""blink"":true,""windows"":true,""osname"":""Windows"",""osversion"":""10"",""a"":true}","9:20:15","1","3","Test_4","74","j","1","600.3999998569489","2048 x 1152","2048 x 1152","true","1","10","","","","",""
"null","<p style=""font-size: 80px;"">+ 10 points</p>","null","html-keyboard-response","55","369673","0.0-11.0-2.54","613bd1d54b15612f60104b1a","7g6a8l","AC","26","F","{""name"":""Chrome"",""chrome"":true,""version"":""105.0"",""blink"":true,""windows"":true,""osname"":""Windows"",""osversion"":""10"",""a"":true}","9:20:15","1","3","Test_3","70","f","1","724.0999999046326","2048 x 1152","2048 x 1152","true","1","10","","","","",""
"null","<p style=""font-size: 80px;"">+ 0 points</p>","null","html-keyboard-response","56","372265","0.0-11.0-2.55","613bd1d54b15612f60104b1a","7g6a8l","AC","26","F","{""name"":""Chrome"",""chrome"":true,""version"":""105.0"",""blink"":true,""windows"":true,""osname"":""Windows"",""osversion"":""10"",""a"":true}","9:20:15","1","4","Test_3","70","j","0","564.7000000476837","2048 x 1152","2048 x 1152","true","1","0","","","","",""
"null","<p style=""font-size: 80px;"">+ 10 points</p>","null","html-keyboard-response","57","374870","0.0-11.0-2.56","613bd1d54b15612f60104b1a","7g6a8l","AC","26","F","{""name"":""Chrome"",""chrome"":true,""version"":""105.0"",""blink"":true,""windows"":true,""osname"":""Windows"",""osversion"":""10"",""a"":true}","9:20:15","1","4","Test_2","70","f","1","583.5999999046326","2048 x 1152","2048 x 1152","true","1","10","","","","",""
"null","<p style=""font-size: 80px;"">+ 10 points</p>","null","html-keyboard-response","58","377689","0.0-11.0-2.57","613bd1d54b15612f60104b1a","7g6a8l","AC","26","F","{""name"":""Chrome"",""chrome"":true,""version"":""105.0"",""blink"":true,""windows"":true,""osname"":""Windows"",""osversion"":""10"",""a"":true}","9:20:15","1","4","Test_3","74","j","1","798.8000001907349","2048 x 1152","2048 x 1152","true","1","10","","","","",""
"null","<p style=""font-size: 80px;"">+ 10 points</p>","null","html-keyboard-response","59","380099","0.0-11.0-2.58","613bd1d54b15612f60104b1a","7g6a8l","AC","26","F","{""name"":""Chrome"",""chrome"":true,""version"":""105.0"",""blink"":true,""windows"":true,""osname"":""Windows"",""osversion"":""10"",""a"":true}","9:20:15","1","4","Test_3","74","j","1","387.30000019073486","2048 x 1152","2048 x 1152","true","1","10","","","","",""
"null","<p style=""font-size: 80px;"">+ 10 points</p>","null","html-keyboard-response","60","382586","0.0-11.0-2.59","613bd1d54b15612f60104b1a","7g6a8l","AC","26","F","{""name"":""Chrome"",""chrome"":true,""version"":""105.0"",""blink"":true,""windows"":true,""osname"":""Windows"",""osversion"":""10"",""a"":true}","9:20:15","1","4","Test_3","74","j","1","457","2048 x 1152","2048 x 1152","true","1","10","","","","",""
"null","<p style=""font-size: 80px;"">+ 10 points</p>","null","html-keyboard-response","61","384999","0.0-11.0-2.60","613bd1d54b15612f60104b1a","7g6a8l","AC","26","F","{""name"":""Chrome"",""chrome"":true,""version"":""105.0"",""blink"":true,""windows"":true,""osname"":""Windows"",""osversion"":""10"",""a"":true}","9:20:15","1","4","Test_2","70","f","1","382.7999999523163","2048 x 1152","2048 x 1152","true","1","10","","","","",""
"null","<p style=""font-size: 80px;"">+ 0 points</p>","null","html-keyboard-response","62","387473","0.0-11.0-2.61","613bd1d54b15612f60104b1a","7g6a8l","AC","26","F","{""name"":""Chrome"",""chrome"":true,""version"":""105.0"",""blink"":true,""windows"":true,""osname"":""Windows"",""osversion"":""10"",""a"":true}","9:20:15","1","4","Test_1","70","j","0","455.2000000476837","2048 x 1152","2048 x 1152","true","1","0","","","","",""
"null","<p style=""font-size: 80px;"">+ 10 points</p>","null","html-keyboard-response","63","390072","0.0-11.0-2.62","613bd1d54b15612f60104b1a","7g6a8l","AC","26","F","{""name"":""Chrome"",""chrome"":true,""version"":""105.0"",""blink"":true,""windows"":true,""osname"":""Windows"",""osversion"":""10"",""a"":true}","9:20:15","1","4","Test_1","74","j","1","577.9000000953674","2048 x 1152","2048 x 1152","true","1","10","","","","",""
"null","<p style=""font-size: 80px;"">+ 10 points</p>","null","html-keyboard-response","64","393014","0.0-11.0-2.63","613bd1d54b15612f60104b1a","7g6a8l","AC","26","F","{""name"":""Chrome"",""chrome"":true,""version"":""105.0"",""blink"":true,""windows"":true,""osname"":""Windows"",""osversion"":""10"",""a"":true}","9:20:15","1","4","Test_4","70","f","1","923.5","2048 x 1152","2048 x 1152","true","1","10","","","","",""
"null","<p style=""font-size: 80px;"">+ 10 points</p>","null","html-keyboard-response","65","396450","0.0-11.0-2.64","613bd1d54b15612f60104b1a","7g6a8l","AC","26","F","{""name"":""Chrome"",""chrome"":true,""version"":""105.0"",""blink"":true,""windows"":true,""osname"":""Windows"",""osversion"":""10"",""a"":true}","9:20:15","1","4","Test_3","74","j","1","1418.7000000476837","2048 x 1152","2048 x 1152","true","1","10","","","","",""
"null","<p style=""font-size: 80px;"">+ 10 points</p>","null","html-keyboard-response","66","398879","0.0-11.0-2.65","613bd1d54b15612f60104b1a","7g6a8l","AC","26","F","{""name"":""Chrome"",""chrome"":true,""version"":""105.0"",""blink"":true,""windows"":true,""osname"":""Windows"",""osversion"":""10"",""a"":true}","9:20:15","1","4","Test_3","74","j","1","408.2000000476837","2048 x 1152","2048 x 1152","true","1","10","","","","",""
"null","<p style=""font-size: 80px;"">+ 10 points</p>","null","html-keyboard-response","67","401950","0.0-11.0-2.66","613bd1d54b15612f60104b1a","7g6a8l","AC","26","F","{""name"":""Chrome"",""chrome"":true,""version"":""105.0"",""blink"":true,""windows"":true,""osname"":""Windows"",""osversion"":""10"",""a"":true}","9:20:15","1","4","Test_1","74","j","1","1043","2048 x 1152","2048 x 1152","true","1","10","","","","",""
"null","<p style=""font-size: 80px;"">+ 10 points</p>","null","html-keyboard-response","68","404789","0.0-11.0-2.67","613bd1d54b15612f60104b1a","7g6a8l","AC","26","F","{""name"":""Chrome"",""chrome"":true,""version"":""105.0"",""blink"":true,""windows"":true,""osname"":""Windows"",""osversion"":""10"",""a"":true}","9:20:15","1","4","Test_4","70","f","1","814.1999998092651","2048 x 1152","2048 x 1152","true","1","10","","","","",""
"null","<p style=""font-size: 80px;"">+ 10 points</p>","null","html-keyboard-response","69","407321","0.0-11.0-2.68","613bd1d54b15612f60104b1a","7g6a8l","AC","26","F","{""name"":""Chrome"",""chrome"":true,""version"":""105.0"",""blink"":true,""windows"":true,""osname"":""Windows"",""osversion"":""10"",""a"":true}","9:20:15","1","4","Test_4","70","f","1","506.10000014305115","2048 x 1152","2048 x 1152","true","1","10","","","","",""
"null","<p style=""font-size: 80px;"">+ 10 points</p>","null","html-keyboard-response","70","409973","0.0-11.0-2.69","613bd1d54b15612f60104b1a","7g6a8l","AC","26","F","{""name"":""Chrome"",""chrome"":true,""version"":""105.0"",""blink"":true,""windows"":true,""osname"":""Windows"",""osversion"":""10"",""a"":true}","9:20:15","1","4","Test_1","74","j","1","624.8999998569489","2048 x 1152","2048 x 1152","true","1","10","","","","",""
"null","<p style=""font-size: 80px;"">+ 10 points</p>","null","html-keyboard-response","71","412576","0.0-11.0-2.70","613bd1d54b15612f60104b1a","7g6a8l","AC","26","F","{""name"":""Chrome"",""chrome"":true,""version"":""105.0"",""blink"":true,""windows"":true,""osname"":""Windows"",""osversion"":""10"",""a"":true}","9:20:15","1","4","Test_4","70","f","1","573","2048 x 1152","2048 x 1152","true","1","10","","","","",""
"null","<p style=""font-size: 80px;"">+ 10 points</p>","null","html-keyboard-response","72","415096","0.0-11.0-2.71","613bd1d54b15612f60104b1a","7g6a8l","AC","26","F","{""name"":""Chrome"",""chrome"":true,""version"":""105.0"",""blink"":true,""windows"":true,""osname"":""Windows"",""osversion"":""10"",""a"":true}","9:20:15","1","4","Test_1","74","j","1","493.7000000476837","2048 x 1152","2048 x 1152","true","1","10","","","","",""
"null","<p style=""font-size: 80px;"">+ 10 points</p>","null","html-keyboard-response","73","417996","0.0-11.0-2.72","613bd1d54b15612f60104b1a","7g6a8l","AC","26","F","{""name"":""Chrome"",""chrome"":true,""version"":""105.0"",""blink"":true,""windows"":true,""osname"":""Windows"",""osversion"":""10"",""a"":true}","9:20:15","1","4","Test_2","70","f","1","888.7999999523163","2048 x 1152","2048 x 1152","true","1","10","","","","",""
"null","<p style=""font-size: 80px;"">+ 10 points</p>","null","html-keyboard-response","74","421224","0.0-11.0-2.73","613bd1d54b15612f60104b1a","7g6a8l","AC","26","F","{""name"":""Chrome"",""chrome"":true,""version"":""105.0"",""blink"":true,""windows"":true,""osname"":""Windows"",""osversion"":""10"",""a"":true}","9:20:15","1","4","Test_4","70","f","1","1216.4000000953674","2048 x 1152","2048 x 1152","true","1","10","","","","",""
"null","<p style=""font-size: 80px;"">+ 0 points</p>","null","html-keyboard-response","75","423818","0.0-11.0-2.74","613bd1d54b15612f60104b1a","7g6a8l","AC","26","F","{""name"":""Chrome"",""chrome"":true,""version"":""105.0"",""blink"":true,""windows"":true,""osname"":""Windows"",""osversion"":""10"",""a"":true}","9:20:15","1","4","Test_2","74","f","0","573.5","2048 x 1152","2048 x 1152","true","1","0","","","","",""
"null","<p style=""font-size: 80px;"">+ 10 points</p>","null","html-keyboard-response","76","426472","0.0-11.0-2.75","613bd1d54b15612f60104b1a","7g6a8l","AC","26","F","{""name"":""Chrome"",""chrome"":true,""version"":""105.0"",""blink"":true,""windows"":true,""osname"":""Windows"",""osversion"":""10"",""a"":true}","9:20:15","1","4","Test_2","70","f","1","632.6000001430511","2048 x 1152","2048 x 1152","true","1","10","","","","",""
"null","<p style=""font-size: 80px;"">+ 10 points</p>","null","html-keyboard-response","77","429176","0.0-11.0-2.76","613bd1d54b15612f60104b1a","7g6a8l","AC","26","F","{""name"":""Chrome"",""chrome"":true,""version"":""105.0"",""blink"":true,""windows"":true,""osname"":""Windows"",""osversion"":""10"",""a"":true}","9:20:15","1","4","Test_4","70","f","1","679.7000000476837","2048 x 1152","2048 x 1152","true","1","10","","","","",""
"null","<p style=""font-size: 80px;"">+ 0 points</p>","null","html-keyboard-response","78","431915","0.0-11.0-2.77","613bd1d54b15612f60104b1a","7g6a8l","AC","26","F","{""name"":""Chrome"",""chrome"":true,""version"":""105.0"",""blink"":true,""windows"":true,""osname"":""Windows"",""osversion"":""10"",""a"":true}","9:20:15","1","3","Test_2","70","j","0","724.6000001430511","2048 x 1152","2048 x 1152","true","1","0","","","","",""
"null","<p style=""font-size: 80px;"">+ 10 points</p>","null","html-keyboard-response","79","434558","0.0-11.0-2.78","613bd1d54b15612f60104b1a","7g6a8l","AC","26","F","{""name"":""Chrome"",""chrome"":true,""version"":""105.0"",""blink"":true,""windows"":true,""osname"":""Windows"",""osversion"":""10"",""a"":true}","9:20:15","1","3","Test_2","74","j","1","623.2000000476837","2048 x 1152","2048 x 1152","true","1","10","","","","",""
"null","<p style=""font-size: 80px;"">+ 10 points</p>","null","html-keyboard-response","80","437153","0.0-11.0-2.79","613bd1d54b15612f60104b1a","7g6a8l","AC","26","F","{""name"":""Chrome"",""chrome"":true,""version"":""105.0"",""blink"":true,""windows"":true,""osname"":""Windows"",""osversion"":""10"",""a"":true}","9:20:15","1","3","Test_2","74","j","1","579.7000000476837","2048 x 1152","2048 x 1152","true","1","10","","","","",""
"null","<p style=""font-size: 80px;"">+ 10 points</p>","null","html-keyboard-response","81","440561","0.0-11.0-2.80","613bd1d54b15612f60104b1a","7g6a8l","AC","26","F","{""name"":""Chrome"",""chrome"":true,""version"":""105.0"",""blink"":true,""windows"":true,""osname"":""Windows"",""osversion"":""10"",""a"":true}","9:20:15","1","3","Test_4","74","j","1","1378.7999999523163","2048 x 1152","2048 x 1152","true","1","10","","","","",""
"null","<p style=""font-size: 80px;"">+ 10 points</p>","null","html-keyboard-response","82","443247","0.0-11.0-2.81","613bd1d54b15612f60104b1a","7g6a8l","AC","26","F","{""name"":""Chrome"",""chrome"":true,""version"":""105.0"",""blink"":true,""windows"":true,""osname"":""Windows"",""osversion"":""10"",""a"":true}","9:20:15","1","3","Test_2","74","j","1","656.4000000953674","2048 x 1152","2048 x 1152","true","1","10","","","","",""
"null","<p style=""font-size: 80px;"">+ 10 points</p>","null","html-keyboard-response","83","446316","0.0-11.0-2.82","613bd1d54b15612f60104b1a","7g6a8l","AC","26","F","{""name"":""Chrome"",""chrome"":true,""version"":""105.0"",""blink"":true,""windows"":true,""osname"":""Windows"",""osversion"":""10"",""a"":true}","9:20:15","1","3","Test_3","70","f","1","1053.8999998569489","2048 x 1152","2048 x 1152","true","1","10","","","","",""
"null","<p style=""font-size: 80px;"">+ 10 points</p>","null","html-keyboard-response","84","449085","0.0-11.0-2.83","613bd1d54b15612f60104b1a","7g6a8l","AC","26","F","{""name"":""Chrome"",""chrome"":true,""version"":""105.0"",""blink"":true,""windows"":true,""osname"":""Windows"",""osversion"":""10"",""a"":true}","9:20:15","1","3","Test_3","70","f","1","744.4000000953674","2048 x 1152","2048 x 1152","true","1","10","","","","",""
"null","<p style=""font-size: 80px;"">+ 10 points</p>","null","html-keyboard-response","85","451796","0.0-11.0-2.84","613bd1d54b15612f60104b1a","7g6a8l","AC","26","F","{""name"":""Chrome"",""chrome"":true,""version"":""105.0"",""blink"":true,""windows"":true,""osname"":""Windows"",""osversion"":""10"",""a"":true}","9:20:15","1","3","Test_4","74","j","1","687","2048 x 1152","2048 x 1152","true","1","10","","","","",""
"null","<p style=""font-size: 80px;"">+ 10 points</p>","null","html-keyboard-response","86","454515","0.0-11.0-2.85","613bd1d54b15612f60104b1a","7g6a8l","AC","26","F","{""name"":""Chrome"",""chrome"":true,""version"":""105.0"",""blink"":true,""windows"":true,""osname"":""Windows"",""osversion"":""10"",""a"":true}","9:20:15","1","3","Test_1","70","f","1","697.7000000476837","2048 x 1152","2048 x 1152","true","1","10","","","","",""
"null","<p style=""font-size: 80px;"">+ 10 points</p>","null","html-keyboard-response","87","457471","0.0-11.0-2.86","613bd1d54b15612f60104b1a","7g6a8l","AC","26","F","{""name"":""Chrome"",""chrome"":true,""version"":""105.0"",""blink"":true,""windows"":true,""osname"":""Windows"",""osversion"":""10"",""a"":true}","9:20:15","1","3","Test_3","70","f","1","930.1999998092651","2048 x 1152","2048 x 1152","true","1","10","","","","",""
"null","<p style=""font-size: 80px;"">+ 10 points</p>","null","html-keyboard-response","88","460054","0.0-11.0-2.87","613bd1d54b15612f60104b1a","7g6a8l","AC","26","F","{""name"":""Chrome"",""chrome"":true,""version"":""105.0"",""blink"":true,""windows"":true,""osname"":""Windows"",""osversion"":""10"",""a"":true}","9:20:15","1","3","Test_3","70","f","1","565.6000001430511","2048 x 1152","2048 x 1152","true","1","10","","","","",""
"null","<p style=""font-size: 80px;"">+ 10 points</p>","null","html-keyboard-response","89","462899","0.0-11.0-2.88","613bd1d54b15612f60104b1a","7g6a8l","AC","26","F","{""name"":""Chrome"",""chrome"":true,""version"":""105.0"",""blink"":true,""windows"":true,""osname"":""Windows"",""osversion"":""10"",""a"":true}","9:20:15","1","3","Test_1","70","f","1","823","2048 x 1152","2048 x 1152","true","1","10","","","","",""
"null","<p style=""font-size: 80px;"">+ 10 points</p>","null","html-keyboard-response","90","466376","0.0-11.0-2.89","613bd1d54b15612f60104b1a","7g6a8l","AC","26","F","{""name"":""Chrome"",""chrome"":true,""version"":""105.0"",""blink"":true,""windows"":true,""osname"":""Windows"",""osversion"":""10"",""a"":true}","9:20:15","1","3","Test_1","70","f","1","1456.7000000476837","2048 x 1152","2048 x 1152","true","1","10","","","","",""
"null","<p style=""font-size: 80px;"">+ 10 points</p>","null","html-keyboard-response","91","469980","0.0-11.0-2.90","613bd1d54b15612f60104b1a","7g6a8l","AC","26","F","{""name"":""Chrome"",""chrome"":true,""version"":""105.0"",""blink"":true,""windows"":true,""osname"":""Windows"",""osversion"":""10"",""a"":true}","9:20:15","1","3","Test_4","74","j","1","1580.4000000953674","2048 x 1152","2048 x 1152","true","1","10","","","","",""
"null","<p style=""font-size: 80px;"">+ 10 points</p>","null","html-keyboard-response","92","473184","0.0-11.0-2.91","613bd1d54b15612f60104b1a","7g6a8l","AC","26","F","{""name"":""Chrome"",""chrome"":true,""version"":""105.0"",""blink"":true,""windows"":true,""osname"":""Windows"",""osversion"":""10"",""a"":true}","9:20:15","1","3","Test_4","74","j","1","1183.0999999046326","2048 x 1152","2048 x 1152","true","1","10","","","","",""
"null","<p style=""font-size: 80px;"">+ 10 points</p>","null","html-keyboard-response","93","475977","0.0-11.0-2.92","613bd1d54b15612f60104b1a","7g6a8l","AC","26","F","{""name"":""Chrome"",""chrome"":true,""version"":""105.0"",""blink"":true,""windows"":true,""osname"":""Windows"",""osversion"":""10"",""a"":true}","9:20:15","1","3","Test_1","70","f","1","770.8000001907349","2048 x 1152","2048 x 1152","true","1","10","","","","",""
"null","<p style=""font-size: 80px;"">+ 10 points</p>","null","html-keyboard-response","94","478798","0.0-11.0-2.93","613bd1d54b15612f60104b1a","7g6a8l","AC","26","F","{""name"":""Chrome"",""chrome"":true,""version"":""105.0"",""blink"":true,""windows"":true,""osname"":""Windows"",""osversion"":""10"",""a"":true}","9:20:15","1","3","Test_2","74","j","1","792.5999999046326","2048 x 1152","2048 x 1152","true","1","10","","","","",""
"null","<p style=""font-size: 80px;"">+ 0 points</p>","null","html-keyboard-response","95","482412","0.0-11.0-2.94","613bd1d54b15612f60104b1a","7g6a8l","AC","26","F","{""name"":""Chrome"",""chrome"":true,""version"":""105.0"",""blink"":true,""windows"":true,""osname"":""Windows"",""osversion"":""10"",""a"":true}","9:20:15","1","4","Test_1","70","j","0","1602.7000000476837","2048 x 1152","2048 x 1152","true","1","0","","","","",""
"null","<p style=""font-size: 80px;"">+ 0 points</p>","null","html-keyboard-response","96","487464","0.0-11.0-2.95","613bd1d54b15612f60104b1a","7g6a8l","AC","26","F","{""name"":""Chrome"",""chrome"":true,""version"":""105.0"",""blink"":true,""windows"":true,""osname"":""Windows"",""osversion"":""10"",""a"":true}","9:20:15","1","4","Test_4","74","f","0","3026.2999999523163","2048 x 1152","2048 x 1152","true","1","0","","","","",""
"null","<p style=""font-size: 80px;"">+ 10 points</p>","null","html-keyboard-response","97","490807","0.0-11.0-2.96","613bd1d54b15612f60104b1a","7g6a8l","AC","26","F","{""name"":""Chrome"",""chrome"":true,""version"":""105.0"",""blink"":true,""windows"":true,""osname"":""Windows"",""osversion"":""10"",""a"":true}","9:20:15","1","4","Test_1","74","j","1","1317.5999999046326","2048 x 1152","2048 x 1152","true","1","10","","","","",""
"null","<p style=""font-size: 80px;"">+ 10 points</p>","null","html-keyboard-response","98","495609","0.0-11.0-2.97","613bd1d54b15612f60104b1a","7g6a8l","AC","26","F","{""name"":""Chrome"",""chrome"":true,""version"":""105.0"",""blink"":true,""windows"":true,""osname"":""Windows"",""osversion"":""10"",""a"":true}","9:20:15","1","4","Test_2","70","f","1","2774.899999856949","2048 x 1152","2048 x 1152","true","1","10","","","","",""
"null","<p style=""font-size: 80px;"">+ 10 points</p>","null","html-keyboard-response","99","499656","0.0-11.0-2.98","613bd1d54b15612f60104b1a","7g6a8l","AC","26","F","{""name"":""Chrome"",""chrome"":true,""version"":""105.0"",""blink"":true,""windows"":true,""osname"":""Windows"",""osversion"":""10"",""a"":true}","9:20:15","1","4","Test_2","70","f","1","2029","2048 x 1152","2048 x 1152","true","1","10","","","","",""
"null","<p style=""font-size: 80px;"">+ 10 points</p>","null","html-keyboard-response","100","502643","0.0-11.0-2.99","613bd1d54b15612f60104b1a","7g6a8l","AC","26","F","{""name"":""Chrome"",""chrome"":true,""version"":""105.0"",""blink"":true,""windows"":true,""osname"":""Windows"",""osversion"":""10"",""a"":true}","9:20:15","1","4","Test_1","74","j","1","970.7999999523163","2048 x 1152","2048 x 1152","true","1","10","","","","",""
"null","<p style=""font-size: 80px;"">+ 0 points</p>","null","html-keyboard-response","101","505985","0.0-11.0-2.100","613bd1d54b15612f60104b1a","7g6a8l","AC","26","F","{""name"":""Chrome"",""chrome"":true,""version"":""105.0"",""blink"":true,""windows"":true,""osname"":""Windows"",""osversion"":""10"",""a"":true}","9:20:15","1","4","Test_2","74","f","0","1325.4000000953674","2048 x 1152","2048 x 1152","true","1","0","","","","",""
"null","<p style=""font-size: 80px;"">+ 0 points</p>","null","html-keyboard-response","102","509471","0.0-11.0-2.101","613bd1d54b15612f60104b1a","7g6a8l","AC","26","F","{""name"":""Chrome"",""chrome"":true,""version"":""105.0"",""blink"":true,""windows"":true,""osname"":""Windows"",""osversion"":""10"",""a"":true}","9:20:15","1","4","Test_3","70","j","0","1466.2999999523163","2048 x 1152","2048 x 1152","true","1","0","","","","",""
"null","<p style=""font-size: 80px; line-height: 1.4em;"">Too late</br> Speed up!</p>","null","html-keyboard-response","103","516505","0.0-11.0-2.102","613bd1d54b15612f60104b1a","7g6a8l","AC","26","F","{""name"":""Chrome"",""chrome"":true,""version"":""105.0"",""blink"":true,""windows"":true,""osname"":""Windows"",""osversion"":""10"",""a"":true}","9:20:15","1","4","Test_2","null","f","0","null","2048 x 1152","2048 x 1152","true","1","0","","","","",""
"null","<p style=""font-size: 80px;"">+ 0 points</p>","null","html-keyboard-response","104","519241","0.0-11.0-2.103","613bd1d54b15612f60104b1a","7g6a8l","AC","26","F","{""name"":""Chrome"",""chrome"":true,""version"":""105.0"",""blink"":true,""windows"":true,""osname"":""Windows"",""osversion"":""10"",""a"":true}","9:20:15","1","4","Test_3","70","j","0","709.2999999523163","2048 x 1152","2048 x 1152","true","1","0","","","","",""
"null","<p style=""font-size: 80px;"">+ 10 points</p>","null","html-keyboard-response","105","522527","0.0-11.0-2.104","613bd1d54b15612f60104b1a","7g6a8l","AC","26","F","{""name"":""Chrome"",""chrome"":true,""version"":""105.0"",""blink"":true,""windows"":true,""osname"":""Windows"",""osversion"":""10"",""a"":true}","9:20:15","1","4","Test_4","70","f","1","1265.4000000953674","2048 x 1152","2048 x 1152","true","1","10","","","","",""
"null","<p style=""font-size: 80px;"">+ 0 points</p>","null","html-keyboard-response","106","525325","0.0-11.0-2.105","613bd1d54b15612f60104b1a","7g6a8l","AC","26","F","{""name"":""Chrome"",""chrome"":true,""version"":""105.0"",""blink"":true,""windows"":true,""osname"":""Windows"",""osversion"":""10"",""a"":true}","9:20:15","1","4","Test_4","74","f","0","773.7999999523163","2048 x 1152","2048 x 1152","true","1","0","","","","",""
"null","<p style=""font-size: 80px;"">+ 10 points</p>","null","html-keyboard-response","107","528240","0.0-11.0-2.106","613bd1d54b15612f60104b1a","7g6a8l","AC","26","F","{""name"":""Chrome"",""chrome"":true,""version"":""105.0"",""blink"":true,""windows"":true,""osname"":""Windows"",""osversion"":""10"",""a"":true}","9:20:15","1","4","Test_3","74","j","1","893.6000001430511","2048 x 1152","2048 x 1152","true","1","10","","","","",""
"null","<p style=""font-size: 80px;"">+ 0 points</p>","null","html-keyboard-response","108","531267","0.0-11.0-2.107","613bd1d54b15612f60104b1a","7g6a8l","AC","26","F","{""name"":""Chrome"",""chrome"":true,""version"":""105.0"",""blink"":true,""windows"":true,""osname"":""Windows"",""osversion"":""10"",""a"":true}","9:20:15","1","4","Test_2","74","f","0","1007.6000001430511","2048 x 1152","2048 x 1152","true","1","0","","","","",""
"null","<p style=""font-size: 80px;"">+ 10 points</p>","null","html-keyboard-response","109","534721","0.0-11.0-2.108","613bd1d54b15612f60104b1a","7g6a8l","AC","26","F","{""name"":""Chrome"",""chrome"":true,""version"":""105.0"",""blink"":true,""windows"":true,""osname"":""Windows"",""osversion"":""10"",""a"":true}","9:20:15","1","4","Test_4","70","f","1","1434.2999999523163","2048 x 1152","2048 x 1152","true","1","10","","","","",""
"null","<p style=""font-size: 80px;"">+ 0 points</p>","null","html-keyboard-response","110","777916","0.0-11.0-2.109","613bd1d54b15612f60104b1a","7g6a8l","AC","26","F","{""name"":""Chrome"",""chrome"":true,""version"":""105.0"",""blink"":true,""windows"":true,""osname"":""Windows"",""osversion"":""10"",""a"":true}","9:20:15","1","4","Test_3","70","j","0","774.7000000476837","2048 x 1152","2048 x 1152","true","1","0","","","","",""
"null","<p style=""font-size: 80px;"">+ 10 points</p>","null","html-keyboard-response","111","780485","0.0-11.0-2.110","613bd1d54b15612f60104b1a","7g6a8l","AC","26","F","{""name"":""Chrome"",""chrome"":true,""version"":""105.0"",""blink"":true,""windows"":true,""osname"":""Windows"",""osversion"":""10"",""a"":true}","9:20:15","1","4","Test_2","70","f","1","544.4000000953674","2048 x 1152","2048 x 1152","true","1","10","","","","",""
"null","<p style=""font-size: 80px;"">+ 10 points</p>","null","html-keyboard-response","112","783279","0.0-11.0-2.111","613bd1d54b15612f60104b1a","7g6a8l","AC","26","F","{""name"":""Chrome"",""chrome"":true,""version"":""105.0"",""blink"":true,""windows"":true,""osname"":""Windows"",""osversion"":""10"",""a"":true}","9:20:15","1","4","Test_4","70","f","1","783.3999998569489","2048 x 1152","2048 x 1152","true","1","10","","","","",""
"null","<p style=""font-size: 80px;"">+ 10 points</p>","null","html-keyboard-response","113","785908","0.0-11.0-2.112","613bd1d54b15612f60104b1a","7g6a8l","AC","26","F","{""name"":""Chrome"",""chrome"":true,""version"":""105.0"",""blink"":true,""windows"":true,""osname"":""Windows"",""osversion"":""10"",""a"":true}","9:20:15","1","4","Test_4","70","f","1","614.3999998569489","2048 x 1152","2048 x 1152","true","1","10","","","","",""
"null","<p style=""font-size: 80px;"">+ 0 points</p>","null","html-keyboard-response","114","788427","0.0-11.0-2.113","613bd1d54b15612f60104b1a","7g6a8l","AC","26","F","{""name"":""Chrome"",""chrome"":true,""version"":""105.0"",""blink"":true,""windows"":true,""osname"":""Windows"",""osversion"":""10"",""a"":true}","9:20:15","1","4","Test_3","70","j","0","505.40000009536743","2048 x 1152","2048 x 1152","true","1","0","","","","",""
"null","<p style=""font-size: 80px;"">+ 10 points</p>","null","html-keyboard-response","115","791014","0.0-11.0-2.114","613bd1d54b15612f60104b1a","7g6a8l","AC","26","F","{""name"":""Chrome"",""chrome"":true,""version"":""105.0"",""blink"":true,""windows"":true,""osname"":""Windows"",""osversion"":""10"",""a"":true}","9:20:15","1","4","Test_1","74","j","1","551.5","2048 x 1152","2048 x 1152","true","1","10","","","","",""
"null","<p style=""font-size: 80px;"">+ 0 points</p>","null","html-keyboard-response","116","793823","0.0-11.0-2.115","613bd1d54b15612f60104b1a","7g6a8l","AC","26","F","{""name"":""Chrome"",""chrome"":true,""version"":""105.0"",""blink"":true,""windows"":true,""osname"":""Windows"",""osversion"":""10"",""a"":true}","9:20:15","1","4","Test_1","70","j","0","788.7000000476837","2048 x 1152","2048 x 1152","true","1","0","","","","",""
"null","<p style=""font-size: 80px;"">+ 10 points</p>","null","html-keyboard-response","117","796481","0.0-11.0-2.116","613bd1d54b15612f60104b1a","7g6a8l","AC","26","F","{""name"":""Chrome"",""chrome"":true,""version"":""105.0"",""blink"":true,""windows"":true,""osname"":""Windows"",""osversion"":""10"",""a"":true}","9:20:15","1","4","Test_1","74","j","1","629.4000000953674","2048 x 1152","2048 x 1152","true","1","10","","","","",""
"null","<p style=""font-size: 80px;"">+ 0 points</p>","null","html-keyboard-response","118","799507","0.0-11.0-2.117","613bd1d54b15612f60104b1a","7g6a8l","AC","26","F","{""name"":""Chrome"",""chrome"":true,""version"":""105.0"",""blink"":true,""windows"":true,""osname"":""Windows"",""osversion"":""10"",""a"":true}","9:20:15","1","3","Test_3","74","f","0","1001.4000000953674","2048 x 1152","2048 x 1152","true","1","0","","","","",""
"null","<p style=""font-size: 80px;"">+ 10 points</p>","null","html-keyboard-response","119","802523","0.0-11.0-2.118","613bd1d54b15612f60104b1a","7g6a8l","AC","26","F","{""name"":""Chrome"",""chrome"":true,""version"":""105.0"",""blink"":true,""windows"":true,""osname"":""Windows"",""osversion"":""10"",""a"":true}","9:20:15","1","3","Test_1","70","f","1","1007.8999998569489","2048 x 1152","2048 x 1152","true","1","10","","","","",""
"null","<p style=""font-size: 80px;"">+ 10 points</p>","null","html-keyboard-response","120","805201","0.0-11.0-2.119","613bd1d54b15612f60104b1a","7g6a8l","AC","26","F","{""name"":""Chrome"",""chrome"":true,""version"":""105.0"",""blink"":true,""windows"":true,""osname"":""Windows"",""osversion"":""10"",""a"":true}","9:20:15","1","3","Test_2","74","j","1","659.5999999046326","2048 x 1152","2048 x 1152","true","1","10","","","","",""
"null","<p style=""font-size: 80px;"">+ 10 points</p>","null","html-keyboard-response","121","807760","0.0-11.0-2.120","613bd1d54b15612f60104b1a","7g6a8l","AC","26","F","{""name"":""Chrome"",""chrome"":true,""version"":""105.0"",""blink"":true,""windows"":true,""osname"":""Windows"",""osversion"":""10"",""a"":true}","9:20:15","1","3","Test_2","74","j","1","529","2048 x 1152","2048 x 1152","true","1","10","","","","",""
"null","<p style=""font-size: 80px;"">+ 10 points</p>","null","html-keyboard-response","122","810584","0.0-11.0-2.121","613bd1d54b15612f60104b1a","7g6a8l","AC","26","F","{""name"":""Chrome"",""chrome"":true,""version"":""105.0"",""blink"":true,""windows"":true,""osname"":""Windows"",""osversion"":""10"",""a"":true}","9:20:15","1","3","Test_4","74","j","1","805.7000000476837","2048 x 1152","2048 x 1152","true","1","10","","","","",""
"null","<p style=""font-size: 80px;"">+ 10 points</p>","null","html-keyboard-response","123","813306","0.0-11.0-2.122","613bd1d54b15612f60104b1a","7g6a8l","AC","26","F","{""name"":""Chrome"",""chrome"":true,""version"":""105.0"",""blink"":true,""windows"":true,""osname"":""Windows"",""osversion"":""10"",""a"":true}","9:20:15","1","3","Test_2","74","j","1","717.2999999523163","2048 x 1152","2048 x 1152","true","1","10","","","","",""
"null","<p style=""font-size: 80px;"">+ 10 points</p>","null","html-keyboard-response","124","816143","0.0-11.0-2.123","613bd1d54b15612f60104b1a","7g6a8l","AC","26","F","{""name"":""Chrome"",""chrome"":true,""version"":""105.0"",""blink"":true,""windows"":true,""osname"":""Windows"",""osversion"":""10"",""a"":true}","9:20:15","1","3","Test_4","74","j","1","819","2048 x 1152","2048 x 1152","true","1","10","","","","",""
"null","<p style=""font-size: 80px;"">+ 10 points</p>","null","html-keyboard-response","125","818792","0.0-11.0-2.124","613bd1d54b15612f60104b1a","7g6a8l","AC","26","F","{""name"":""Chrome"",""chrome"":true,""version"":""105.0"",""blink"":true,""windows"":true,""osname"":""Windows"",""osversion"":""10"",""a"":true}","9:20:15","1","3","Test_3","70","f","1","623.0999999046326","2048 x 1152","2048 x 1152","true","1","10","","","","",""
"null","<p style=""font-size: 80px;"">+ 10 points</p>","null","html-keyboard-response","126","821935","0.0-11.0-2.125","613bd1d54b15612f60104b1a","7g6a8l","AC","26","F","{""name"":""Chrome"",""chrome"":true,""version"":""105.0"",""blink"":true,""windows"":true,""osname"":""Windows"",""osversion"":""10"",""a"":true}","9:20:15","1","3","Test_4","74","j","1","1111.1000001430511","2048 x 1152","2048 x 1152","true","1","10","","","","",""
"null","<p style=""font-size: 80px;"">+ 10 points</p>","null","html-keyboard-response","127","824535","0.0-11.0-2.126","613bd1d54b15612f60104b1a","7g6a8l","AC","26","F","{""name"":""Chrome"",""chrome"":true,""version"":""105.0"",""blink"":true,""windows"":true,""osname"":""Windows"",""osversion"":""10"",""a"":true}","9:20:15","1","3","Test_4","74","j","1","570.9000000953674","2048 x 1152","2048 x 1152","true","1","10","","","","",""
"null","<p style=""font-size: 80px;"">+ 10 points</p>","null","html-keyboard-response","128","827239","0.0-11.0-2.127","613bd1d54b15612f60104b1a","7g6a8l","AC","26","F","{""name"":""Chrome"",""chrome"":true,""version"":""105.0"",""blink"":true,""windows"":true,""osname"":""Windows"",""osversion"":""10"",""a"":true}","9:20:15","1","3","Test_1","70","f","1","687.5","2048 x 1152","2048 x 1152","true","1","10","","","","",""
"null","<p style=""font-size: 80px;"">+ 10 points</p>","null","html-keyboard-response","129","829863","0.0-11.0-2.128","613bd1d54b15612f60104b1a","7g6a8l","AC","26","F","{""name"":""Chrome"",""chrome"":true,""version"":""105.0"",""blink"":true,""windows"":true,""osname"":""Windows"",""osversion"":""10"",""a"":true}","9:20:15","1","3","Test_2","74","j","1","608.1000001430511","2048 x 1152","2048 x 1152","true","1","10","","","","",""
"null","<p style=""font-size: 80px;"">+ 10 points</p>","null","html-keyboard-response","130","832456","0.0-11.0-2.129","613bd1d54b15612f60104b1a","7g6a8l","AC","26","F","{""name"":""Chrome"",""chrome"":true,""version"":""105.0"",""blink"":true,""windows"":true,""osname"":""Windows"",""osversion"":""10"",""a"":true}","9:20:15","1","3","Test_1","70","f","1","567.1000001430511","2048 x 1152","2048 x 1152","true","1","10","","","","",""
"null","<p style=""font-size: 80px;"">+ 10 points</p>","null","html-keyboard-response","131","835312","0.0-11.0-2.130","613bd1d54b15612f60104b1a","7g6a8l","AC","26","F","{""name"":""Chrome"",""chrome"":true,""version"":""105.0"",""blink"":true,""windows"":true,""osname"":""Windows"",""osversion"":""10"",""a"":true}","9:20:15","1","3","Test_1","70","f","1","826.5999999046326","2048 x 1152","2048 x 1152","true","1","10","","","","",""
"null","<p style=""font-size: 80px;"">+ 0 points</p>","null","html-keyboard-response","132","838112","0.0-11.0-2.131","613bd1d54b15612f60104b1a","7g6a8l","AC","26","F","{""name"":""Chrome"",""chrome"":true,""version"":""105.0"",""blink"":true,""windows"":true,""osname"":""Windows"",""osversion"":""10"",""a"":true}","9:20:15","1","3","Test_3","74","f","0","782.3999998569489","2048 x 1152","2048 x 1152","true","1","0","","","","",""
"null","<p style=""font-size: 80px;"">+ 10 points</p>","null","html-keyboard-response","133","840773","0.0-11.0-2.132","613bd1d54b15612f60104b1a","7g6a8l","AC","26","F","{""name"":""Chrome"",""chrome"":true,""version"":""105.0"",""blink"":true,""windows"":true,""osname"":""Windows"",""osversion"":""10"",""a"":true}","9:20:15","1","3","Test_3","70","f","1","633.9000000953674","2048 x 1152","2048 x 1152","true","1","10","","","","",""
"null","<p style=""font-size: 80px;"">+ 0 points</p>","null","html-keyboard-response","134","843498","0.0-11.0-2.133","613bd1d54b15612f60104b1a","7g6a8l","AC","26","F","{""name"":""Chrome"",""chrome"":true,""version"":""105.0"",""blink"":true,""windows"":true,""osname"":""Windows"",""osversion"":""10"",""a"":true}","9:20:15","1","4","Test_3","70","j","0","694.2000000476837","2048 x 1152","2048 x 1152","true","1","0","","","","",""
"null","<p style=""font-size: 80px;"">+ 0 points</p>","null","html-keyboard-response","135","846866","0.0-11.0-2.134","613bd1d54b15612f60104b1a","7g6a8l","AC","26","F","{""name"":""Chrome"",""chrome"":true,""version"":""105.0"",""blink"":true,""windows"":true,""osname"":""Windows"",""osversion"":""10"",""a"":true}","9:20:15","1","4","Test_4","74","f","0","1354.5","2048 x 1152","2048 x 1152","true","1","0","","","","",""
"null","<p style=""font-size: 80px;"">+ 10 points</p>","null","html-keyboard-response","136","849470","0.0-11.0-2.135","613bd1d54b15612f60104b1a","7g6a8l","AC","26","F","{""name"":""Chrome"",""chrome"":true,""version"":""105.0"",""blink"":true,""windows"":true,""osname"":""Windows"",""osversion"":""10"",""a"":true}","9:20:15","1","4","Test_4","70","f","1","575.1999998092651","2048 x 1152","2048 x 1152","true","1","10","","","","",""
"null","<p style=""font-size: 80px; line-height: 1.4em;"">Too late</br> Speed up!</p>","null","html-keyboard-response","137","856504","0.0-11.0-2.136","613bd1d54b15612f60104b1a","7g6a8l","AC","26","F","{""name"":""Chrome"",""chrome"":true,""version"":""105.0"",""blink"":true,""windows"":true,""osname"":""Windows"",""osversion"":""10"",""a"":true}","9:20:15","1","4","Test_2","null","f","0","null","2048 x 1152","2048 x 1152","true","1","0","","","","",""
"null","<p style=""font-size: 80px;"">+ 0 points</p>","null","html-keyboard-response","138","859345","0.0-11.0-2.137","613bd1d54b15612f60104b1a","7g6a8l","AC","26","F","{""name"":""Chrome"",""chrome"":true,""version"":""105.0"",""blink"":true,""windows"":true,""osname"":""Windows"",""osversion"":""10"",""a"":true}","9:20:15","1","4","Test_3","70","j","0","812.5","2048 x 1152","2048 x 1152","true","1","0","","","","",""
"null","<p style=""font-size: 80px;"">+ 0 points</p>","null","html-keyboard-response","139","862655","0.0-11.0-2.138","613bd1d54b15612f60104b1a","7g6a8l","AC","26","F","{""name"":""Chrome"",""chrome"":true,""version"":""105.0"",""blink"":true,""windows"":true,""osname"":""Windows"",""osversion"":""10"",""a"":true}","9:20:15","1","4","Test_1","70","j","0","1287.9000000953674","2048 x 1152","2048 x 1152","true","1","0","","","","",""
"null","<p style=""font-size: 80px;"">+ 10 points</p>","null","html-keyboard-response","140","865316","0.0-11.0-2.139","613bd1d54b15612f60104b1a","7g6a8l","AC","26","F","{""name"":""Chrome"",""chrome"":true,""version"":""105.0"",""blink"":true,""windows"":true,""osname"":""Windows"",""osversion"":""10"",""a"":true}","9:20:15","1","4","Test_1","74","j","1","645.9000000953674","2048 x 1152","2048 x 1152","true","1","10","","","","",""
"null","<p style=""font-size: 80px;"">+ 10 points</p>","null","html-keyboard-response","141","867791","0.0-11.0-2.140","613bd1d54b15612f60104b1a","7g6a8l","AC","26","F","{""name"":""Chrome"",""chrome"":true,""version"":""105.0"",""blink"":true,""windows"":true,""osname"":""Windows"",""osversion"":""10"",""a"":true}","9:20:15","1","4","Test_1","74","j","1","456.69999980926514","2048 x 1152","2048 x 1152","true","1","10","","","","",""
"null","<p style=""font-size: 80px;"">+ 10 points</p>","null","html-keyboard-response","142","870645","0.0-11.0-2.141","613bd1d54b15612f60104b1a","7g6a8l","AC","26","F","{""name"":""Chrome"",""chrome"":true,""version"":""105.0"",""blink"":true,""windows"":true,""osname"":""Windows"",""osversion"":""10"",""a"":true}","9:20:15","1","4","Test_3","74","j","1","833.3999998569489","2048 x 1152","2048 x 1152","true","1","10","","","","",""
"null","<p style=""font-size: 80px;"">+ 10 points</p>","null","html-keyboard-response","143","873403","0.0-11.0-2.142","613bd1d54b15612f60104b1a","7g6a8l","AC","26","F","{""name"":""Chrome"",""chrome"":true,""version"":""105.0"",""blink"":true,""windows"":true,""osname"":""Windows"",""osversion"":""10"",""a"":true}","9:20:15","1","4","Test_4","70","f","1","734.7000000476837","2048 x 1152","2048 x 1152","true","1","10","","","","",""
"null","<p style=""font-size: 80px;"">+ 0 points</p>","null","html-keyboard-response","144","875908","0.0-11.0-2.143","613bd1d54b15612f60104b1a","7g6a8l","AC","26","F","{""name"":""Chrome"",""chrome"":true,""version"":""105.0"",""blink"":true,""windows"":true,""osname"":""Windows"",""osversion"":""10"",""a"":true}","9:20:15","1","4","Test_3","70","j","0","480.39999985694885","2048 x 1152","2048 x 1152","true","1","0","","","","",""
"null","<p style=""font-size: 80px;"">+ 10 points</p>","null","html-keyboard-response","145","878769","0.0-11.0-2.144","613bd1d54b15612f60104b1a","7g6a8l","AC","26","F","{""name"":""Chrome"",""chrome"":true,""version"":""105.0"",""blink"":true,""windows"":true,""osname"":""Windows"",""osversion"":""10"",""a"":true}","9:20:15","1","4","Test_2","70","f","1","838.5","2048 x 1152","2048 x 1152","true","1","10","","","","",""
"null","<p style=""font-size: 80px;"">+ 10 points</p>","null","html-keyboard-response","146","881651","0.0-11.0-2.145","613bd1d54b15612f60104b1a","7g6a8l","AC","26","F","{""name"":""Chrome"",""chrome"":true,""version"":""105.0"",""blink"":true,""windows"":true,""osname"":""Windows"",""osversion"":""10"",""a"":true}","9:20:15","1","4","Test_4","70","f","1","864.5","2048 x 1152","2048 x 1152","true","1","10","","","","",""
"null","<p style=""font-size: 80px;"">+ 10 points</p>","null","html-keyboard-response","147","884361","0.0-11.0-2.146","613bd1d54b15612f60104b1a","7g6a8l","AC","26","F","{""name"":""Chrome"",""chrome"":true,""version"":""105.0"",""blink"":true,""windows"":true,""osname"":""Windows"",""osversion"":""10"",""a"":true}","9:20:15","1","4","Test_2","70","f","1","689","2048 x 1152","2048 x 1152","true","1","10","","","","",""
"null","<p style=""font-size: 80px;"">+ 10 points</p>","null","html-keyboard-response","148","887273","0.0-11.0-2.147","613bd1d54b15612f60104b1a","7g6a8l","AC","26","F","{""name"":""Chrome"",""chrome"":true,""version"":""105.0"",""blink"":true,""windows"":true,""osname"":""Windows"",""osversion"":""10"",""a"":true}","9:20:15","1","4","Test_1","74","j","1","888.2999999523163","2048 x 1152","2048 x 1152","true","1","10","","","","",""
"null","<p style=""font-size: 80px;"">+ 10 points</p>","null","html-keyboard-response","149","890236","0.0-11.0-2.148","613bd1d54b15612f60104b1a","7g6a8l","AC","26","F","{""name"":""Chrome"",""chrome"":true,""version"":""105.0"",""blink"":true,""windows"":true,""osname"":""Windows"",""osversion"":""10"",""a"":true}","9:20:15","1","4","Test_2","70","f","1","945.8999998569489","2048 x 1152","2048 x 1152","true","1","10","","","","",""
"null","<p style=""font-size: 80px;"">+ 10 points</p>","null","html-keyboard-response","150","892972","0.0-11.0-2.149","613bd1d54b15612f60104b1a","7g6a8l","AC","26","F","{""name"":""Chrome"",""chrome"":true,""version"":""105.0"",""blink"":true,""windows"":true,""osname"":""Windows"",""osversion"":""10"",""a"":true}","9:20:15","1","4","Test_2","70","f","1","711.7999999523163","2048 x 1152","2048 x 1152","true","1","10","","","","",""
"null","<p style=""font-size: 80px;"">+ 0 points</p>","null","html-keyboard-response","151","895881","0.0-11.0-2.150","613bd1d54b15612f60104b1a","7g6a8l","AC","26","F","{""name"":""Chrome"",""chrome"":true,""version"":""105.0"",""blink"":true,""windows"":true,""osname"":""Windows"",""osversion"":""10"",""a"":true}","9:20:15","1","4","Test_3","70","j","0","887.0999999046326","2048 x 1152","2048 x 1152","true","1","0","","","","",""
"null","<p style=""font-size: 80px;"">+ 10 points</p>","null","html-keyboard-response","152","898880","0.0-11.0-2.151","613bd1d54b15612f60104b1a","7g6a8l","AC","26","F","{""name"":""Chrome"",""chrome"":true,""version"":""105.0"",""blink"":true,""windows"":true,""osname"":""Windows"",""osversion"":""10"",""a"":true}","9:20:15","1","4","Test_4","70","f","1","978.6999998092651","2048 x 1152","2048 x 1152","true","1","10","","","","",""
"null","<p style=""font-size: 80px;"">+ 0 points</p>","null","html-keyboard-response","153","901611","0.0-11.0-2.152","613bd1d54b15612f60104b1a","7g6a8l","AC","26","F","{""name"":""Chrome"",""chrome"":true,""version"":""105.0"",""blink"":true,""windows"":true,""osname"":""Windows"",""osversion"":""10"",""a"":true}","9:20:15","1","4","Test_1","70","j","0","715.0999999046326","2048 x 1152","2048 x 1152","true","1","0","","","","",""
"null","<p style=""font-size: 80px;"">+ 0 points</p>","null","html-keyboard-response","154","904571","0.0-11.0-2.153","613bd1d54b15612f60104b1a","7g6a8l","AC","26","F","{""name"":""Chrome"",""chrome"":true,""version"":""105.0"",""blink"":true,""windows"":true,""osname"":""Windows"",""osversion"":""10"",""a"":true}","9:20:15","1","3","Test_1","74","f","0","942.3999998569489","2048 x 1152","2048 x 1152","true","1","0","","","","",""
"null","<p style=""font-size: 80px;"">+ 0 points</p>","null","html-keyboard-response","155","907979","0.0-11.0-2.154","613bd1d54b15612f60104b1a","7g6a8l","AC","26","F","{""name"":""Chrome"",""chrome"":true,""version"":""105.0"",""blink"":true,""windows"":true,""osname"":""Windows"",""osversion"":""10"",""a"":true}","9:20:15","1","3","Test_3","74","f","0","1395","2048 x 1152","2048 x 1152","true","1","0","","","","",""
"null","<p style=""font-size: 80px;"">+ 10 points</p>","null","html-keyboard-response","156","910833","0.0-11.0-2.155","613bd1d54b15612f60104b1a","7g6a8l","AC","26","F","{""name"":""Chrome"",""chrome"":true,""version"":""105.0"",""blink"":true,""windows"":true,""osname"":""Windows"",""osversion"":""10"",""a"":true}","9:20:15","1","3","Test_3","70","f","1","835.5","2048 x 1152","2048 x 1152","true","1","10","","","","",""
"null","<p style=""font-size: 80px;"">+ 10 points</p>","null","html-keyboard-response","157","913667","0.0-11.0-2.156","613bd1d54b15612f60104b1a","7g6a8l","AC","26","F","{""name"":""Chrome"",""chrome"":true,""version"":""105.0"",""blink"":true,""windows"":true,""osname"":""Windows"",""osversion"":""10"",""a"":true}","9:20:15","1","3","Test_4","74","j","1","812.5","2048 x 1152","2048 x 1152","true","1","10","","","","",""
"null","<p style=""font-size: 80px;"">+ 10 points</p>","null","html-keyboard-response","158","916566","0.0-11.0-2.157","613bd1d54b15612f60104b1a","7g6a8l","AC","26","F","{""name"":""Chrome"",""chrome"":true,""version"":""105.0"",""blink"":true,""windows"":true,""osname"":""Windows"",""osversion"":""10"",""a"":true}","9:20:15","1","3","Test_4","74","j","1","882.1999998092651","2048 x 1152","2048 x 1152","true","1","10","","","","",""
"null","<p style=""font-size: 80px;"">+ 0 points</p>","null","html-keyboard-response","159","919245","0.0-11.0-2.158","613bd1d54b15612f60104b1a","7g6a8l","AC","26","F","{""name"":""Chrome"",""chrome"":true,""version"":""105.0"",""blink"":true,""windows"":true,""osname"":""Windows"",""osversion"":""10"",""a"":true}","9:20:15","1","3","Test_2","70","j","0","662.3999998569489","2048 x 1152","2048 x 1152","true","1","0","","","","",""
"null","<p style=""font-size: 80px;"">+ 10 points</p>","null","html-keyboard-response","160","922061","0.0-11.0-2.159","613bd1d54b15612f60104b1a","7g6a8l","AC","26","F","{""name"":""Chrome"",""chrome"":true,""version"":""105.0"",""blink"":true,""windows"":true,""osname"":""Windows"",""osversion"":""10"",""a"":true}","9:20:15","1","3","Test_2","74","j","1","799.5999999046326","2048 x 1152","2048 x 1152","true","1","10","","","","",""
"null","<p style=""font-size: 80px;"">+ 10 points</p>","null","html-keyboard-response","161","924612","0.0-11.0-2.160","613bd1d54b15612f60104b1a","7g6a8l","AC","26","F","{""name"":""Chrome"",""chrome"":true,""version"":""105.0"",""blink"":true,""windows"":true,""osname"":""Windows"",""osversion"":""10"",""a"":true}","9:20:15","1","3","Test_1","70","f","1","537.0999999046326","2048 x 1152","2048 x 1152","true","1","10","","","","",""
"null","<p style=""font-size: 80px;"">+ 0 points</p>","null","html-keyboard-response","162","927225","0.0-11.0-2.161","613bd1d54b15612f60104b1a","7g6a8l","AC","26","F","{""name"":""Chrome"",""chrome"":true,""version"":""105.0"",""blink"":true,""windows"":true,""osname"":""Windows"",""osversion"":""10"",""a"":true}","9:20:15","1","3","Test_2","70","j","0","592.5","2048 x 1152","2048 x 1152","true","1","0","","","","",""
"null","<p style=""font-size: 80px;"">+ 0 points</p>","null","html-keyboard-response","163","929868","0.0-11.0-2.162","613bd1d54b15612f60104b1a","7g6a8l","AC","26","F","{""name"":""Chrome"",""chrome"":true,""version"":""105.0"",""blink"":true,""windows"":true,""osname"":""Windows"",""osversion"":""10"",""a"":true}","9:20:15","1","3","Test_4","70","j","0","628.5","2048 x 1152","2048 x 1152","true","1","0","","","","",""
"null","<p style=""font-size: 80px;"">+ 10 points</p>","null","html-keyboard-response","164","932711","0.0-11.0-2.163","613bd1d54b15612f60104b1a","7g6a8l","AC","26","F","{""name"":""Chrome"",""chrome"":true,""version"":""105.0"",""blink"":true,""windows"":true,""osname"":""Windows"",""osversion"":""10"",""a"":true}","9:20:15","1","3","Test_3","70","f","1","828.5","2048 x 1152","2048 x 1152","true","1","10","","","","",""
"null","<p style=""font-size: 80px;"">+ 10 points</p>","null","html-keyboard-response","165","935381","0.0-11.0-2.164","613bd1d54b15612f60104b1a","7g6a8l","AC","26","F","{""name"":""Chrome"",""chrome"":true,""version"":""105.0"",""blink"":true,""windows"":true,""osname"":""Windows"",""osversion"":""10"",""a"":true}","9:20:15","1","3","Test_1","70","f","1","659","2048 x 1152","2048 x 1152","true","1","10","","","","",""
"null","<p style=""font-size: 80px;"">+ 10 points</p>","null","html-keyboard-response","166","937963","0.0-11.0-2.165","613bd1d54b15612f60104b1a","7g6a8l","AC","26","F","{""name"":""Chrome"",""chrome"":true,""version"":""105.0"",""blink"":true,""windows"":true,""osname"":""Windows"",""osversion"":""10"",""a"":true}","9:20:15","1","3","Test_1","70","f","1","566.8999998569489","2048 x 1152","2048 x 1152","true","1","10","","","","",""
"null","<p style=""font-size: 80px;"">+ 0 points</p>","null","html-keyboard-response","167","940641","0.0-11.0-2.166","613bd1d54b15612f60104b1a","7g6a8l","AC","26","F","{""name"":""Chrome"",""chrome"":true,""version"":""105.0"",""blink"":true,""windows"":true,""osname"":""Windows"",""osversion"":""10"",""a"":true}","9:20:15","1","3","Test_3","74","f","0","654.1000001430511","2048 x 1152","2048 x 1152","true","1","0","","","","",""
"null","<p style=""font-size: 80px;"">+ 10 points</p>","null","html-keyboard-response","168","943690","0.0-11.0-2.167","613bd1d54b15612f60104b1a","7g6a8l","AC","26","F","{""name"":""Chrome"",""chrome"":true,""version"":""105.0"",""blink"":true,""windows"":true,""osname"":""Windows"",""osversion"":""10"",""a"":true}","9:20:15","1","3","Test_4","74","j","1","1031.5","2048 x 1152","2048 x 1152","true","1","10","","","","",""
"null","<p style=""font-size: 80px;"">+ 10 points</p>","null","html-keyboard-response","169","946431","0.0-11.0-2.168","613bd1d54b15612f60104b1a","7g6a8l","AC","26","F","{""name"":""Chrome"",""chrome"":true,""version"":""105.0"",""blink"":true,""windows"":true,""osname"":""Windows"",""osversion"":""10"",""a"":true}","9:20:15","1","3","Test_3","70","f","1","721.7000000476837","2048 x 1152","2048 x 1152","true","1","10","","","","",""
"null","<p style=""font-size: 80px;"">+ 10 points</p>","null","html-keyboard-response","170","949345","0.0-11.0-2.169","613bd1d54b15612f60104b1a","7g6a8l","AC","26","F","{""name"":""Chrome"",""chrome"":true,""version"":""105.0"",""blink"":true,""windows"":true,""osname"":""Windows"",""osversion"":""10"",""a"":true}","9:20:15","1","3","Test_2","74","j","1","894","2048 x 1152","2048 x 1152","true","1","10","","","","",""
"null","<p style=""font-size: 80px;"">+ 0 points</p>","null","html-keyboard-response","171","952209","0.0-11.0-2.170","613bd1d54b15612f60104b1a","7g6a8l","AC","26","F","{""name"":""Chrome"",""chrome"":true,""version"":""105.0"",""blink"":true,""windows"":true,""osname"":""Windows"",""osversion"":""10"",""a"":true}","9:20:15","1","3","Test_4","70","j","0","843.5","2048 x 1152","2048 x 1152","true","1","0","","","","",""
"null","<p style=""font-size: 80px;"">+ 10 points</p>","null","html-keyboard-response","172","954928","0.0-11.0-2.171","613bd1d54b15612f60104b1a","7g6a8l","AC","26","F","{""name"":""Chrome"",""chrome"":true,""version"":""105.0"",""blink"":true,""windows"":true,""osname"":""Windows"",""osversion"":""10"",""a"":true}","9:20:15","1","3","Test_1","70","f","1","702.7000000476837","2048 x 1152","2048 x 1152","true","1","10","","","","",""
"null","<p style=""font-size: 80px;"">+ 10 points</p>","null","html-keyboard-response","173","957810","0.0-11.0-2.172","613bd1d54b15612f60104b1a","7g6a8l","AC","26","F","{""name"":""Chrome"",""chrome"":true,""version"":""105.0"",""blink"":true,""windows"":true,""osname"":""Windows"",""osversion"":""10"",""a"":true}","9:20:15","1","4","Test_3","74","j","1","861.4000000953674","2048 x 1152","2048 x 1152","true","1","10","","","","",""
"null","<p style=""font-size: 80px;"">+ 0 points</p>","null","html-keyboard-response","174","960781","0.0-11.0-2.173","613bd1d54b15612f60104b1a","7g6a8l","AC","26","F","{""name"":""Chrome"",""chrome"":true,""version"":""105.0"",""blink"":true,""windows"":true,""osname"":""Windows"",""osversion"":""10"",""a"":true}","9:20:15","1","4","Test_2","74","f","0","954.1000001430511","2048 x 1152","2048 x 1152","true","1","0","","","","",""
"null","<p style=""font-size: 80px;"">+ 10 points</p>","null","html-keyboard-response","175","963502","0.0-11.0-2.174","613bd1d54b15612f60104b1a","7g6a8l","AC","26","F","{""name"":""Chrome"",""chrome"":true,""version"":""105.0"",""blink"":true,""windows"":true,""osname"":""Windows"",""osversion"":""10"",""a"":true}","9:20:15","1","4","Test_1","74","j","1","703.1000001430511","2048 x 1152","2048 x 1152","true","1","10","","","","",""
"null","<p style=""font-size: 80px;"">+ 10 points</p>","null","html-keyboard-response","176","966281","0.0-11.0-2.175","613bd1d54b15612f60104b1a","7g6a8l","AC","26","F","{""name"":""Chrome"",""chrome"":true,""version"":""105.0"",""blink"":true,""windows"":true,""osname"":""Windows"",""osversion"":""10"",""a"":true}","9:20:15","1","4","Test_3","74","j","1","767.4000000953674","2048 x 1152","2048 x 1152","true","1","10","","","","",""
"null","<p style=""font-size: 80px;"">+ 10 points</p>","null","html-keyboard-response","177","969016","0.0-11.0-2.176","613bd1d54b15612f60104b1a","7g6a8l","AC","26","F","{""name"":""Chrome"",""chrome"":true,""version"":""105.0"",""blink"":true,""windows"":true,""osname"":""Windows"",""osversion"":""10"",""a"":true}","9:20:15","1","4","Test_1","74","j","1","711.9000000953674","2048 x 1152","2048 x 1152","true","1","10","","","","",""
"null","<p style=""font-size: 80px;"">+ 10 points</p>","null","html-keyboard-response","178","972781","0.0-11.0-2.177","613bd1d54b15612f60104b1a","7g6a8l","AC","26","F","{""name"":""Chrome"",""chrome"":true,""version"":""105.0"",""blink"":true,""windows"":true,""osname"":""Windows"",""osversion"":""10"",""a"":true}","9:20:15","1","4","Test_2","70","f","1","1737.2000000476837","2048 x 1152","2048 x 1152","true","1","10","","","","",""
"null","<p style=""font-size: 80px;"">+ 0 points</p>","null","html-keyboard-response","179","975625","0.0-11.0-2.178","613bd1d54b15612f60104b1a","7g6a8l","AC","26","F","{""name"":""Chrome"",""chrome"":true,""version"":""105.0"",""blink"":true,""windows"":true,""osname"":""Windows"",""osversion"":""10"",""a"":true}","9:20:15","1","4","Test_1","70","j","0","815.7999999523163","2048 x 1152","2048 x 1152","true","1","0","","","","",""
"null","<p style=""font-size: 80px;"">+ 10 points</p>","null","html-keyboard-response","180","978191","0.0-11.0-2.179","613bd1d54b15612f60104b1a","7g6a8l","AC","26","F","{""name"":""Chrome"",""chrome"":true,""version"":""105.0"",""blink"":true,""windows"":true,""osname"":""Windows"",""osversion"":""10"",""a"":true}","9:20:15","1","4","Test_1","74","j","1","544.1000001430511","2048 x 1152","2048 x 1152","true","1","10","","","","",""
"null","<p style=""font-size: 80px;"">+ 10 points</p>","null","html-keyboard-response","181","980961","0.0-11.0-2.180","613bd1d54b15612f60104b1a","7g6a8l","AC","26","F","{""name"":""Chrome"",""chrome"":true,""version"":""105.0"",""blink"":true,""windows"":true,""osname"":""Windows"",""osversion"":""10"",""a"":true}","9:20:15","1","4","Test_2","70","f","1","740.1999998092651","2048 x 1152","2048 x 1152","true","1","10","","","","",""
"null","<p style=""font-size: 80px;"">+ 10 points</p>","null","html-keyboard-response","182","983782","0.0-11.0-2.181","613bd1d54b15612f60104b1a","7g6a8l","AC","26","F","{""name"":""Chrome"",""chrome"":true,""version"":""105.0"",""blink"":true,""windows"":true,""osname"":""Windows"",""osversion"":""10"",""a"":true}","9:20:15","1","4","Test_4","70","f","1","798.7999999523163","2048 x 1152","2048 x 1152","true","1","10","","","","",""
"null","<p style=""font-size: 80px;"">+ 10 points</p>","null","html-keyboard-response","183","986736","0.0-11.0-2.182","613bd1d54b15612f60104b1a","7g6a8l","AC","26","F","{""name"":""Chrome"",""chrome"":true,""version"":""105.0"",""blink"":true,""windows"":true,""osname"":""Windows"",""osversion"":""10"",""a"":true}","9:20:15","1","4","Test_4","70","f","1","932.3000001907349","2048 x 1152","2048 x 1152","true","1","10","","","","",""
"null","<p style=""font-size: 80px;"">+ 10 points</p>","null","html-keyboard-response","184","989614","0.0-11.0-2.183","613bd1d54b15612f60104b1a","7g6a8l","AC","26","F","{""name"":""Chrome"",""chrome"":true,""version"":""105.0"",""blink"":true,""windows"":true,""osname"":""Windows"",""osversion"":""10"",""a"":true}","9:20:15","1","4","Test_3","74","j","1","862.3999998569489","2048 x 1152","2048 x 1152","true","1","10","","","","",""
"null","<p style=""font-size: 80px;"">+ 0 points</p>","null","html-keyboard-response","185","992592","0.0-11.0-2.184","613bd1d54b15612f60104b1a","7g6a8l","AC","26","F","{""name"":""Chrome"",""chrome"":true,""version"":""105.0"",""blink"":true,""windows"":true,""osname"":""Windows"",""osversion"":""10"",""a"":true}","9:20:15","1","4","Test_2","74","f","0","953.7999999523163","2048 x 1152","2048 x 1152","true","1","0","","","","",""
"null","<p style=""font-size: 80px;"">+ 10 points</p>","null","html-keyboard-response","186","995517","0.0-11.0-2.185","613bd1d54b15612f60104b1a","7g6a8l","AC","26","F","{""name"":""Chrome"",""chrome"":true,""version"":""105.0"",""blink"":true,""windows"":true,""osname"":""Windows"",""osversion"":""10"",""a"":true}","9:20:15","1","4","Test_3","74","j","1","898.2999999523163","2048 x 1152","2048 x 1152","true","1","10","","","","",""
"null","<p style=""font-size: 80px;"">+ 10 points</p>","null","html-keyboard-response","187","998502","0.0-11.0-2.186","613bd1d54b15612f60104b1a","7g6a8l","AC","26","F","{""name"":""Chrome"",""chrome"":true,""version"":""105.0"",""blink"":true,""windows"":true,""osname"":""Windows"",""osversion"":""10"",""a"":true}","9:20:15","1","4","Test_1","74","j","1","966.9000000953674","2048 x 1152","2048 x 1152","true","1","10","","","","",""
"null","<p style=""font-size: 80px;"">+ 10 points</p>","null","html-keyboard-response","188","1001455","0.0-11.0-2.187","613bd1d54b15612f60104b1a","7g6a8l","AC","26","F","{""name"":""Chrome"",""chrome"":true,""version"":""105.0"",""blink"":true,""windows"":true,""osname"":""Windows"",""osversion"":""10"",""a"":true}","9:20:15","1","4","Test_4","70","f","1","927.6000001430511","2048 x 1152","2048 x 1152","true","1","10","","","","",""
