"rt","stimulus","key_press","trial_type","trial_index","time_elapsed","internal_node_id","Prolific_ID","random_ID","initials","age","gender","pc_info","start_time","Phase","Rule","Stimulus","Response","CorrResp","Accuracy","ResponseTime","screen_resolution","window_resolution","focus","relevant","Points","responses","question_order","rev_check","butterfly_check","passed_practice"
"null","<p style=""font-size: 80px;"">+ 0 points</p>","null","html-keyboard-response","1","74070","0.0-7.0-2.0","62ead6a5a69bbf516d0973dc","7jfn1j","GY","50","F","{""name"":""Chrome"",""chrome"":true,""version"":""106.0"",""blink"":true,""windows"":true,""osname"":""Windows"",""osversion"":""10"",""a"":true}","9:17:2","0","1","Practice_2","70","j","0","1191.2999999998137","1280 x 1024","1280 x 881","true","1","0","","","","",""
"null","<p style=""font-size: 80px;"">+ 10 points</p>","null","html-keyboard-response","2","77154","0.0-7.0-2.1","62ead6a5a69bbf516d0973dc","7jfn1j","GY","50","F","{""name"":""Chrome"",""chrome"":true,""version"":""106.0"",""blink"":true,""windows"":true,""osname"":""Windows"",""osversion"":""10"",""a"":true}","9:17:2","0","1","Practice_1","70","f","1","1056.9000000003725","1280 x 1024","1280 x 881","true","1","10","","","","",""
"null","<p style=""font-size: 80px;"">+ 0 points</p>","null","html-keyboard-response","3","80069","0.0-7.0-2.2","62ead6a5a69bbf516d0973dc","7jfn1j","GY","50","F","{""name"":""Chrome"",""chrome"":true,""version"":""106.0"",""blink"":true,""windows"":true,""osname"":""Windows"",""osversion"":""10"",""a"":true}","9:17:2","0","1","Practice_3","74","f","0","891.2000000001863","1280 x 1024","1280 x 881","true","1","0","","","","",""
"null","<p style=""font-size: 80px;"">+ 10 points</p>","null","html-keyboard-response","4","83835","0.0-7.0-2.3","62ead6a5a69bbf516d0973dc","7jfn1j","GY","50","F","{""name"":""Chrome"",""chrome"":true,""version"":""106.0"",""blink"":true,""windows"":true,""osname"":""Windows"",""osversion"":""10"",""a"":true}","9:17:2","0","1","Practice_4","74","j","1","1755.7999999998137","1280 x 1024","1280 x 881","true","1","10","","","","",""
"null","<p style=""font-size: 80px;"">+ 0 points</p>","null","html-keyboard-response","5","86891","0.0-7.0-2.4","62ead6a5a69bbf516d0973dc","7jfn1j","GY","50","F","{""name"":""Chrome"",""chrome"":true,""version"":""106.0"",""blink"":true,""windows"":true,""osname"":""Windows"",""osversion"":""10"",""a"":true}","9:17:2","0","1","Practice_2","70","j","0","1026","1280 x 1024","1280 x 881","true","1","0","","","","",""
"null","<p style=""font-size: 80px;"">+ 10 points</p>","null","html-keyboard-response","6","89910","0.0-7.0-2.5","62ead6a5a69bbf516d0973dc","7jfn1j","GY","50","F","{""name"":""Chrome"",""chrome"":true,""version"":""106.0"",""blink"":true,""windows"":true,""osname"":""Windows"",""osversion"":""10"",""a"":true}","9:17:2","0","1","Practice_2","74","j","1","994.2999999998137","1280 x 1024","1280 x 881","true","1","10","","","","",""
"null","<p style=""font-size: 80px;"">+ 10 points</p>","null","html-keyboard-response","7","93008","0.0-7.0-2.6","62ead6a5a69bbf516d0973dc","7jfn1j","GY","50","F","{""name"":""Chrome"",""chrome"":true,""version"":""106.0"",""blink"":true,""windows"":true,""osname"":""Windows"",""osversion"":""10"",""a"":true}","9:17:2","0","1","Practice_3","70","f","1","1072.0999999996275","1280 x 1024","1280 x 881","true","1","10","","","","",""
"null","<p style=""font-size: 80px;"">+ 10 points</p>","null","html-keyboard-response","8","95748","0.0-7.0-2.7","62ead6a5a69bbf516d0973dc","7jfn1j","GY","50","F","{""name"":""Chrome"",""chrome"":true,""version"":""106.0"",""blink"":true,""windows"":true,""osname"":""Windows"",""osversion"":""10"",""a"":true}","9:17:2","0","1","Practice_3","70","f","1","724.7000000001863","1280 x 1024","1280 x 881","true","1","10","","","","",""
"null","<p style=""font-size: 80px;"">+ 10 points</p>","null","html-keyboard-response","9","98675","0.0-7.0-2.8","62ead6a5a69bbf516d0973dc","7jfn1j","GY","50","F","{""name"":""Chrome"",""chrome"":true,""version"":""106.0"",""blink"":true,""windows"":true,""osname"":""Windows"",""osversion"":""10"",""a"":true}","9:17:2","0","1","Practice_2","74","j","1","919.2000000001863","1280 x 1024","1280 x 881","true","1","10","","","","",""
"null","<p style=""font-size: 80px;"">+ 10 points</p>","null","html-keyboard-response","10","102131","0.0-7.0-2.9","62ead6a5a69bbf516d0973dc","7jfn1j","GY","50","F","{""name"":""Chrome"",""chrome"":true,""version"":""106.0"",""blink"":true,""windows"":true,""osname"":""Windows"",""osversion"":""10"",""a"":true}","9:17:2","0","1","Practice_1","70","f","1","1437.2000000001863","1280 x 1024","1280 x 881","true","1","10","","","","",""
"null","<p style=""font-size: 80px;"">+ 10 points</p>","null","html-keyboard-response","11","104967","0.0-7.0-2.10","62ead6a5a69bbf516d0973dc","7jfn1j","GY","50","F","{""name"":""Chrome"",""chrome"":true,""version"":""106.0"",""blink"":true,""windows"":true,""osname"":""Windows"",""osversion"":""10"",""a"":true}","9:17:2","0","1","Practice_2","74","j","1","809.7999999998137","1280 x 1024","1280 x 881","true","1","10","","","","",""
"null","<p style=""font-size: 80px;"">+ 10 points</p>","null","html-keyboard-response","12","107582","0.0-7.0-2.11","62ead6a5a69bbf516d0973dc","7jfn1j","GY","50","F","{""name"":""Chrome"",""chrome"":true,""version"":""106.0"",""blink"":true,""windows"":true,""osname"":""Windows"",""osversion"":""10"",""a"":true}","9:17:2","0","1","Practice_1","70","f","1","604.5999999996275","1280 x 1024","1280 x 881","true","1","10","","","","",""
"null","<p style=""font-size: 80px;"">+ 10 points</p>","null","html-keyboard-response","13","110377","0.0-7.0-2.12","62ead6a5a69bbf516d0973dc","7jfn1j","GY","50","F","{""name"":""Chrome"",""chrome"":true,""version"":""106.0"",""blink"":true,""windows"":true,""osname"":""Windows"",""osversion"":""10"",""a"":true}","9:17:2","0","1","Practice_4","74","j","1","766.3999999994412","1280 x 1024","1280 x 881","true","1","10","","","","",""
"null","<p style=""font-size: 80px;"">+ 10 points</p>","null","html-keyboard-response","14","112868","0.0-7.0-2.13","62ead6a5a69bbf516d0973dc","7jfn1j","GY","50","F","{""name"":""Chrome"",""chrome"":true,""version"":""106.0"",""blink"":true,""windows"":true,""osname"":""Windows"",""osversion"":""10"",""a"":true}","9:17:2","0","1","Practice_3","70","f","1","461.3999999994412","1280 x 1024","1280 x 881","true","1","10","","","","",""
"null","<p style=""font-size: 80px;"">+ 10 points</p>","null","html-keyboard-response","15","115607","0.0-7.0-2.14","62ead6a5a69bbf516d0973dc","7jfn1j","GY","50","F","{""name"":""Chrome"",""chrome"":true,""version"":""106.0"",""blink"":true,""windows"":true,""osname"":""Windows"",""osversion"":""10"",""a"":true}","9:17:2","0","1","Practice_1","70","f","1","719.6999999992549","1280 x 1024","1280 x 881","true","1","10","","","","",""
"null","<p style=""font-size: 80px;"">+ 10 points</p>","null","html-keyboard-response","16","118496","0.0-7.0-2.15","62ead6a5a69bbf516d0973dc","7jfn1j","GY","50","F","{""name"":""Chrome"",""chrome"":true,""version"":""106.0"",""blink"":true,""windows"":true,""osname"":""Windows"",""osversion"":""10"",""a"":true}","9:17:2","0","1","Practice_3","70","f","1","870.7000000001863","1280 x 1024","1280 x 881","true","1","10","","","","",""
"null","<p style=""font-size: 80px;"">+ 10 points</p>","null","html-keyboard-response","17","120924","0.0-7.0-2.16","62ead6a5a69bbf516d0973dc","7jfn1j","GY","50","F","{""name"":""Chrome"",""chrome"":true,""version"":""106.0"",""blink"":true,""windows"":true,""osname"":""Windows"",""osversion"":""10"",""a"":true}","9:17:2","0","1","Practice_4","74","j","1","397","1280 x 1024","1280 x 881","true","1","10","","","","",""
"null","<p style=""font-size: 80px;"">+ 10 points</p>","null","html-keyboard-response","18","123417","0.0-7.0-2.17","62ead6a5a69bbf516d0973dc","7jfn1j","GY","50","F","{""name"":""Chrome"",""chrome"":true,""version"":""106.0"",""blink"":true,""windows"":true,""osname"":""Windows"",""osversion"":""10"",""a"":true}","9:17:2","0","1","Practice_4","74","j","1","477.70000000018626","1280 x 1024","1280 x 881","true","1","10","","","","",""
"null","<p style=""font-size: 80px;"">+ 10 points</p>","null","html-keyboard-response","19","125977","0.0-7.0-2.18","62ead6a5a69bbf516d0973dc","7jfn1j","GY","50","F","{""name"":""Chrome"",""chrome"":true,""version"":""106.0"",""blink"":true,""windows"":true,""osname"":""Windows"",""osversion"":""10"",""a"":true}","9:17:2","0","1","Practice_1","70","f","1","532.5","1280 x 1024","1280 x 881","true","1","10","","","","",""
"null","<p style=""font-size: 80px;"">+ 10 points</p>","null","html-keyboard-response","20","128613","0.0-7.0-2.19","62ead6a5a69bbf516d0973dc","7jfn1j","GY","50","F","{""name"":""Chrome"",""chrome"":true,""version"":""106.0"",""blink"":true,""windows"":true,""osname"":""Windows"",""osversion"":""10"",""a"":true}","9:17:2","0","1","Practice_4","74","j","1","623.9000000003725","1280 x 1024","1280 x 881","true","1","10","","","","",""
"null","<p style=""font-size: 80px;"">+ 0 points</p>","null","html-keyboard-response","21","131206","0.0-7.0-2.20","62ead6a5a69bbf516d0973dc","7jfn1j","GY","50","F","{""name"":""Chrome"",""chrome"":true,""version"":""106.0"",""blink"":true,""windows"":true,""osname"":""Windows"",""osversion"":""10"",""a"":true}","9:17:2","0","2","Practice_3","70","j","0","572.3999999994412","1280 x 1024","1280 x 881","true","1","0","","","","",""
"null","<p style=""font-size: 80px;"">+ 0 points</p>","null","html-keyboard-response","22","134248","0.0-7.0-2.21","62ead6a5a69bbf516d0973dc","7jfn1j","GY","50","F","{""name"":""Chrome"",""chrome"":true,""version"":""106.0"",""blink"":true,""windows"":true,""osname"":""Windows"",""osversion"":""10"",""a"":true}","9:17:2","0","2","Practice_4","74","f","0","1015.5","1280 x 1024","1280 x 881","true","1","0","","","","",""
"null","<p style=""font-size: 80px;"">+ 10 points</p>","null","html-keyboard-response","23","137018","0.0-7.0-2.22","62ead6a5a69bbf516d0973dc","7jfn1j","GY","50","F","{""name"":""Chrome"",""chrome"":true,""version"":""106.0"",""blink"":true,""windows"":true,""osname"":""Windows"",""osversion"":""10"",""a"":true}","9:17:2","0","2","Practice_4","70","f","1","741.1000000005588","1280 x 1024","1280 x 881","true","1","10","","","","",""
"null","<p style=""font-size: 80px;"">+ 10 points</p>","null","html-keyboard-response","24","139787","0.0-7.0-2.23","62ead6a5a69bbf516d0973dc","7jfn1j","GY","50","F","{""name"":""Chrome"",""chrome"":true,""version"":""106.0"",""blink"":true,""windows"":true,""osname"":""Windows"",""osversion"":""10"",""a"":true}","9:17:2","0","2","Practice_2","70","f","1","762.5","1280 x 1024","1280 x 881","true","1","10","","","","",""
"null","<p style=""font-size: 80px;"">+ 10 points</p>","null","html-keyboard-response","25","143028","0.0-7.0-2.24","62ead6a5a69bbf516d0973dc","7jfn1j","GY","50","F","{""name"":""Chrome"",""chrome"":true,""version"":""106.0"",""blink"":true,""windows"":true,""osname"":""Windows"",""osversion"":""10"",""a"":true}","9:17:2","0","2","Practice_2","70","f","1","1231.7000000001863","1280 x 1024","1280 x 881","true","1","10","","","","",""
"null","<p style=""font-size: 80px;"">+ 10 points</p>","null","html-keyboard-response","26","146076","0.0-7.0-2.25","62ead6a5a69bbf516d0973dc","7jfn1j","GY","50","F","{""name"":""Chrome"",""chrome"":true,""version"":""106.0"",""blink"":true,""windows"":true,""osname"":""Windows"",""osversion"":""10"",""a"":true}","9:17:2","0","2","Practice_2","70","f","1","1035.7000000001863","1280 x 1024","1280 x 881","true","1","10","","","","",""
"null","<p style=""font-size: 80px;"">+ 10 points</p>","null","html-keyboard-response","27","149539","0.0-7.0-2.26","62ead6a5a69bbf516d0973dc","7jfn1j","GY","50","F","{""name"":""Chrome"",""chrome"":true,""version"":""106.0"",""blink"":true,""windows"":true,""osname"":""Windows"",""osversion"":""10"",""a"":true}","9:17:2","0","2","Practice_3","74","j","1","1456.300000000745","1280 x 1024","1280 x 881","true","1","10","","","","",""
"null","<p style=""font-size: 80px;"">+ 0 points</p>","null","html-keyboard-response","28","152095","0.0-7.0-2.27","62ead6a5a69bbf516d0973dc","7jfn1j","GY","50","F","{""name"":""Chrome"",""chrome"":true,""version"":""106.0"",""blink"":true,""windows"":true,""osname"":""Windows"",""osversion"":""10"",""a"":true}","9:17:2","0","2","Practice_1","70","j","0","543.7999999998137","1280 x 1024","1280 x 881","true","1","0","","","","",""
"null","<p style=""font-size: 80px;"">+ 10 points</p>","null","html-keyboard-response","29","155044","0.0-7.0-2.28","62ead6a5a69bbf516d0973dc","7jfn1j","GY","50","F","{""name"":""Chrome"",""chrome"":true,""version"":""106.0"",""blink"":true,""windows"":true,""osname"":""Windows"",""osversion"":""10"",""a"":true}","9:17:2","0","2","Practice_1","74","j","1","939.5","1280 x 1024","1280 x 881","true","1","10","","","","",""
"null","<p style=""font-size: 80px;"">+ 10 points</p>","null","html-keyboard-response","30","158231","0.0-7.0-2.29","62ead6a5a69bbf516d0973dc","7jfn1j","GY","50","F","{""name"":""Chrome"",""chrome"":true,""version"":""106.0"",""blink"":true,""windows"":true,""osname"":""Windows"",""osversion"":""10"",""a"":true}","9:17:2","0","2","Practice_2","70","f","1","1172.5999999996275","1280 x 1024","1280 x 881","true","1","10","","","","",""
"null","<p style=""font-size: 80px;"">+ 10 points</p>","null","html-keyboard-response","31","160947","0.0-7.0-2.30","62ead6a5a69bbf516d0973dc","7jfn1j","GY","50","F","{""name"":""Chrome"",""chrome"":true,""version"":""106.0"",""blink"":true,""windows"":true,""osname"":""Windows"",""osversion"":""10"",""a"":true}","9:17:2","0","2","Practice_4","70","f","1","709.2000000001863","1280 x 1024","1280 x 881","true","1","10","","","","",""
"null","<p style=""font-size: 80px;"">+ 10 points</p>","null","html-keyboard-response","32","163883","0.0-7.0-2.31","62ead6a5a69bbf516d0973dc","7jfn1j","GY","50","F","{""name"":""Chrome"",""chrome"":true,""version"":""106.0"",""blink"":true,""windows"":true,""osname"":""Windows"",""osversion"":""10"",""a"":true}","9:17:2","0","2","Practice_1","74","j","1","918.8999999994412","1280 x 1024","1280 x 881","true","1","10","","","","",""
"null","<p style=""font-size: 80px;"">+ 10 points</p>","null","html-keyboard-response","33","167413","0.0-7.0-2.32","62ead6a5a69bbf516d0973dc","7jfn1j","GY","50","F","{""name"":""Chrome"",""chrome"":true,""version"":""106.0"",""blink"":true,""windows"":true,""osname"":""Windows"",""osversion"":""10"",""a"":true}","9:17:2","0","2","Practice_4","70","f","1","1515.8999999994412","1280 x 1024","1280 x 881","true","1","10","","","","",""
"null","<p style=""font-size: 80px;"">+ 10 points</p>","null","html-keyboard-response","34","171118","0.0-7.0-2.33","62ead6a5a69bbf516d0973dc","7jfn1j","GY","50","F","{""name"":""Chrome"",""chrome"":true,""version"":""106.0"",""blink"":true,""windows"":true,""osname"":""Windows"",""osversion"":""10"",""a"":true}","9:17:2","0","2","Practice_3","74","j","1","1681.7999999998137","1280 x 1024","1280 x 881","true","1","10","","","","",""
"null","<p style=""font-size: 80px;"">+ 10 points</p>","null","html-keyboard-response","35","175201","0.0-7.0-2.34","62ead6a5a69bbf516d0973dc","7jfn1j","GY","50","F","{""name"":""Chrome"",""chrome"":true,""version"":""106.0"",""blink"":true,""windows"":true,""osname"":""Windows"",""osversion"":""10"",""a"":true}","9:17:2","0","2","Practice_4","70","f","1","2059.9000000003725","1280 x 1024","1280 x 881","true","1","10","","","","",""
"null","<p style=""font-size: 80px;"">+ 10 points</p>","null","html-keyboard-response","36","177975","0.0-7.0-2.35","62ead6a5a69bbf516d0973dc","7jfn1j","GY","50","F","{""name"":""Chrome"",""chrome"":true,""version"":""106.0"",""blink"":true,""windows"":true,""osname"":""Windows"",""osversion"":""10"",""a"":true}","9:17:2","0","2","Practice_1","74","j","1","758.6999999992549","1280 x 1024","1280 x 881","true","1","10","","","","",""
"null","<p style=""font-size: 80px;"">+ 10 points</p>","null","html-keyboard-response","37","181246","0.0-7.0-2.36","62ead6a5a69bbf516d0973dc","7jfn1j","GY","50","F","{""name"":""Chrome"",""chrome"":true,""version"":""106.0"",""blink"":true,""windows"":true,""osname"":""Windows"",""osversion"":""10"",""a"":true}","9:17:2","0","2","Practice_1","74","j","1","1250.2999999998137","1280 x 1024","1280 x 881","true","1","10","","","","",""
"null","<p style=""font-size: 80px;"">+ 0 points</p>","null","html-keyboard-response","38","183887","0.0-7.0-2.37","62ead6a5a69bbf516d0973dc","7jfn1j","GY","50","F","{""name"":""Chrome"",""chrome"":true,""version"":""106.0"",""blink"":true,""windows"":true,""osname"":""Windows"",""osversion"":""10"",""a"":true}","9:17:2","0","2","Practice_3","70","j","0","628.5999999996275","1280 x 1024","1280 x 881","true","1","0","","","","",""
"null","<p style=""font-size: 80px;"">+ 10 points</p>","null","html-keyboard-response","39","187592","0.0-7.0-2.38","62ead6a5a69bbf516d0973dc","7jfn1j","GY","50","F","{""name"":""Chrome"",""chrome"":true,""version"":""106.0"",""blink"":true,""windows"":true,""osname"":""Windows"",""osversion"":""10"",""a"":true}","9:17:2","0","2","Practice_3","74","j","1","1680.2999999998137","1280 x 1024","1280 x 881","true","1","10","","","","",""
"null","<p style=""font-size: 80px;"">+ 0 points</p>","null","html-keyboard-response","40","190508","0.0-7.0-2.39","62ead6a5a69bbf516d0973dc","7jfn1j","GY","50","F","{""name"":""Chrome"",""chrome"":true,""version"":""106.0"",""blink"":true,""windows"":true,""osname"":""Windows"",""osversion"":""10"",""a"":true}","9:17:2","0","2","Practice_2","74","f","0","885.7000000001863","1280 x 1024","1280 x 881","true","1","0","","","","",""
"7687.100000000559","","","survey-multi-choice","127","198198","0.0-8.0","62ead6a5a69bbf516d0973dc","7jfn1j","GY","50","F","{""name"":""Chrome"",""chrome"":true,""version"":""106.0"",""blink"":true,""windows"":true,""osname"":""Windows"",""osversion"":""10"",""a"":true}","9:17:2","","","","","","","","","","","1","","{""Q0"":""The red one"",""Q1"":""1""}","[0,1]","1","The red one","2"
"null","<p style=""font-size: 80px;"">+ 10 points</p>","null","html-keyboard-response","1","211067","0.0-11.0-2.0","62ead6a5a69bbf516d0973dc","7jfn1j","GY","50","F","{""name"":""Chrome"",""chrome"":true,""version"":""106.0"",""blink"":true,""windows"":true,""osname"":""Windows"",""osversion"":""10"",""a"":true}","9:17:2","1","3","Test_4","74","j","1","1489","1280 x 1024","1280 x 881","true","1","10","","","","",""
"null","<p style=""font-size: 80px;"">+ 10 points</p>","null","html-keyboard-response","2","213760","0.0-11.0-2.1","62ead6a5a69bbf516d0973dc","7jfn1j","GY","50","F","{""name"":""Chrome"",""chrome"":true,""version"":""106.0"",""blink"":true,""windows"":true,""osname"":""Windows"",""osversion"":""10"",""a"":true}","9:17:2","1","3","Test_4","74","j","1","665.7999999998137","1280 x 1024","1280 x 881","true","1","10","","","","",""
"null","<p style=""font-size: 80px;"">+ 10 points</p>","null","html-keyboard-response","3","216830","0.0-11.0-2.2","62ead6a5a69bbf516d0973dc","7jfn1j","GY","50","F","{""name"":""Chrome"",""chrome"":true,""version"":""106.0"",""blink"":true,""windows"":true,""osname"":""Windows"",""osversion"":""10"",""a"":true}","9:17:2","1","3","Test_3","70","f","1","1053.7999999998137","1280 x 1024","1280 x 881","true","1","10","","","","",""
"null","<p style=""font-size: 80px;"">+ 10 points</p>","null","html-keyboard-response","4","219805","0.0-11.0-2.3","62ead6a5a69bbf516d0973dc","7jfn1j","GY","50","F","{""name"":""Chrome"",""chrome"":true,""version"":""106.0"",""blink"":true,""windows"":true,""osname"":""Windows"",""osversion"":""10"",""a"":true}","9:17:2","1","3","Test_4","74","j","1","960.2000000001863","1280 x 1024","1280 x 881","true","1","10","","","","",""
"null","<p style=""font-size: 80px;"">+ 10 points</p>","null","html-keyboard-response","5","223251","0.0-11.0-2.4","62ead6a5a69bbf516d0973dc","7jfn1j","GY","50","F","{""name"":""Chrome"",""chrome"":true,""version"":""106.0"",""blink"":true,""windows"":true,""osname"":""Windows"",""osversion"":""10"",""a"":true}","9:17:2","1","3","Test_1","70","f","1","1423.6000000005588","1280 x 1024","1280 x 881","true","1","10","","","","",""
"null","<p style=""font-size: 80px;"">+ 10 points</p>","null","html-keyboard-response","6","225846","0.0-11.0-2.5","62ead6a5a69bbf516d0973dc","7jfn1j","GY","50","F","{""name"":""Chrome"",""chrome"":true,""version"":""106.0"",""blink"":true,""windows"":true,""osname"":""Windows"",""osversion"":""10"",""a"":true}","9:17:2","1","3","Test_1","70","f","1","563.7000000001863","1280 x 1024","1280 x 881","true","1","10","","","","",""
"null","<p style=""font-size: 80px;"">+ 10 points</p>","null","html-keyboard-response","7","228709","0.0-11.0-2.6","62ead6a5a69bbf516d0973dc","7jfn1j","GY","50","F","{""name"":""Chrome"",""chrome"":true,""version"":""106.0"",""blink"":true,""windows"":true,""osname"":""Windows"",""osversion"":""10"",""a"":true}","9:17:2","1","3","Test_2","74","j","1","847.2999999998137","1280 x 1024","1280 x 881","true","1","10","","","","",""
"null","<p style=""font-size: 80px;"">+ 10 points</p>","null","html-keyboard-response","8","231655","0.0-11.0-2.7","62ead6a5a69bbf516d0973dc","7jfn1j","GY","50","F","{""name"":""Chrome"",""chrome"":true,""version"":""106.0"",""blink"":true,""windows"":true,""osname"":""Windows"",""osversion"":""10"",""a"":true}","9:17:2","1","3","Test_3","70","f","1","933.7999999998137","1280 x 1024","1280 x 881","true","1","10","","","","",""
"null","<p style=""font-size: 80px;"">+ 10 points</p>","null","html-keyboard-response","9","234745","0.0-11.0-2.8","62ead6a5a69bbf516d0973dc","7jfn1j","GY","50","F","{""name"":""Chrome"",""chrome"":true,""version"":""106.0"",""blink"":true,""windows"":true,""osname"":""Windows"",""osversion"":""10"",""a"":true}","9:17:2","1","3","Test_1","70","f","1","1063.9000000003725","1280 x 1024","1280 x 881","true","1","10","","","","",""
"null","<p style=""font-size: 80px;"">+ 10 points</p>","null","html-keyboard-response","10","237427","0.0-11.0-2.9","62ead6a5a69bbf516d0973dc","7jfn1j","GY","50","F","{""name"":""Chrome"",""chrome"":true,""version"":""106.0"",""blink"":true,""windows"":true,""osname"":""Windows"",""osversion"":""10"",""a"":true}","9:17:2","1","3","Test_3","70","f","1","673.7999999998137","1280 x 1024","1280 x 881","true","1","10","","","","",""
"null","<p style=""font-size: 80px;"">+ 10 points</p>","null","html-keyboard-response","11","241110","0.0-11.0-2.10","62ead6a5a69bbf516d0973dc","7jfn1j","GY","50","F","{""name"":""Chrome"",""chrome"":true,""version"":""106.0"",""blink"":true,""windows"":true,""osname"":""Windows"",""osversion"":""10"",""a"":true}","9:17:2","1","3","Test_2","74","j","1","1651.8999999994412","1280 x 1024","1280 x 881","true","1","10","","","","",""
"null","<p style=""font-size: 80px;"">+ 10 points</p>","null","html-keyboard-response","12","243745","0.0-11.0-2.11","62ead6a5a69bbf516d0973dc","7jfn1j","GY","50","F","{""name"":""Chrome"",""chrome"":true,""version"":""106.0"",""blink"":true,""windows"":true,""osname"":""Windows"",""osversion"":""10"",""a"":true}","9:17:2","1","3","Test_2","74","j","1","619.2999999998137","1280 x 1024","1280 x 881","true","1","10","","","","",""
"null","<p style=""font-size: 80px;"">+ 10 points</p>","null","html-keyboard-response","13","246722","0.0-11.0-2.12","62ead6a5a69bbf516d0973dc","7jfn1j","GY","50","F","{""name"":""Chrome"",""chrome"":true,""version"":""106.0"",""blink"":true,""windows"":true,""osname"":""Windows"",""osversion"":""10"",""a"":true}","9:17:2","1","3","Test_3","70","f","1","949.3999999994412","1280 x 1024","1280 x 881","true","1","10","","","","",""
"null","<p style=""font-size: 80px;"">+ 0 points</p>","null","html-keyboard-response","14","249524","0.0-11.0-2.13","62ead6a5a69bbf516d0973dc","7jfn1j","GY","50","F","{""name"":""Chrome"",""chrome"":true,""version"":""106.0"",""blink"":true,""windows"":true,""osname"":""Windows"",""osversion"":""10"",""a"":true}","9:17:2","1","3","Test_1","74","f","0","793.2000000001863","1280 x 1024","1280 x 881","true","1","0","","","","",""
"null","<p style=""font-size: 80px;"">+ 10 points</p>","null","html-keyboard-response","15","252703","0.0-11.0-2.14","62ead6a5a69bbf516d0973dc","7jfn1j","GY","50","F","{""name"":""Chrome"",""chrome"":true,""version"":""106.0"",""blink"":true,""windows"":true,""osname"":""Windows"",""osversion"":""10"",""a"":true}","9:17:2","1","3","Test_3","70","f","1","1159.3999999994412","1280 x 1024","1280 x 881","true","1","10","","","","",""
"null","<p style=""font-size: 80px;"">+ 10 points</p>","null","html-keyboard-response","16","255272","0.0-11.0-2.15","62ead6a5a69bbf516d0973dc","7jfn1j","GY","50","F","{""name"":""Chrome"",""chrome"":true,""version"":""106.0"",""blink"":true,""windows"":true,""osname"":""Windows"",""osversion"":""10"",""a"":true}","9:17:2","1","3","Test_1","70","f","1","542.2000000001863","1280 x 1024","1280 x 881","true","1","10","","","","",""
"null","<p style=""font-size: 80px;"">+ 10 points</p>","null","html-keyboard-response","17","258099","0.0-11.0-2.16","62ead6a5a69bbf516d0973dc","7jfn1j","GY","50","F","{""name"":""Chrome"",""chrome"":true,""version"":""106.0"",""blink"":true,""windows"":true,""osname"":""Windows"",""osversion"":""10"",""a"":true}","9:17:2","1","3","Test_2","74","j","1","797.3000000007451","1280 x 1024","1280 x 881","true","1","10","","","","",""
"null","<p style=""font-size: 80px;"">+ 10 points</p>","null","html-keyboard-response","18","260899","0.0-11.0-2.17","62ead6a5a69bbf516d0973dc","7jfn1j","GY","50","F","{""name"":""Chrome"",""chrome"":true,""version"":""106.0"",""blink"":true,""windows"":true,""osname"":""Windows"",""osversion"":""10"",""a"":true}","9:17:2","1","3","Test_4","74","j","1","771.7000000001863","1280 x 1024","1280 x 881","true","1","10","","","","",""
"null","<p style=""font-size: 80px;"">+ 10 points</p>","null","html-keyboard-response","19","263506","0.0-11.0-2.18","62ead6a5a69bbf516d0973dc","7jfn1j","GY","50","F","{""name"":""Chrome"",""chrome"":true,""version"":""106.0"",""blink"":true,""windows"":true,""osname"":""Windows"",""osversion"":""10"",""a"":true}","9:17:2","1","3","Test_2","74","j","1","597.2000000001863","1280 x 1024","1280 x 881","true","1","10","","","","",""
"null","<p style=""font-size: 80px;"">+ 0 points</p>","null","html-keyboard-response","20","265951","0.0-11.0-2.19","62ead6a5a69bbf516d0973dc","7jfn1j","GY","50","F","{""name"":""Chrome"",""chrome"":true,""version"":""106.0"",""blink"":true,""windows"":true,""osname"":""Windows"",""osversion"":""10"",""a"":true}","9:17:2","1","4","Test_1","70","j","0","421.40000000037253","1280 x 1024","1280 x 881","true","1","0","","","","",""
"null","<p style=""font-size: 80px;"">+ 10 points</p>","null","html-keyboard-response","21","269628","0.0-11.0-2.20","62ead6a5a69bbf516d0973dc","7jfn1j","GY","50","F","{""name"":""Chrome"",""chrome"":true,""version"":""106.0"",""blink"":true,""windows"":true,""osname"":""Windows"",""osversion"":""10"",""a"":true}","9:17:2","1","4","Test_1","74","j","1","1647.8999999994412","1280 x 1024","1280 x 881","true","1","10","","","","",""
"null","<p style=""font-size: 80px;"">+ 10 points</p>","null","html-keyboard-response","22","272628","0.0-11.0-2.21","62ead6a5a69bbf516d0973dc","7jfn1j","GY","50","F","{""name"":""Chrome"",""chrome"":true,""version"":""106.0"",""blink"":true,""windows"":true,""osname"":""Windows"",""osversion"":""10"",""a"":true}","9:17:2","1","4","Test_4","70","f","1","991","1280 x 1024","1280 x 881","true","1","10","","","","",""
"null","<p style=""font-size: 80px;"">+ 10 points</p>","null","html-keyboard-response","23","275660","0.0-11.0-2.22","62ead6a5a69bbf516d0973dc","7jfn1j","GY","50","F","{""name"":""Chrome"",""chrome"":true,""version"":""106.0"",""blink"":true,""windows"":true,""osname"":""Windows"",""osversion"":""10"",""a"":true}","9:17:2","1","4","Test_3","74","j","1","1012.2000000001863","1280 x 1024","1280 x 881","true","1","10","","","","",""
"null","<p style=""font-size: 80px;"">+ 10 points</p>","null","html-keyboard-response","24","279527","0.0-11.0-2.23","62ead6a5a69bbf516d0973dc","7jfn1j","GY","50","F","{""name"":""Chrome"",""chrome"":true,""version"":""106.0"",""blink"":true,""windows"":true,""osname"":""Windows"",""osversion"":""10"",""a"":true}","9:17:2","1","4","Test_3","74","j","1","1851.5999999996275","1280 x 1024","1280 x 881","true","1","10","","","","",""
"null","<p style=""font-size: 80px;"">+ 10 points</p>","null","html-keyboard-response","25","282435","0.0-11.0-2.24","62ead6a5a69bbf516d0973dc","7jfn1j","GY","50","F","{""name"":""Chrome"",""chrome"":true,""version"":""106.0"",""blink"":true,""windows"":true,""osname"":""Windows"",""osversion"":""10"",""a"":true}","9:17:2","1","4","Test_1","74","j","1","888.5","1280 x 1024","1280 x 881","true","1","10","","","","",""
"null","<p style=""font-size: 80px;"">+ 10 points</p>","null","html-keyboard-response","26","285685","0.0-11.0-2.25","62ead6a5a69bbf516d0973dc","7jfn1j","GY","50","F","{""name"":""Chrome"",""chrome"":true,""version"":""106.0"",""blink"":true,""windows"":true,""osname"":""Windows"",""osversion"":""10"",""a"":true}","9:17:2","1","4","Test_2","70","f","1","1229.2000000001863","1280 x 1024","1280 x 881","true","1","10","","","","",""
"null","<p style=""font-size: 80px;"">+ 0 points</p>","null","html-keyboard-response","27","289003","0.0-11.0-2.26","62ead6a5a69bbf516d0973dc","7jfn1j","GY","50","F","{""name"":""Chrome"",""chrome"":true,""version"":""106.0"",""blink"":true,""windows"":true,""osname"":""Windows"",""osversion"":""10"",""a"":true}","9:17:2","1","4","Test_2","74","f","0","1301","1280 x 1024","1280 x 881","true","1","0","","","","",""
"null","<p style=""font-size: 80px;"">+ 10 points</p>","null","html-keyboard-response","28","291843","0.0-11.0-2.27","62ead6a5a69bbf516d0973dc","7jfn1j","GY","50","F","{""name"":""Chrome"",""chrome"":true,""version"":""106.0"",""blink"":true,""windows"":true,""osname"":""Windows"",""osversion"":""10"",""a"":true}","9:17:2","1","4","Test_2","70","f","1","830.5","1280 x 1024","1280 x 881","true","1","10","","","","",""
"null","<p style=""font-size: 80px;"">+ 10 points</p>","null","html-keyboard-response","29","295250","0.0-11.0-2.28","62ead6a5a69bbf516d0973dc","7jfn1j","GY","50","F","{""name"":""Chrome"",""chrome"":true,""version"":""106.0"",""blink"":true,""windows"":true,""osname"":""Windows"",""osversion"":""10"",""a"":true}","9:17:2","1","4","Test_3","74","j","1","1399","1280 x 1024","1280 x 881","true","1","10","","","","",""
"null","<p style=""font-size: 80px;"">+ 10 points</p>","null","html-keyboard-response","30","298024","0.0-11.0-2.29","62ead6a5a69bbf516d0973dc","7jfn1j","GY","50","F","{""name"":""Chrome"",""chrome"":true,""version"":""106.0"",""blink"":true,""windows"":true,""osname"":""Windows"",""osversion"":""10"",""a"":true}","9:17:2","1","4","Test_3","74","j","1","740.2000000001863","1280 x 1024","1280 x 881","true","1","10","","","","",""
"null","<p style=""font-size: 80px;"">+ 10 points</p>","null","html-keyboard-response","31","300893","0.0-11.0-2.30","62ead6a5a69bbf516d0973dc","7jfn1j","GY","50","F","{""name"":""Chrome"",""chrome"":true,""version"":""106.0"",""blink"":true,""windows"":true,""osname"":""Windows"",""osversion"":""10"",""a"":true}","9:17:2","1","4","Test_4","70","f","1","850.0999999996275","1280 x 1024","1280 x 881","true","1","10","","","","",""
"null","<p style=""font-size: 80px;"">+ 0 points</p>","null","html-keyboard-response","32","303639","0.0-11.0-2.31","62ead6a5a69bbf516d0973dc","7jfn1j","GY","50","F","{""name"":""Chrome"",""chrome"":true,""version"":""106.0"",""blink"":true,""windows"":true,""osname"":""Windows"",""osversion"":""10"",""a"":true}","9:17:2","1","4","Test_1","70","j","0","721.5","1280 x 1024","1280 x 881","true","1","0","","","","",""
"null","<p style=""font-size: 80px;"">+ 10 points</p>","null","html-keyboard-response","33","306821","0.0-11.0-2.32","62ead6a5a69bbf516d0973dc","7jfn1j","GY","50","F","{""name"":""Chrome"",""chrome"":true,""version"":""106.0"",""blink"":true,""windows"":true,""osname"":""Windows"",""osversion"":""10"",""a"":true}","9:17:2","1","4","Test_4","70","f","1","1164.2000000001863","1280 x 1024","1280 x 881","true","1","10","","","","",""
"null","<p style=""font-size: 80px;"">+ 10 points</p>","null","html-keyboard-response","34","309747","0.0-11.0-2.33","62ead6a5a69bbf516d0973dc","7jfn1j","GY","50","F","{""name"":""Chrome"",""chrome"":true,""version"":""106.0"",""blink"":true,""windows"":true,""osname"":""Windows"",""osversion"":""10"",""a"":true}","9:17:2","1","4","Test_1","74","j","1","912","1280 x 1024","1280 x 881","true","1","10","","","","",""
"null","<p style=""font-size: 80px;"">+ 10 points</p>","null","html-keyboard-response","35","312458","0.0-11.0-2.34","62ead6a5a69bbf516d0973dc","7jfn1j","GY","50","F","{""name"":""Chrome"",""chrome"":true,""version"":""106.0"",""blink"":true,""windows"":true,""osname"":""Windows"",""osversion"":""10"",""a"":true}","9:17:2","1","4","Test_4","70","f","1","689","1280 x 1024","1280 x 881","true","1","10","","","","",""
"null","<p style=""font-size: 80px;"">+ 0 points</p>","null","html-keyboard-response","36","314844","0.0-11.0-2.35","62ead6a5a69bbf516d0973dc","7jfn1j","GY","50","F","{""name"":""Chrome"",""chrome"":true,""version"":""106.0"",""blink"":true,""windows"":true,""osname"":""Windows"",""osversion"":""10"",""a"":true}","9:17:2","1","4","Test_2","74","f","0","362.40000000037253","1280 x 1024","1280 x 881","true","1","0","","","","",""
"null","<p style=""font-size: 80px;"">+ 10 points</p>","null","html-keyboard-response","37","317991","0.0-11.0-2.36","62ead6a5a69bbf516d0973dc","7jfn1j","GY","50","F","{""name"":""Chrome"",""chrome"":true,""version"":""106.0"",""blink"":true,""windows"":true,""osname"":""Windows"",""osversion"":""10"",""a"":true}","9:17:2","1","4","Test_1","74","j","1","1135.7000000001863","1280 x 1024","1280 x 881","true","1","10","","","","",""
"null","<p style=""font-size: 80px;"">+ 10 points</p>","null","html-keyboard-response","38","320750","0.0-11.0-2.37","62ead6a5a69bbf516d0973dc","7jfn1j","GY","50","F","{""name"":""Chrome"",""chrome"":true,""version"":""106.0"",""blink"":true,""windows"":true,""osname"":""Windows"",""osversion"":""10"",""a"":true}","9:17:2","1","4","Test_2","70","f","1","735.5999999996275","1280 x 1024","1280 x 881","true","1","10","","","","",""
"null","<p style=""font-size: 80px;"">+ 10 points</p>","null","html-keyboard-response","39","323811","0.0-11.0-2.38","62ead6a5a69bbf516d0973dc","7jfn1j","GY","50","F","{""name"":""Chrome"",""chrome"":true,""version"":""106.0"",""blink"":true,""windows"":true,""osname"":""Windows"",""osversion"":""10"",""a"":true}","9:17:2","1","4","Test_2","70","f","1","1040.5999999996275","1280 x 1024","1280 x 881","true","1","10","","","","",""
"null","<p style=""font-size: 80px;"">+ 10 points</p>","null","html-keyboard-response","40","327950","0.0-11.0-2.39","62ead6a5a69bbf516d0973dc","7jfn1j","GY","50","F","{""name"":""Chrome"",""chrome"":true,""version"":""106.0"",""blink"":true,""windows"":true,""osname"":""Windows"",""osversion"":""10"",""a"":true}","9:17:2","1","4","Test_3","74","j","1","2117.7999999998137","1280 x 1024","1280 x 881","true","1","10","","","","",""
"null","<p style=""font-size: 80px;"">+ 10 points</p>","null","html-keyboard-response","41","331173","0.0-11.0-2.40","62ead6a5a69bbf516d0973dc","7jfn1j","GY","50","F","{""name"":""Chrome"",""chrome"":true,""version"":""106.0"",""blink"":true,""windows"":true,""osname"":""Windows"",""osversion"":""10"",""a"":true}","9:17:2","1","4","Test_4","70","f","1","1199.1000000005588","1280 x 1024","1280 x 881","true","1","10","","","","",""
"null","<p style=""font-size: 80px;"">+ 0 points</p>","null","html-keyboard-response","42","333950","0.0-11.0-2.41","62ead6a5a69bbf516d0973dc","7jfn1j","GY","50","F","{""name"":""Chrome"",""chrome"":true,""version"":""106.0"",""blink"":true,""windows"":true,""osname"":""Windows"",""osversion"":""10"",""a"":true}","9:17:2","1","3","Test_4","70","j","0","753.0999999996275","1280 x 1024","1280 x 881","true","1","0","","","","",""
"null","<p style=""font-size: 80px;"">+ 10 points</p>","null","html-keyboard-response","43","337069","0.0-11.0-2.42","62ead6a5a69bbf516d0973dc","7jfn1j","GY","50","F","{""name"":""Chrome"",""chrome"":true,""version"":""106.0"",""blink"":true,""windows"":true,""osname"":""Windows"",""osversion"":""10"",""a"":true}","9:17:2","1","3","Test_2","74","j","1","1106.7000000001863","1280 x 1024","1280 x 881","true","1","10","","","","",""
"null","<p style=""font-size: 80px;"">+ 10 points</p>","null","html-keyboard-response","44","339564","0.0-11.0-2.43","62ead6a5a69bbf516d0973dc","7jfn1j","GY","50","F","{""name"":""Chrome"",""chrome"":true,""version"":""106.0"",""blink"":true,""windows"":true,""osname"":""Windows"",""osversion"":""10"",""a"":true}","9:17:2","1","3","Test_1","70","f","1","474.5","1280 x 1024","1280 x 881","true","1","10","","","","",""
"null","<p style=""font-size: 80px;"">+ 10 points</p>","null","html-keyboard-response","45","342584","0.0-11.0-2.44","62ead6a5a69bbf516d0973dc","7jfn1j","GY","50","F","{""name"":""Chrome"",""chrome"":true,""version"":""106.0"",""blink"":true,""windows"":true,""osname"":""Windows"",""osversion"":""10"",""a"":true}","9:17:2","1","3","Test_2","74","j","1","994.7999999998137","1280 x 1024","1280 x 881","true","1","10","","","","",""
"null","<p style=""font-size: 80px;"">+ 10 points</p>","null","html-keyboard-response","46","345641","0.0-11.0-2.45","62ead6a5a69bbf516d0973dc","7jfn1j","GY","50","F","{""name"":""Chrome"",""chrome"":true,""version"":""106.0"",""blink"":true,""windows"":true,""osname"":""Windows"",""osversion"":""10"",""a"":true}","9:17:2","1","3","Test_2","74","j","1","1050.7000000001863","1280 x 1024","1280 x 881","true","1","10","","","","",""
"null","<p style=""font-size: 80px;"">+ 10 points</p>","null","html-keyboard-response","47","348352","0.0-11.0-2.46","62ead6a5a69bbf516d0973dc","7jfn1j","GY","50","F","{""name"":""Chrome"",""chrome"":true,""version"":""106.0"",""blink"":true,""windows"":true,""osname"":""Windows"",""osversion"":""10"",""a"":true}","9:17:2","1","3","Test_3","70","f","1","683.9000000003725","1280 x 1024","1280 x 881","true","1","10","","","","",""
"null","<p style=""font-size: 80px;"">+ 10 points</p>","null","html-keyboard-response","48","351097","0.0-11.0-2.47","62ead6a5a69bbf516d0973dc","7jfn1j","GY","50","F","{""name"":""Chrome"",""chrome"":true,""version"":""106.0"",""blink"":true,""windows"":true,""osname"":""Windows"",""osversion"":""10"",""a"":true}","9:17:2","1","3","Test_1","70","f","1","719.2999999998137","1280 x 1024","1280 x 881","true","1","10","","","","",""
"null","<p style=""font-size: 80px;"">+ 10 points</p>","null","html-keyboard-response","49","354284","0.0-11.0-2.48","62ead6a5a69bbf516d0973dc","7jfn1j","GY","50","F","{""name"":""Chrome"",""chrome"":true,""version"":""106.0"",""blink"":true,""windows"":true,""osname"":""Windows"",""osversion"":""10"",""a"":true}","9:17:2","1","3","Test_3","70","f","1","1168.3999999994412","1280 x 1024","1280 x 881","true","1","10","","","","",""
"null","<p style=""font-size: 80px;"">+ 10 points</p>","null","html-keyboard-response","50","357494","0.0-11.0-2.49","62ead6a5a69bbf516d0973dc","7jfn1j","GY","50","F","{""name"":""Chrome"",""chrome"":true,""version"":""106.0"",""blink"":true,""windows"":true,""osname"":""Windows"",""osversion"":""10"",""a"":true}","9:17:2","1","3","Test_4","74","j","1","1198.5","1280 x 1024","1280 x 881","true","1","10","","","","",""
"null","<p style=""font-size: 80px;"">+ 10 points</p>","null","html-keyboard-response","51","360573","0.0-11.0-2.50","62ead6a5a69bbf516d0973dc","7jfn1j","GY","50","F","{""name"":""Chrome"",""chrome"":true,""version"":""106.0"",""blink"":true,""windows"":true,""osname"":""Windows"",""osversion"":""10"",""a"":true}","9:17:2","1","3","Test_4","74","j","1","1059.6000000005588","1280 x 1024","1280 x 881","true","1","10","","","","",""
"null","<p style=""font-size: 80px;"">+ 10 points</p>","null","html-keyboard-response","52","363198","0.0-11.0-2.51","62ead6a5a69bbf516d0973dc","7jfn1j","GY","50","F","{""name"":""Chrome"",""chrome"":true,""version"":""106.0"",""blink"":true,""windows"":true,""osname"":""Windows"",""osversion"":""10"",""a"":true}","9:17:2","1","3","Test_1","70","f","1","601.3000000007451","1280 x 1024","1280 x 881","true","1","10","","","","",""
"null","<p style=""font-size: 80px;"">+ 10 points</p>","null","html-keyboard-response","53","365813","0.0-11.0-2.52","62ead6a5a69bbf516d0973dc","7jfn1j","GY","50","F","{""name"":""Chrome"",""chrome"":true,""version"":""106.0"",""blink"":true,""windows"":true,""osname"":""Windows"",""osversion"":""10"",""a"":true}","9:17:2","1","3","Test_3","70","f","1","602.3999999994412","1280 x 1024","1280 x 881","true","1","10","","","","",""
"null","<p style=""font-size: 80px;"">+ 10 points</p>","null","html-keyboard-response","54","368454","0.0-11.0-2.53","62ead6a5a69bbf516d0973dc","7jfn1j","GY","50","F","{""name"":""Chrome"",""chrome"":true,""version"":""106.0"",""blink"":true,""windows"":true,""osname"":""Windows"",""osversion"":""10"",""a"":true}","9:17:2","1","3","Test_3","70","f","1","630.0999999996275","1280 x 1024","1280 x 881","true","1","10","","","","",""
"null","<p style=""font-size: 80px;"">+ 0 points</p>","null","html-keyboard-response","55","371144","0.0-11.0-2.54","62ead6a5a69bbf516d0973dc","7jfn1j","GY","50","F","{""name"":""Chrome"",""chrome"":true,""version"":""106.0"",""blink"":true,""windows"":true,""osname"":""Windows"",""osversion"":""10"",""a"":true}","9:17:2","1","3","Test_2","70","j","0","673.7999999998137","1280 x 1024","1280 x 881","true","1","0","","","","",""
"null","<p style=""font-size: 80px;"">+ 10 points</p>","null","html-keyboard-response","56","375515","0.0-11.0-2.55","62ead6a5a69bbf516d0973dc","7jfn1j","GY","50","F","{""name"":""Chrome"",""chrome"":true,""version"":""106.0"",""blink"":true,""windows"":true,""osname"":""Windows"",""osversion"":""10"",""a"":true}","9:17:2","1","3","Test_1","70","f","1","2353.7999999998137","1280 x 1024","1280 x 881","true","1","10","","","","",""
"null","<p style=""font-size: 80px;"">+ 10 points</p>","null","html-keyboard-response","57","378505","0.0-11.0-2.56","62ead6a5a69bbf516d0973dc","7jfn1j","GY","50","F","{""name"":""Chrome"",""chrome"":true,""version"":""106.0"",""blink"":true,""windows"":true,""osname"":""Windows"",""osversion"":""10"",""a"":true}","9:17:2","1","3","Test_4","74","j","1","975.6000000005588","1280 x 1024","1280 x 881","true","1","10","","","","",""
"null","<p style=""font-size: 80px;"">+ 0 points</p>","null","html-keyboard-response","58","381601","0.0-11.0-2.57","62ead6a5a69bbf516d0973dc","7jfn1j","GY","50","F","{""name"":""Chrome"",""chrome"":true,""version"":""106.0"",""blink"":true,""windows"":true,""osname"":""Windows"",""osversion"":""10"",""a"":true}","9:17:2","1","4","Test_2","74","f","0","1076.5999999996275","1280 x 1024","1280 x 881","true","1","0","","","","",""
"null","<p style=""font-size: 80px;"">+ 10 points</p>","null","html-keyboard-response","59","384388","0.0-11.0-2.58","62ead6a5a69bbf516d0973dc","7jfn1j","GY","50","F","{""name"":""Chrome"",""chrome"":true,""version"":""106.0"",""blink"":true,""windows"":true,""osname"":""Windows"",""osversion"":""10"",""a"":true}","9:17:2","1","4","Test_1","74","j","1","755.7000000001863","1280 x 1024","1280 x 881","true","1","10","","","","",""
"null","<p style=""font-size: 80px;"">+ 10 points</p>","null","html-keyboard-response","60","387000","0.0-11.0-2.59","62ead6a5a69bbf516d0973dc","7jfn1j","GY","50","F","{""name"":""Chrome"",""chrome"":true,""version"":""106.0"",""blink"":true,""windows"":true,""osname"":""Windows"",""osversion"":""10"",""a"":true}","9:17:2","1","4","Test_2","70","f","1","578.5","1280 x 1024","1280 x 881","true","1","10","","","","",""
"null","<p style=""font-size: 80px;"">+ 10 points</p>","null","html-keyboard-response","61","391821","0.0-11.0-2.60","62ead6a5a69bbf516d0973dc","7jfn1j","GY","50","F","{""name"":""Chrome"",""chrome"":true,""version"":""106.0"",""blink"":true,""windows"":true,""osname"":""Windows"",""osversion"":""10"",""a"":true}","9:17:2","1","4","Test_3","74","j","1","2797.5999999996275","1280 x 1024","1280 x 881","true","1","10","","","","",""
"null","<p style=""font-size: 80px;"">+ 10 points</p>","null","html-keyboard-response","62","394757","0.0-11.0-2.61","62ead6a5a69bbf516d0973dc","7jfn1j","GY","50","F","{""name"":""Chrome"",""chrome"":true,""version"":""106.0"",""blink"":true,""windows"":true,""osname"":""Windows"",""osversion"":""10"",""a"":true}","9:17:2","1","4","Test_3","74","j","1","926.2999999998137","1280 x 1024","1280 x 881","true","1","10","","","","",""
"null","<p style=""font-size: 80px;"">+ 10 points</p>","null","html-keyboard-response","63","397937","0.0-11.0-2.62","62ead6a5a69bbf516d0973dc","7jfn1j","GY","50","F","{""name"":""Chrome"",""chrome"":true,""version"":""106.0"",""blink"":true,""windows"":true,""osname"":""Windows"",""osversion"":""10"",""a"":true}","9:17:2","1","4","Test_4","70","f","1","1160.3999999994412","1280 x 1024","1280 x 881","true","1","10","","","","",""
"null","<p style=""font-size: 80px;"">+ 10 points</p>","null","html-keyboard-response","64","401886","0.0-11.0-2.63","62ead6a5a69bbf516d0973dc","7jfn1j","GY","50","F","{""name"":""Chrome"",""chrome"":true,""version"":""106.0"",""blink"":true,""windows"":true,""osname"":""Windows"",""osversion"":""10"",""a"":true}","9:17:2","1","4","Test_3","74","j","1","1936.9000000003725","1280 x 1024","1280 x 881","true","1","10","","","","",""
"null","<p style=""font-size: 80px;"">+ 10 points</p>","null","html-keyboard-response","65","405285","0.0-11.0-2.64","62ead6a5a69bbf516d0973dc","7jfn1j","GY","50","F","{""name"":""Chrome"",""chrome"":true,""version"":""106.0"",""blink"":true,""windows"":true,""osname"":""Windows"",""osversion"":""10"",""a"":true}","9:17:2","1","4","Test_2","70","f","1","1371.2999999998137","1280 x 1024","1280 x 881","true","1","10","","","","",""
"null","<p style=""font-size: 80px;"">+ 10 points</p>","null","html-keyboard-response","66","408321","0.0-11.0-2.65","62ead6a5a69bbf516d0973dc","7jfn1j","GY","50","F","{""name"":""Chrome"",""chrome"":true,""version"":""106.0"",""blink"":true,""windows"":true,""osname"":""Windows"",""osversion"":""10"",""a"":true}","9:17:2","1","4","Test_3","74","j","1","1016","1280 x 1024","1280 x 881","true","1","10","","","","",""
"null","<p style=""font-size: 80px;"">+ 10 points</p>","null","html-keyboard-response","67","411881","0.0-11.0-2.66","62ead6a5a69bbf516d0973dc","7jfn1j","GY","50","F","{""name"":""Chrome"",""chrome"":true,""version"":""106.0"",""blink"":true,""windows"":true,""osname"":""Windows"",""osversion"":""10"",""a"":true}","9:17:2","1","4","Test_1","74","j","1","1541.1000000005588","1280 x 1024","1280 x 881","true","1","10","","","","",""
"null","<p style=""font-size: 80px;"">+ 10 points</p>","null","html-keyboard-response","68","415585","0.0-11.0-2.67","62ead6a5a69bbf516d0973dc","7jfn1j","GY","50","F","{""name"":""Chrome"",""chrome"":true,""version"":""106.0"",""blink"":true,""windows"":true,""osname"":""Windows"",""osversion"":""10"",""a"":true}","9:17:2","1","4","Test_3","74","j","1","1684.7999999998137","1280 x 1024","1280 x 881","true","1","10","","","","",""
"null","<p style=""font-size: 80px;"">+ 0 points</p>","null","html-keyboard-response","69","418230","0.0-11.0-2.68","62ead6a5a69bbf516d0973dc","7jfn1j","GY","50","F","{""name"":""Chrome"",""chrome"":true,""version"":""106.0"",""blink"":true,""windows"":true,""osname"":""Windows"",""osversion"":""10"",""a"":true}","9:17:2","1","4","Test_1","70","j","0","632.0999999996275","1280 x 1024","1280 x 881","true","1","0","","","","",""
"null","<p style=""font-size: 80px;"">+ 10 points</p>","null","html-keyboard-response","70","421080","0.0-11.0-2.69","62ead6a5a69bbf516d0973dc","7jfn1j","GY","50","F","{""name"":""Chrome"",""chrome"":true,""version"":""106.0"",""blink"":true,""windows"":true,""osname"":""Windows"",""osversion"":""10"",""a"":true}","9:17:2","1","4","Test_4","70","f","1","824.4000000003725","1280 x 1024","1280 x 881","true","1","10","","","","",""
"null","<p style=""font-size: 80px;"">+ 10 points</p>","null","html-keyboard-response","71","424281","0.0-11.0-2.70","62ead6a5a69bbf516d0973dc","7jfn1j","GY","50","F","{""name"":""Chrome"",""chrome"":true,""version"":""106.0"",""blink"":true,""windows"":true,""osname"":""Windows"",""osversion"":""10"",""a"":true}","9:17:2","1","4","Test_2","70","f","1","1193.5","1280 x 1024","1280 x 881","true","1","10","","","","",""
"null","<p style=""font-size: 80px;"">+ 10 points</p>","null","html-keyboard-response","72","427348","0.0-11.0-2.71","62ead6a5a69bbf516d0973dc","7jfn1j","GY","50","F","{""name"":""Chrome"",""chrome"":true,""version"":""106.0"",""blink"":true,""windows"":true,""osname"":""Windows"",""osversion"":""10"",""a"":true}","9:17:2","1","4","Test_4","70","f","1","1047.199999999255","1280 x 1024","1280 x 881","true","1","10","","","","",""
"null","<p style=""font-size: 80px;"">+ 10 points</p>","null","html-keyboard-response","73","431729","0.0-11.0-2.72","62ead6a5a69bbf516d0973dc","7jfn1j","GY","50","F","{""name"":""Chrome"",""chrome"":true,""version"":""106.0"",""blink"":true,""windows"":true,""osname"":""Windows"",""osversion"":""10"",""a"":true}","9:17:2","1","4","Test_4","70","f","1","2367.399999999441","1280 x 1024","1280 x 881","true","1","10","","","","",""
"null","<p style=""font-size: 80px;"">+ 10 points</p>","null","html-keyboard-response","74","434915","0.0-11.0-2.73","62ead6a5a69bbf516d0973dc","7jfn1j","GY","50","F","{""name"":""Chrome"",""chrome"":true,""version"":""106.0"",""blink"":true,""windows"":true,""osname"":""Windows"",""osversion"":""10"",""a"":true}","9:17:2","1","4","Test_2","70","f","1","1156.7000000001863","1280 x 1024","1280 x 881","true","1","10","","","","",""
"null","<p style=""font-size: 80px;"">+ 0 points</p>","null","html-keyboard-response","75","437795","0.0-11.0-2.74","62ead6a5a69bbf516d0973dc","7jfn1j","GY","50","F","{""name"":""Chrome"",""chrome"":true,""version"":""106.0"",""blink"":true,""windows"":true,""osname"":""Windows"",""osversion"":""10"",""a"":true}","9:17:2","1","3","Test_2","70","j","0","860.2000000001863","1280 x 1024","1280 x 881","true","1","0","","","","",""
"null","<p style=""font-size: 80px;"">+ 0 points</p>","null","html-keyboard-response","76","442110","0.0-11.0-2.75","62ead6a5a69bbf516d0973dc","7jfn1j","GY","50","F","{""name"":""Chrome"",""chrome"":true,""version"":""106.0"",""blink"":true,""windows"":true,""osname"":""Windows"",""osversion"":""10"",""a"":true}","9:17:2","1","3","Test_4","70","j","0","2291.9000000003725","1280 x 1024","1280 x 881","true","1","0","","","","",""
"null","<p style=""font-size: 80px;"">+ 10 points</p>","null","html-keyboard-response","77","444596","0.0-11.0-2.76","62ead6a5a69bbf516d0973dc","7jfn1j","GY","50","F","{""name"":""Chrome"",""chrome"":true,""version"":""106.0"",""blink"":true,""windows"":true,""osname"":""Windows"",""osversion"":""10"",""a"":true}","9:17:2","1","3","Test_1","70","f","1","464.5","1280 x 1024","1280 x 881","true","1","10","","","","",""
"null","<p style=""font-size: 80px;"">+ 10 points</p>","null","html-keyboard-response","78","447497","0.0-11.0-2.77","62ead6a5a69bbf516d0973dc","7jfn1j","GY","50","F","{""name"":""Chrome"",""chrome"":true,""version"":""106.0"",""blink"":true,""windows"":true,""osname"":""Windows"",""osversion"":""10"",""a"":true}","9:17:2","1","3","Test_1","70","f","1","893.3000000007451","1280 x 1024","1280 x 881","true","1","10","","","","",""
"null","<p style=""font-size: 80px;"">+ 10 points</p>","null","html-keyboard-response","79","450242","0.0-11.0-2.78","62ead6a5a69bbf516d0973dc","7jfn1j","GY","50","F","{""name"":""Chrome"",""chrome"":true,""version"":""106.0"",""blink"":true,""windows"":true,""osname"":""Windows"",""osversion"":""10"",""a"":true}","9:17:2","1","3","Test_2","74","j","1","726.2999999998137","1280 x 1024","1280 x 881","true","1","10","","","","",""
"null","<p style=""font-size: 80px;"">+ 10 points</p>","null","html-keyboard-response","80","452913","0.0-11.0-2.79","62ead6a5a69bbf516d0973dc","7jfn1j","GY","50","F","{""name"":""Chrome"",""chrome"":true,""version"":""106.0"",""blink"":true,""windows"":true,""osname"":""Windows"",""osversion"":""10"",""a"":true}","9:17:2","1","3","Test_2","74","j","1","642.1999999992549","1280 x 1024","1280 x 881","true","1","10","","","","",""
"null","<p style=""font-size: 80px;"">+ 10 points</p>","null","html-keyboard-response","81","456037","0.0-11.0-2.80","62ead6a5a69bbf516d0973dc","7jfn1j","GY","50","F","{""name"":""Chrome"",""chrome"":true,""version"":""106.0"",""blink"":true,""windows"":true,""osname"":""Windows"",""osversion"":""10"",""a"":true}","9:17:2","1","3","Test_3","70","f","1","1113","1280 x 1024","1280 x 881","true","1","10","","","","",""
"null","<p style=""font-size: 80px;"">+ 10 points</p>","null","html-keyboard-response","82","458959","0.0-11.0-2.81","62ead6a5a69bbf516d0973dc","7jfn1j","GY","50","F","{""name"":""Chrome"",""chrome"":true,""version"":""106.0"",""blink"":true,""windows"":true,""osname"":""Windows"",""osversion"":""10"",""a"":true}","9:17:2","1","3","Test_3","70","f","1","906.5","1280 x 1024","1280 x 881","true","1","10","","","","",""
"null","<p style=""font-size: 80px;"">+ 10 points</p>","null","html-keyboard-response","83","461802","0.0-11.0-2.82","62ead6a5a69bbf516d0973dc","7jfn1j","GY","50","F","{""name"":""Chrome"",""chrome"":true,""version"":""106.0"",""blink"":true,""windows"":true,""osname"":""Windows"",""osversion"":""10"",""a"":true}","9:17:2","1","3","Test_1","70","f","1","823.6000000005588","1280 x 1024","1280 x 881","true","1","10","","","","",""
"null","<p style=""font-size: 80px;"">+ 10 points</p>","null","html-keyboard-response","84","464856","0.0-11.0-2.83","62ead6a5a69bbf516d0973dc","7jfn1j","GY","50","F","{""name"":""Chrome"",""chrome"":true,""version"":""106.0"",""blink"":true,""windows"":true,""osname"":""Windows"",""osversion"":""10"",""a"":true}","9:17:2","1","3","Test_4","74","j","1","1037.5","1280 x 1024","1280 x 881","true","1","10","","","","",""
"null","<p style=""font-size: 80px;"">+ 10 points</p>","null","html-keyboard-response","85","467642","0.0-11.0-2.84","62ead6a5a69bbf516d0973dc","7jfn1j","GY","50","F","{""name"":""Chrome"",""chrome"":true,""version"":""106.0"",""blink"":true,""windows"":true,""osname"":""Windows"",""osversion"":""10"",""a"":true}","9:17:2","1","3","Test_3","70","f","1","773.7999999998137","1280 x 1024","1280 x 881","true","1","10","","","","",""
"null","<p style=""font-size: 80px;"">+ 0 points</p>","null","html-keyboard-response","86","470415","0.0-11.0-2.85","62ead6a5a69bbf516d0973dc","7jfn1j","GY","50","F","{""name"":""Chrome"",""chrome"":true,""version"":""106.0"",""blink"":true,""windows"":true,""osname"":""Windows"",""osversion"":""10"",""a"":true}","9:17:2","1","3","Test_2","70","j","0","738.4000000003725","1280 x 1024","1280 x 881","true","1","0","","","","",""
"null","<p style=""font-size: 80px;"">+ 10 points</p>","null","html-keyboard-response","87","473187","0.0-11.0-2.86","62ead6a5a69bbf516d0973dc","7jfn1j","GY","50","F","{""name"":""Chrome"",""chrome"":true,""version"":""106.0"",""blink"":true,""windows"":true,""osname"":""Windows"",""osversion"":""10"",""a"":true}","9:17:2","1","3","Test_3","70","f","1","760.1000000005588","1280 x 1024","1280 x 881","true","1","10","","","","",""
"null","<p style=""font-size: 80px;"">+ 10 points</p>","null","html-keyboard-response","88","476570","0.0-11.0-2.87","62ead6a5a69bbf516d0973dc","7jfn1j","GY","50","F","{""name"":""Chrome"",""chrome"":true,""version"":""106.0"",""blink"":true,""windows"":true,""osname"":""Windows"",""osversion"":""10"",""a"":true}","9:17:2","1","3","Test_4","74","j","1","1375.2999999998137","1280 x 1024","1280 x 881","true","1","10","","","","",""
"null","<p style=""font-size: 80px;"">+ 10 points</p>","null","html-keyboard-response","89","480024","0.0-11.0-2.88","62ead6a5a69bbf516d0973dc","7jfn1j","GY","50","F","{""name"":""Chrome"",""chrome"":true,""version"":""106.0"",""blink"":true,""windows"":true,""osname"":""Windows"",""osversion"":""10"",""a"":true}","9:17:2","1","3","Test_4","74","j","1","1434.6000000005588","1280 x 1024","1280 x 881","true","1","10","","","","",""
"null","<p style=""font-size: 80px;"">+ 0 points</p>","null","html-keyboard-response","90","483139","0.0-11.0-2.89","62ead6a5a69bbf516d0973dc","7jfn1j","GY","50","F","{""name"":""Chrome"",""chrome"":true,""version"":""106.0"",""blink"":true,""windows"":true,""osname"":""Windows"",""osversion"":""10"",""a"":true}","9:17:2","1","4","Test_4","74","f","0","1093.5","1280 x 1024","1280 x 881","true","1","0","","","","",""
"null","<p style=""font-size: 80px;"">+ 10 points</p>","null","html-keyboard-response","91","487096","0.0-11.0-2.90","62ead6a5a69bbf516d0973dc","7jfn1j","GY","50","F","{""name"":""Chrome"",""chrome"":true,""version"":""106.0"",""blink"":true,""windows"":true,""osname"":""Windows"",""osversion"":""10"",""a"":true}","9:17:2","1","4","Test_3","74","j","1","1947.6000000005588","1280 x 1024","1280 x 881","true","1","10","","","","",""
"null","<p style=""font-size: 80px;"">+ 10 points</p>","null","html-keyboard-response","92","489692","0.0-11.0-2.91","62ead6a5a69bbf516d0973dc","7jfn1j","GY","50","F","{""name"":""Chrome"",""chrome"":true,""version"":""106.0"",""blink"":true,""windows"":true,""osname"":""Windows"",""osversion"":""10"",""a"":true}","9:17:2","1","4","Test_4","70","f","1","581.3999999994412","1280 x 1024","1280 x 881","true","1","10","","","","",""
"null","<p style=""font-size: 80px;"">+ 10 points</p>","null","html-keyboard-response","93","493022","0.0-11.0-2.92","62ead6a5a69bbf516d0973dc","7jfn1j","GY","50","F","{""name"":""Chrome"",""chrome"":true,""version"":""106.0"",""blink"":true,""windows"":true,""osname"":""Windows"",""osversion"":""10"",""a"":true}","9:17:2","1","4","Test_3","74","j","1","1317.199999999255","1280 x 1024","1280 x 881","true","1","10","","","","",""
"null","<p style=""font-size: 80px;"">+ 0 points</p>","null","html-keyboard-response","94","496396","0.0-11.0-2.93","62ead6a5a69bbf516d0973dc","7jfn1j","GY","50","F","{""name"":""Chrome"",""chrome"":true,""version"":""106.0"",""blink"":true,""windows"":true,""osname"":""Windows"",""osversion"":""10"",""a"":true}","9:17:2","1","4","Test_2","74","f","0","1365.7999999998137","1280 x 1024","1280 x 881","true","1","0","","","","",""
"null","<p style=""font-size: 80px;"">+ 10 points</p>","null","html-keyboard-response","95","500554","0.0-11.0-2.94","62ead6a5a69bbf516d0973dc","7jfn1j","GY","50","F","{""name"":""Chrome"",""chrome"":true,""version"":""106.0"",""blink"":true,""windows"":true,""osname"":""Windows"",""osversion"":""10"",""a"":true}","9:17:2","1","4","Test_1","74","j","1","2146.2000000001863","1280 x 1024","1280 x 881","true","1","10","","","","",""
"null","<p style=""font-size: 80px;"">+ 10 points</p>","null","html-keyboard-response","96","503257","0.0-11.0-2.95","62ead6a5a69bbf516d0973dc","7jfn1j","GY","50","F","{""name"":""Chrome"",""chrome"":true,""version"":""106.0"",""blink"":true,""windows"":true,""osname"":""Windows"",""osversion"":""10"",""a"":true}","9:17:2","1","4","Test_2","70","f","1","691.8999999994412","1280 x 1024","1280 x 881","true","1","10","","","","",""
"null","<p style=""font-size: 80px;"">+ 10 points</p>","null","html-keyboard-response","97","506235","0.0-11.0-2.96","62ead6a5a69bbf516d0973dc","7jfn1j","GY","50","F","{""name"":""Chrome"",""chrome"":true,""version"":""106.0"",""blink"":true,""windows"":true,""osname"":""Windows"",""osversion"":""10"",""a"":true}","9:17:2","1","4","Test_2","70","f","1","968.7999999998137","1280 x 1024","1280 x 881","true","1","10","","","","",""
"null","<p style=""font-size: 80px;"">+ 10 points</p>","null","html-keyboard-response","98","509593","0.0-11.0-2.97","62ead6a5a69bbf516d0973dc","7jfn1j","GY","50","F","{""name"":""Chrome"",""chrome"":true,""version"":""106.0"",""blink"":true,""windows"":true,""osname"":""Windows"",""osversion"":""10"",""a"":true}","9:17:2","1","4","Test_1","74","j","1","1338.5999999996275","1280 x 1024","1280 x 881","true","1","10","","","","",""
"null","<p style=""font-size: 80px;"">+ 10 points</p>","null","html-keyboard-response","99","512877","0.0-11.0-2.98","62ead6a5a69bbf516d0973dc","7jfn1j","GY","50","F","{""name"":""Chrome"",""chrome"":true,""version"":""106.0"",""blink"":true,""windows"":true,""osname"":""Windows"",""osversion"":""10"",""a"":true}","9:17:2","1","4","Test_3","74","j","1","1264.2999999998137","1280 x 1024","1280 x 881","true","1","10","","","","",""
"null","<p style=""font-size: 80px;"">+ 10 points</p>","null","html-keyboard-response","100","516654","0.0-11.0-2.99","62ead6a5a69bbf516d0973dc","7jfn1j","GY","50","F","{""name"":""Chrome"",""chrome"":true,""version"":""106.0"",""blink"":true,""windows"":true,""osname"":""Windows"",""osversion"":""10"",""a"":true}","9:17:2","1","4","Test_4","70","f","1","1764.7999999998137","1280 x 1024","1280 x 881","true","1","10","","","","",""
"null","<p style=""font-size: 80px;"">+ 10 points</p>","null","html-keyboard-response","101","519911","0.0-11.0-2.100","62ead6a5a69bbf516d0973dc","7jfn1j","GY","50","F","{""name"":""Chrome"",""chrome"":true,""version"":""106.0"",""blink"":true,""windows"":true,""osname"":""Windows"",""osversion"":""10"",""a"":true}","9:17:2","1","4","Test_2","70","f","1","1242.5","1280 x 1024","1280 x 881","true","1","10","","","","",""
"null","<p style=""font-size: 80px;"">+ 10 points</p>","null","html-keyboard-response","102","522998","0.0-11.0-2.101","62ead6a5a69bbf516d0973dc","7jfn1j","GY","50","F","{""name"":""Chrome"",""chrome"":true,""version"":""106.0"",""blink"":true,""windows"":true,""osname"":""Windows"",""osversion"":""10"",""a"":true}","9:17:2","1","4","Test_1","74","j","1","1066.7000000001863","1280 x 1024","1280 x 881","true","1","10","","","","",""
"null","<p style=""font-size: 80px;"">+ 10 points</p>","null","html-keyboard-response","103","525780","0.0-11.0-2.102","62ead6a5a69bbf516d0973dc","7jfn1j","GY","50","F","{""name"":""Chrome"",""chrome"":true,""version"":""106.0"",""blink"":true,""windows"":true,""osname"":""Windows"",""osversion"":""10"",""a"":true}","9:17:2","1","4","Test_3","74","j","1","764.3000000007451","1280 x 1024","1280 x 881","true","1","10","","","","",""
"null","<p style=""font-size: 80px;"">+ 10 points</p>","null","html-keyboard-response","104","528783","0.0-11.0-2.103","62ead6a5a69bbf516d0973dc","7jfn1j","GY","50","F","{""name"":""Chrome"",""chrome"":true,""version"":""106.0"",""blink"":true,""windows"":true,""osname"":""Windows"",""osversion"":""10"",""a"":true}","9:17:2","1","4","Test_3","74","j","1","980.2999999998137","1280 x 1024","1280 x 881","true","1","10","","","","",""
"null","<p style=""font-size: 80px;"">+ 10 points</p>","null","html-keyboard-response","105","531717","0.0-11.0-2.104","62ead6a5a69bbf516d0973dc","7jfn1j","GY","50","F","{""name"":""Chrome"",""chrome"":true,""version"":""106.0"",""blink"":true,""windows"":true,""osname"":""Windows"",""osversion"":""10"",""a"":true}","9:17:2","1","4","Test_4","70","f","1","917.2000000001863","1280 x 1024","1280 x 881","true","1","10","","","","",""
"null","<p style=""font-size: 80px;"">+ 0 points</p>","null","html-keyboard-response","106","534336","0.0-11.0-2.105","62ead6a5a69bbf516d0973dc","7jfn1j","GY","50","F","{""name"":""Chrome"",""chrome"":true,""version"":""106.0"",""blink"":true,""windows"":true,""osname"":""Windows"",""osversion"":""10"",""a"":true}","9:17:2","1","4","Test_1","70","j","0","604.0999999996275","1280 x 1024","1280 x 881","true","1","0","","","","",""
"null","<p style=""font-size: 80px;"">+ 10 points</p>","null","html-keyboard-response","107","537853","0.0-11.0-2.106","62ead6a5a69bbf516d0973dc","7jfn1j","GY","50","F","{""name"":""Chrome"",""chrome"":true,""version"":""106.0"",""blink"":true,""windows"":true,""osname"":""Windows"",""osversion"":""10"",""a"":true}","9:17:2","1","4","Test_2","70","f","1","1505.2999999998137","1280 x 1024","1280 x 881","true","1","10","","","","",""
"null","<p style=""font-size: 80px;"">+ 10 points</p>","null","html-keyboard-response","108","540664","0.0-11.0-2.107","62ead6a5a69bbf516d0973dc","7jfn1j","GY","50","F","{""name"":""Chrome"",""chrome"":true,""version"":""106.0"",""blink"":true,""windows"":true,""osname"":""Windows"",""osversion"":""10"",""a"":true}","9:17:2","1","4","Test_1","74","j","1","797.5999999996275","1280 x 1024","1280 x 881","true","1","10","","","","",""
"null","<p style=""font-size: 80px;"">+ 10 points</p>","null","html-keyboard-response","109","544463","0.0-11.0-2.108","62ead6a5a69bbf516d0973dc","7jfn1j","GY","50","F","{""name"":""Chrome"",""chrome"":true,""version"":""106.0"",""blink"":true,""windows"":true,""osname"":""Windows"",""osversion"":""10"",""a"":true}","9:17:2","1","4","Test_1","74","j","1","1786.5999999996275","1280 x 1024","1280 x 881","true","1","10","","","","",""
"null","<p style=""font-size: 80px;"">+ 10 points</p>","null","html-keyboard-response","110","566797","0.0-11.0-2.109","62ead6a5a69bbf516d0973dc","7jfn1j","GY","50","F","{""name"":""Chrome"",""chrome"":true,""version"":""106.0"",""blink"":true,""windows"":true,""osname"":""Windows"",""osversion"":""10"",""a"":true}","9:17:2","1","4","Test_3","74","j","1","3180.2999999998137","1280 x 1024","1280 x 881","true","1","10","","","","",""
"null","<p style=""font-size: 80px;"">+ 10 points</p>","null","html-keyboard-response","111","569610","0.0-11.0-2.110","62ead6a5a69bbf516d0973dc","7jfn1j","GY","50","F","{""name"":""Chrome"",""chrome"":true,""version"":""106.0"",""blink"":true,""windows"":true,""osname"":""Windows"",""osversion"":""10"",""a"":true}","9:17:2","1","4","Test_4","70","f","1","795.5","1280 x 1024","1280 x 881","true","1","10","","","","",""
"null","<p style=""font-size: 80px;"">+ 10 points</p>","null","html-keyboard-response","112","573923","0.0-11.0-2.111","62ead6a5a69bbf516d0973dc","7jfn1j","GY","50","F","{""name"":""Chrome"",""chrome"":true,""version"":""106.0"",""blink"":true,""windows"":true,""osname"":""Windows"",""osversion"":""10"",""a"":true}","9:17:2","1","4","Test_4","70","f","1","2294.399999999441","1280 x 1024","1280 x 881","true","1","10","","","","",""
"null","<p style=""font-size: 80px;"">+ 0 points</p>","null","html-keyboard-response","113","576940","0.0-11.0-2.112","62ead6a5a69bbf516d0973dc","7jfn1j","GY","50","F","{""name"":""Chrome"",""chrome"":true,""version"":""106.0"",""blink"":true,""windows"":true,""osname"":""Windows"",""osversion"":""10"",""a"":true}","9:17:2","1","3","Test_4","70","j","0","1007.7000000001863","1280 x 1024","1280 x 881","true","1","0","","","","",""
"null","<p style=""font-size: 80px;"">+ 10 points</p>","null","html-keyboard-response","114","579725","0.0-11.0-2.113","62ead6a5a69bbf516d0973dc","7jfn1j","GY","50","F","{""name"":""Chrome"",""chrome"":true,""version"":""106.0"",""blink"":true,""windows"":true,""osname"":""Windows"",""osversion"":""10"",""a"":true}","9:17:2","1","3","Test_4","74","j","1","766.5999999996275","1280 x 1024","1280 x 881","true","1","10","","","","",""
"null","<p style=""font-size: 80px;"">+ 10 points</p>","null","html-keyboard-response","115","582783","0.0-11.0-2.114","62ead6a5a69bbf516d0973dc","7jfn1j","GY","50","F","{""name"":""Chrome"",""chrome"":true,""version"":""106.0"",""blink"":true,""windows"":true,""osname"":""Windows"",""osversion"":""10"",""a"":true}","9:17:2","1","3","Test_2","74","j","1","1036.5","1280 x 1024","1280 x 881","true","1","10","","","","",""
"null","<p style=""font-size: 80px;"">+ 10 points</p>","null","html-keyboard-response","116","586236","0.0-11.0-2.115","62ead6a5a69bbf516d0973dc","7jfn1j","GY","50","F","{""name"":""Chrome"",""chrome"":true,""version"":""106.0"",""blink"":true,""windows"":true,""osname"":""Windows"",""osversion"":""10"",""a"":true}","9:17:2","1","3","Test_2","74","j","1","1441.7000000001863","1280 x 1024","1280 x 881","true","1","10","","","","",""
"null","<p style=""font-size: 80px;"">+ 10 points</p>","null","html-keyboard-response","117","589258","0.0-11.0-2.116","62ead6a5a69bbf516d0973dc","7jfn1j","GY","50","F","{""name"":""Chrome"",""chrome"":true,""version"":""106.0"",""blink"":true,""windows"":true,""osname"":""Windows"",""osversion"":""10"",""a"":true}","9:17:2","1","3","Test_3","70","f","1","1000.7000000001863","1280 x 1024","1280 x 881","true","1","10","","","","",""
"null","<p style=""font-size: 80px;"">+ 10 points</p>","null","html-keyboard-response","118","592150","0.0-11.0-2.117","62ead6a5a69bbf516d0973dc","7jfn1j","GY","50","F","{""name"":""Chrome"",""chrome"":true,""version"":""106.0"",""blink"":true,""windows"":true,""osname"":""Windows"",""osversion"":""10"",""a"":true}","9:17:2","1","3","Test_3","70","f","1","876.6999999992549","1280 x 1024","1280 x 881","true","1","10","","","","",""
"null","<p style=""font-size: 80px;"">+ 10 points</p>","null","html-keyboard-response","119","595549","0.0-11.0-2.118","62ead6a5a69bbf516d0973dc","7jfn1j","GY","50","F","{""name"":""Chrome"",""chrome"":true,""version"":""106.0"",""blink"":true,""windows"":true,""osname"":""Windows"",""osversion"":""10"",""a"":true}","9:17:2","1","3","Test_2","74","j","1","1380.7000000001863","1280 x 1024","1280 x 881","true","1","10","","","","",""
"null","<p style=""font-size: 80px;"">+ 10 points</p>","null","html-keyboard-response","120","598735","0.0-11.0-2.119","62ead6a5a69bbf516d0973dc","7jfn1j","GY","50","F","{""name"":""Chrome"",""chrome"":true,""version"":""106.0"",""blink"":true,""windows"":true,""osname"":""Windows"",""osversion"":""10"",""a"":true}","9:17:2","1","3","Test_1","70","f","1","1172","1280 x 1024","1280 x 881","true","1","10","","","","",""
"null","<p style=""font-size: 80px;"">+ 10 points</p>","null","html-keyboard-response","121","601762","0.0-11.0-2.120","62ead6a5a69bbf516d0973dc","7jfn1j","GY","50","F","{""name"":""Chrome"",""chrome"":true,""version"":""106.0"",""blink"":true,""windows"":true,""osname"":""Windows"",""osversion"":""10"",""a"":true}","9:17:2","1","3","Test_3","70","f","1","1008.1000000005588","1280 x 1024","1280 x 881","true","1","10","","","","",""
"null","<p style=""font-size: 80px;"">+ 10 points</p>","null","html-keyboard-response","122","604936","0.0-11.0-2.121","62ead6a5a69bbf516d0973dc","7jfn1j","GY","50","F","{""name"":""Chrome"",""chrome"":true,""version"":""106.0"",""blink"":true,""windows"":true,""osname"":""Windows"",""osversion"":""10"",""a"":true}","9:17:2","1","3","Test_1","70","f","1","1152.0999999996275","1280 x 1024","1280 x 881","true","1","10","","","","",""
"null","<p style=""font-size: 80px;"">+ 10 points</p>","null","html-keyboard-response","123","608017","0.0-11.0-2.122","62ead6a5a69bbf516d0973dc","7jfn1j","GY","50","F","{""name"":""Chrome"",""chrome"":true,""version"":""106.0"",""blink"":true,""windows"":true,""osname"":""Windows"",""osversion"":""10"",""a"":true}","9:17:2","1","3","Test_4","74","j","1","1070.0999999996275","1280 x 1024","1280 x 881","true","1","10","","","","",""
"null","<p style=""font-size: 80px;"">+ 10 points</p>","null","html-keyboard-response","124","610837","0.0-11.0-2.123","62ead6a5a69bbf516d0973dc","7jfn1j","GY","50","F","{""name"":""Chrome"",""chrome"":true,""version"":""106.0"",""blink"":true,""windows"":true,""osname"":""Windows"",""osversion"":""10"",""a"":true}","9:17:2","1","3","Test_1","70","f","1","795.2000000001863","1280 x 1024","1280 x 881","true","1","10","","","","",""
"null","<p style=""font-size: 80px;"">+ 10 points</p>","null","html-keyboard-response","125","613578","0.0-11.0-2.124","62ead6a5a69bbf516d0973dc","7jfn1j","GY","50","F","{""name"":""Chrome"",""chrome"":true,""version"":""106.0"",""blink"":true,""windows"":true,""osname"":""Windows"",""osversion"":""10"",""a"":true}","9:17:2","1","3","Test_4","74","j","1","724.4000000003725","1280 x 1024","1280 x 881","true","1","10","","","","",""
"null","<p style=""font-size: 80px;"">+ 10 points</p>","null","html-keyboard-response","126","616437","0.0-11.0-2.125","62ead6a5a69bbf516d0973dc","7jfn1j","GY","50","F","{""name"":""Chrome"",""chrome"":true,""version"":""106.0"",""blink"":true,""windows"":true,""osname"":""Windows"",""osversion"":""10"",""a"":true}","9:17:2","1","3","Test_3","70","f","1","838.6999999992549","1280 x 1024","1280 x 881","true","1","10","","","","",""
"null","<p style=""font-size: 80px;"">+ 0 points</p>","null","html-keyboard-response","127","619100","0.0-11.0-2.126","62ead6a5a69bbf516d0973dc","7jfn1j","GY","50","F","{""name"":""Chrome"",""chrome"":true,""version"":""106.0"",""blink"":true,""windows"":true,""osname"":""Windows"",""osversion"":""10"",""a"":true}","9:17:2","1","3","Test_2","70","j","0","650.8999999994412","1280 x 1024","1280 x 881","true","1","0","","","","",""
"null","<p style=""font-size: 80px;"">+ 10 points</p>","null","html-keyboard-response","128","621789","0.0-11.0-2.127","62ead6a5a69bbf516d0973dc","7jfn1j","GY","50","F","{""name"":""Chrome"",""chrome"":true,""version"":""106.0"",""blink"":true,""windows"":true,""osname"":""Windows"",""osversion"":""10"",""a"":true}","9:17:2","1","3","Test_3","70","f","1","667.7000000001863","1280 x 1024","1280 x 881","true","1","10","","","","",""
"null","<p style=""font-size: 80px;"">+ 10 points</p>","null","html-keyboard-response","129","624981","0.0-11.0-2.128","62ead6a5a69bbf516d0973dc","7jfn1j","GY","50","F","{""name"":""Chrome"",""chrome"":true,""version"":""106.0"",""blink"":true,""windows"":true,""osname"":""Windows"",""osversion"":""10"",""a"":true}","9:17:2","1","3","Test_2","74","j","1","1174.4000000003725","1280 x 1024","1280 x 881","true","1","10","","","","",""
"null","<p style=""font-size: 80px;"">+ 10 points</p>","null","html-keyboard-response","130","628111","0.0-11.0-2.129","62ead6a5a69bbf516d0973dc","7jfn1j","GY","50","F","{""name"":""Chrome"",""chrome"":true,""version"":""106.0"",""blink"":true,""windows"":true,""osname"":""Windows"",""osversion"":""10"",""a"":true}","9:17:2","1","3","Test_4","74","j","1","1106.8999999994412","1280 x 1024","1280 x 881","true","1","10","","","","",""
"null","<p style=""font-size: 80px;"">+ 0 points</p>","null","html-keyboard-response","131","631371","0.0-11.0-2.130","62ead6a5a69bbf516d0973dc","7jfn1j","GY","50","F","{""name"":""Chrome"",""chrome"":true,""version"":""106.0"",""blink"":true,""windows"":true,""osname"":""Windows"",""osversion"":""10"",""a"":true}","9:17:2","1","4","Test_1","70","j","0","1252.5","1280 x 1024","1280 x 881","true","1","0","","","","",""
"null","<p style=""font-size: 80px;"">+ 10 points</p>","null","html-keyboard-response","132","637051","0.0-11.0-2.131","62ead6a5a69bbf516d0973dc","7jfn1j","GY","50","F","{""name"":""Chrome"",""chrome"":true,""version"":""106.0"",""blink"":true,""windows"":true,""osname"":""Windows"",""osversion"":""10"",""a"":true}","9:17:2","1","4","Test_3","74","j","1","3668.5","1280 x 1024","1280 x 881","true","1","10","","","","",""
"null","<p style=""font-size: 80px;"">+ 10 points</p>","null","html-keyboard-response","133","639842","0.0-11.0-2.132","62ead6a5a69bbf516d0973dc","7jfn1j","GY","50","F","{""name"":""Chrome"",""chrome"":true,""version"":""106.0"",""blink"":true,""windows"":true,""osname"":""Windows"",""osversion"":""10"",""a"":true}","9:17:2","1","4","Test_4","70","f","1","775.6000000005588","1280 x 1024","1280 x 881","true","1","10","","","","",""
"null","<p style=""font-size: 80px;"">+ 0 points</p>","null","html-keyboard-response","134","642475","0.0-11.0-2.133","62ead6a5a69bbf516d0973dc","7jfn1j","GY","50","F","{""name"":""Chrome"",""chrome"":true,""version"":""106.0"",""blink"":true,""windows"":true,""osname"":""Windows"",""osversion"":""10"",""a"":true}","9:17:2","1","4","Test_1","70","j","0","618.2999999998137","1280 x 1024","1280 x 881","true","1","0","","","","",""
"null","<p style=""font-size: 80px;"">+ 10 points</p>","null","html-keyboard-response","135","645966","0.0-11.0-2.134","62ead6a5a69bbf516d0973dc","7jfn1j","GY","50","F","{""name"":""Chrome"",""chrome"":true,""version"":""106.0"",""blink"":true,""windows"":true,""osname"":""Windows"",""osversion"":""10"",""a"":true}","9:17:2","1","4","Test_2","70","f","1","1465.7000000001863","1280 x 1024","1280 x 881","true","1","10","","","","",""
"null","<p style=""font-size: 80px;"">+ 10 points</p>","null","html-keyboard-response","136","648773","0.0-11.0-2.135","62ead6a5a69bbf516d0973dc","7jfn1j","GY","50","F","{""name"":""Chrome"",""chrome"":true,""version"":""106.0"",""blink"":true,""windows"":true,""osname"":""Windows"",""osversion"":""10"",""a"":true}","9:17:2","1","4","Test_4","70","f","1","776.7000000001863","1280 x 1024","1280 x 881","true","1","10","","","","",""
"null","<p style=""font-size: 80px;"">+ 0 points</p>","null","html-keyboard-response","137","652281","0.0-11.0-2.136","62ead6a5a69bbf516d0973dc","7jfn1j","GY","50","F","{""name"":""Chrome"",""chrome"":true,""version"":""106.0"",""blink"":true,""windows"":true,""osname"":""Windows"",""osversion"":""10"",""a"":true}","9:17:2","1","4","Test_4","74","f","0","1490.7999999998137","1280 x 1024","1280 x 881","true","1","0","","","","",""
"null","<p style=""font-size: 80px;"">+ 10 points</p>","null","html-keyboard-response","138","655292","0.0-11.0-2.137","62ead6a5a69bbf516d0973dc","7jfn1j","GY","50","F","{""name"":""Chrome"",""chrome"":true,""version"":""106.0"",""blink"":true,""windows"":true,""osname"":""Windows"",""osversion"":""10"",""a"":true}","9:17:2","1","4","Test_2","70","f","1","990.7999999998137","1280 x 1024","1280 x 881","true","1","10","","","","",""
"null","<p style=""font-size: 80px;"">+ 10 points</p>","null","html-keyboard-response","139","658227","0.0-11.0-2.138","62ead6a5a69bbf516d0973dc","7jfn1j","GY","50","F","{""name"":""Chrome"",""chrome"":true,""version"":""106.0"",""blink"":true,""windows"":true,""osname"":""Windows"",""osversion"":""10"",""a"":true}","9:17:2","1","4","Test_1","74","j","1","919.5","1280 x 1024","1280 x 881","true","1","10","","","","",""
"null","<p style=""font-size: 80px;"">+ 10 points</p>","null","html-keyboard-response","140","661096","0.0-11.0-2.139","62ead6a5a69bbf516d0973dc","7jfn1j","GY","50","F","{""name"":""Chrome"",""chrome"":true,""version"":""106.0"",""blink"":true,""windows"":true,""osname"":""Windows"",""osversion"":""10"",""a"":true}","9:17:2","1","4","Test_2","70","f","1","854.1999999992549","1280 x 1024","1280 x 881","true","1","10","","","","",""
"null","<p style=""font-size: 80px;"">+ 10 points</p>","null","html-keyboard-response","141","663882","0.0-11.0-2.140","62ead6a5a69bbf516d0973dc","7jfn1j","GY","50","F","{""name"":""Chrome"",""chrome"":true,""version"":""106.0"",""blink"":true,""windows"":true,""osname"":""Windows"",""osversion"":""10"",""a"":true}","9:17:2","1","4","Test_4","70","f","1","755.1000000005588","1280 x 1024","1280 x 881","true","1","10","","","","",""
"null","<p style=""font-size: 80px;"">+ 10 points</p>","null","html-keyboard-response","142","666687","0.0-11.0-2.141","62ead6a5a69bbf516d0973dc","7jfn1j","GY","50","F","{""name"":""Chrome"",""chrome"":true,""version"":""106.0"",""blink"":true,""windows"":true,""osname"":""Windows"",""osversion"":""10"",""a"":true}","9:17:2","1","4","Test_2","70","f","1","788.0999999996275","1280 x 1024","1280 x 881","true","1","10","","","","",""
"null","<p style=""font-size: 80px;"">+ 10 points</p>","null","html-keyboard-response","143","669786","0.0-11.0-2.142","62ead6a5a69bbf516d0973dc","7jfn1j","GY","50","F","{""name"":""Chrome"",""chrome"":true,""version"":""106.0"",""blink"":true,""windows"":true,""osname"":""Windows"",""osversion"":""10"",""a"":true}","9:17:2","1","4","Test_1","74","j","1","1089.2000000001863","1280 x 1024","1280 x 881","true","1","10","","","","",""
"null","<p style=""font-size: 80px;"">+ 0 points</p>","null","html-keyboard-response","144","675105","0.0-11.0-2.143","62ead6a5a69bbf516d0973dc","7jfn1j","GY","50","F","{""name"":""Chrome"",""chrome"":true,""version"":""106.0"",""blink"":true,""windows"":true,""osname"":""Windows"",""osversion"":""10"",""a"":true}","9:17:2","1","4","Test_1","70","j","0","3302.7000000001863","1280 x 1024","1280 x 881","true","1","0","","","","",""
"null","<p style=""font-size: 80px;"">+ 10 points</p>","null","html-keyboard-response","145","678373","0.0-11.0-2.144","62ead6a5a69bbf516d0973dc","7jfn1j","GY","50","F","{""name"":""Chrome"",""chrome"":true,""version"":""106.0"",""blink"":true,""windows"":true,""osname"":""Windows"",""osversion"":""10"",""a"":true}","9:17:2","1","4","Test_4","70","f","1","1254.7999999998137","1280 x 1024","1280 x 881","true","1","10","","","","",""
"null","<p style=""font-size: 80px;"">+ 10 points</p>","null","html-keyboard-response","146","681385","0.0-11.0-2.145","62ead6a5a69bbf516d0973dc","7jfn1j","GY","50","F","{""name"":""Chrome"",""chrome"":true,""version"":""106.0"",""blink"":true,""windows"":true,""osname"":""Windows"",""osversion"":""10"",""a"":true}","9:17:2","1","4","Test_2","70","f","1","999.9000000003725","1280 x 1024","1280 x 881","true","1","10","","","","",""
"null","<p style=""font-size: 80px;"">+ 10 points</p>","null","html-keyboard-response","147","684676","0.0-11.0-2.146","62ead6a5a69bbf516d0973dc","7jfn1j","GY","50","F","{""name"":""Chrome"",""chrome"":true,""version"":""106.0"",""blink"":true,""windows"":true,""osname"":""Windows"",""osversion"":""10"",""a"":true}","9:17:2","1","4","Test_3","74","j","1","1269","1280 x 1024","1280 x 881","true","1","10","","","","",""
"null","<p style=""font-size: 80px;"">+ 0 points</p>","null","html-keyboard-response","148","687947","0.0-11.0-2.147","62ead6a5a69bbf516d0973dc","7jfn1j","GY","50","F","{""name"":""Chrome"",""chrome"":true,""version"":""106.0"",""blink"":true,""windows"":true,""osname"":""Windows"",""osversion"":""10"",""a"":true}","9:17:2","1","4","Test_3","70","j","0","1251.8999999994412","1280 x 1024","1280 x 881","true","1","0","","","","",""
"null","<p style=""font-size: 80px;"">+ 10 points</p>","null","html-keyboard-response","149","691425","0.0-11.0-2.148","62ead6a5a69bbf516d0973dc","7jfn1j","GY","50","F","{""name"":""Chrome"",""chrome"":true,""version"":""106.0"",""blink"":true,""windows"":true,""osname"":""Windows"",""osversion"":""10"",""a"":true}","9:17:2","1","4","Test_2","70","f","1","1458.1000000005588","1280 x 1024","1280 x 881","true","1","10","","","","",""
"null","<p style=""font-size: 80px;"">+ 10 points</p>","null","html-keyboard-response","150","694218","0.0-11.0-2.149","62ead6a5a69bbf516d0973dc","7jfn1j","GY","50","F","{""name"":""Chrome"",""chrome"":true,""version"":""106.0"",""blink"":true,""windows"":true,""osname"":""Windows"",""osversion"":""10"",""a"":true}","9:17:2","1","4","Test_3","74","j","1","769.7000000001863","1280 x 1024","1280 x 881","true","1","10","","","","",""
"null","<p style=""font-size: 80px;"">+ 10 points</p>","null","html-keyboard-response","151","697110","0.0-11.0-2.150","62ead6a5a69bbf516d0973dc","7jfn1j","GY","50","F","{""name"":""Chrome"",""chrome"":true,""version"":""106.0"",""blink"":true,""windows"":true,""osname"":""Windows"",""osversion"":""10"",""a"":true}","9:17:2","1","4","Test_3","74","j","1","871.5","1280 x 1024","1280 x 881","true","1","10","","","","",""
"null","<p style=""font-size: 80px;"">+ 10 points</p>","null","html-keyboard-response","152","699917","0.0-11.0-2.151","62ead6a5a69bbf516d0973dc","7jfn1j","GY","50","F","{""name"":""Chrome"",""chrome"":true,""version"":""106.0"",""blink"":true,""windows"":true,""osname"":""Windows"",""osversion"":""10"",""a"":true}","9:17:2","1","4","Test_4","70","f","1","787.2000000001863","1280 x 1024","1280 x 881","true","1","10","","","","",""
"null","<p style=""font-size: 80px;"">+ 10 points</p>","null","html-keyboard-response","153","704006","0.0-11.0-2.152","62ead6a5a69bbf516d0973dc","7jfn1j","GY","50","F","{""name"":""Chrome"",""chrome"":true,""version"":""106.0"",""blink"":true,""windows"":true,""osname"":""Windows"",""osversion"":""10"",""a"":true}","9:17:2","1","4","Test_1","74","j","1","2071.9000000003725","1280 x 1024","1280 x 881","true","1","10","","","","",""
"null","<p style=""font-size: 80px;"">+ 0 points</p>","null","html-keyboard-response","154","707590","0.0-11.0-2.153","62ead6a5a69bbf516d0973dc","7jfn1j","GY","50","F","{""name"":""Chrome"",""chrome"":true,""version"":""106.0"",""blink"":true,""windows"":true,""osname"":""Windows"",""osversion"":""10"",""a"":true}","9:17:2","1","3","Test_4","70","j","0","1570.5","1280 x 1024","1280 x 881","true","1","0","","","","",""
"null","<p style=""font-size: 80px;"">+ 10 points</p>","null","html-keyboard-response","155","710827","0.0-11.0-2.154","62ead6a5a69bbf516d0973dc","7jfn1j","GY","50","F","{""name"":""Chrome"",""chrome"":true,""version"":""106.0"",""blink"":true,""windows"":true,""osname"":""Windows"",""osversion"":""10"",""a"":true}","9:17:2","1","3","Test_2","74","j","1","1217.2000000001863","1280 x 1024","1280 x 881","true","1","10","","","","",""
"null","<p style=""font-size: 80px;"">+ 10 points</p>","null","html-keyboard-response","156","713851","0.0-11.0-2.155","62ead6a5a69bbf516d0973dc","7jfn1j","GY","50","F","{""name"":""Chrome"",""chrome"":true,""version"":""106.0"",""blink"":true,""windows"":true,""osname"":""Windows"",""osversion"":""10"",""a"":true}","9:17:2","1","3","Test_3","70","f","1","999.7999999998137","1280 x 1024","1280 x 881","true","1","10","","","","",""
"null","<p style=""font-size: 80px;"">+ 10 points</p>","null","html-keyboard-response","157","716980","0.0-11.0-2.156","62ead6a5a69bbf516d0973dc","7jfn1j","GY","50","F","{""name"":""Chrome"",""chrome"":true,""version"":""106.0"",""blink"":true,""windows"":true,""osname"":""Windows"",""osversion"":""10"",""a"":true}","9:17:2","1","3","Test_4","74","j","1","1108.5","1280 x 1024","1280 x 881","true","1","10","","","","",""
"null","<p style=""font-size: 80px;"">+ 10 points</p>","null","html-keyboard-response","158","719813","0.0-11.0-2.157","62ead6a5a69bbf516d0973dc","7jfn1j","GY","50","F","{""name"":""Chrome"",""chrome"":true,""version"":""106.0"",""blink"":true,""windows"":true,""osname"":""Windows"",""osversion"":""10"",""a"":true}","9:17:2","1","3","Test_1","70","f","1","820.2000000001863","1280 x 1024","1280 x 881","true","1","10","","","","",""
"null","<p style=""font-size: 80px;"">+ 10 points</p>","null","html-keyboard-response","159","722814","0.0-11.0-2.158","62ead6a5a69bbf516d0973dc","7jfn1j","GY","50","F","{""name"":""Chrome"",""chrome"":true,""version"":""106.0"",""blink"":true,""windows"":true,""osname"":""Windows"",""osversion"":""10"",""a"":true}","9:17:2","1","3","Test_1","70","f","1","985.9000000003725","1280 x 1024","1280 x 881","true","1","10","","","","",""
"null","<p style=""font-size: 80px;"">+ 10 points</p>","null","html-keyboard-response","160","726321","0.0-11.0-2.159","62ead6a5a69bbf516d0973dc","7jfn1j","GY","50","F","{""name"":""Chrome"",""chrome"":true,""version"":""106.0"",""blink"":true,""windows"":true,""osname"":""Windows"",""osversion"":""10"",""a"":true}","9:17:2","1","3","Test_4","74","j","1","1498.4000000003725","1280 x 1024","1280 x 881","true","1","10","","","","",""
"null","<p style=""font-size: 80px;"">+ 10 points</p>","null","html-keyboard-response","161","729716","0.0-11.0-2.160","62ead6a5a69bbf516d0973dc","7jfn1j","GY","50","F","{""name"":""Chrome"",""chrome"":true,""version"":""106.0"",""blink"":true,""windows"":true,""osname"":""Windows"",""osversion"":""10"",""a"":true}","9:17:2","1","3","Test_4","74","j","1","1379","1280 x 1024","1280 x 881","true","1","10","","","","",""
"null","<p style=""font-size: 80px;"">+ 10 points</p>","null","html-keyboard-response","162","733212","0.0-11.0-2.161","62ead6a5a69bbf516d0973dc","7jfn1j","GY","50","F","{""name"":""Chrome"",""chrome"":true,""version"":""106.0"",""blink"":true,""windows"":true,""osname"":""Windows"",""osversion"":""10"",""a"":true}","9:17:2","1","3","Test_2","74","j","1","1487.1000000005588","1280 x 1024","1280 x 881","true","1","10","","","","",""
"null","<p style=""font-size: 80px;"">+ 10 points</p>","null","html-keyboard-response","163","736679","0.0-11.0-2.162","62ead6a5a69bbf516d0973dc","7jfn1j","GY","50","F","{""name"":""Chrome"",""chrome"":true,""version"":""106.0"",""blink"":true,""windows"":true,""osname"":""Windows"",""osversion"":""10"",""a"":true}","9:17:2","1","3","Test_2","74","j","1","1431.7000000001863","1280 x 1024","1280 x 881","true","1","10","","","","",""
"null","<p style=""font-size: 80px;"">+ 10 points</p>","null","html-keyboard-response","164","739511","0.0-11.0-2.163","62ead6a5a69bbf516d0973dc","7jfn1j","GY","50","F","{""name"":""Chrome"",""chrome"":true,""version"":""106.0"",""blink"":true,""windows"":true,""osname"":""Windows"",""osversion"":""10"",""a"":true}","9:17:2","1","3","Test_3","70","f","1","818.5","1280 x 1024","1280 x 881","true","1","10","","","","",""
"null","<p style=""font-size: 80px;"">+ 10 points</p>","null","html-keyboard-response","165","742550","0.0-11.0-2.164","62ead6a5a69bbf516d0973dc","7jfn1j","GY","50","F","{""name"":""Chrome"",""chrome"":true,""version"":""106.0"",""blink"":true,""windows"":true,""osname"":""Windows"",""osversion"":""10"",""a"":true}","9:17:2","1","3","Test_3","70","f","1","1016","1280 x 1024","1280 x 881","true","1","10","","","","",""
"null","<p style=""font-size: 80px;"">+ 10 points</p>","null","html-keyboard-response","166","745958","0.0-11.0-2.165","62ead6a5a69bbf516d0973dc","7jfn1j","GY","50","F","{""name"":""Chrome"",""chrome"":true,""version"":""106.0"",""blink"":true,""windows"":true,""osname"":""Windows"",""osversion"":""10"",""a"":true}","9:17:2","1","3","Test_2","74","j","1","1391.9000000003725","1280 x 1024","1280 x 881","true","1","10","","","","",""
"null","<p style=""font-size: 80px;"">+ 10 points</p>","null","html-keyboard-response","167","748762","0.0-11.0-2.166","62ead6a5a69bbf516d0973dc","7jfn1j","GY","50","F","{""name"":""Chrome"",""chrome"":true,""version"":""106.0"",""blink"":true,""windows"":true,""osname"":""Windows"",""osversion"":""10"",""a"":true}","9:17:2","1","3","Test_3","70","f","1","793.3999999994412","1280 x 1024","1280 x 881","true","1","10","","","","",""
"null","<p style=""font-size: 80px;"">+ 10 points</p>","null","html-keyboard-response","168","751682","0.0-11.0-2.167","62ead6a5a69bbf516d0973dc","7jfn1j","GY","50","F","{""name"":""Chrome"",""chrome"":true,""version"":""106.0"",""blink"":true,""windows"":true,""osname"":""Windows"",""osversion"":""10"",""a"":true}","9:17:2","1","3","Test_1","70","f","1","908.8999999994412","1280 x 1024","1280 x 881","true","1","10","","","","",""
"null","<p style=""font-size: 80px;"">+ 10 points</p>","null","html-keyboard-response","169","754660","0.0-11.0-2.168","62ead6a5a69bbf516d0973dc","7jfn1j","GY","50","F","{""name"":""Chrome"",""chrome"":true,""version"":""106.0"",""blink"":true,""windows"":true,""osname"":""Windows"",""osversion"":""10"",""a"":true}","9:17:2","1","3","Test_4","74","j","1","957.8000000007451","1280 x 1024","1280 x 881","true","1","10","","","","",""
"null","<p style=""font-size: 80px;"">+ 10 points</p>","null","html-keyboard-response","170","757316","0.0-11.0-2.169","62ead6a5a69bbf516d0973dc","7jfn1j","GY","50","F","{""name"":""Chrome"",""chrome"":true,""version"":""106.0"",""blink"":true,""windows"":true,""osname"":""Windows"",""osversion"":""10"",""a"":true}","9:17:2","1","3","Test_1","70","f","1","630.9000000003725","1280 x 1024","1280 x 881","true","1","10","","","","",""
"null","<p style=""font-size: 80px;"">+ 0 points</p>","null","html-keyboard-response","171","760099","0.0-11.0-2.170","62ead6a5a69bbf516d0973dc","7jfn1j","GY","50","F","{""name"":""Chrome"",""chrome"":true,""version"":""106.0"",""blink"":true,""windows"":true,""osname"":""Windows"",""osversion"":""10"",""a"":true}","9:17:2","1","4","Test_3","70","j","0","761","1280 x 1024","1280 x 881","true","1","0","","","","",""
"null","<p style=""font-size: 80px;"">+ 10 points</p>","null","html-keyboard-response","172","763295","0.0-11.0-2.171","62ead6a5a69bbf516d0973dc","7jfn1j","GY","50","F","{""name"":""Chrome"",""chrome"":true,""version"":""106.0"",""blink"":true,""windows"":true,""osname"":""Windows"",""osversion"":""10"",""a"":true}","9:17:2","1","4","Test_4","70","f","1","1183.7000000001863","1280 x 1024","1280 x 881","true","1","10","","","","",""
"null","<p style=""font-size: 80px;"">+ 10 points</p>","null","html-keyboard-response","173","767443","0.0-11.0-2.172","62ead6a5a69bbf516d0973dc","7jfn1j","GY","50","F","{""name"":""Chrome"",""chrome"":true,""version"":""106.0"",""blink"":true,""windows"":true,""osname"":""Windows"",""osversion"":""10"",""a"":true}","9:17:2","1","4","Test_4","70","f","1","2127.4000000003725","1280 x 1024","1280 x 881","true","1","10","","","","",""
"null","<p style=""font-size: 80px;"">+ 10 points</p>","null","html-keyboard-response","174","770535","0.0-11.0-2.173","62ead6a5a69bbf516d0973dc","7jfn1j","GY","50","F","{""name"":""Chrome"",""chrome"":true,""version"":""106.0"",""blink"":true,""windows"":true,""osname"":""Windows"",""osversion"":""10"",""a"":true}","9:17:2","1","4","Test_1","74","j","1","1076.7999999998137","1280 x 1024","1280 x 881","true","1","10","","","","",""
"null","<p style=""font-size: 80px;"">+ 10 points</p>","null","html-keyboard-response","175","773196","0.0-11.0-2.174","62ead6a5a69bbf516d0973dc","7jfn1j","GY","50","F","{""name"":""Chrome"",""chrome"":true,""version"":""106.0"",""blink"":true,""windows"":true,""osname"":""Windows"",""osversion"":""10"",""a"":true}","9:17:2","1","4","Test_4","70","f","1","632","1280 x 1024","1280 x 881","true","1","10","","","","",""
"null","<p style=""font-size: 80px;"">+ 10 points</p>","null","html-keyboard-response","176","776372","0.0-11.0-2.175","62ead6a5a69bbf516d0973dc","7jfn1j","GY","50","F","{""name"":""Chrome"",""chrome"":true,""version"":""106.0"",""blink"":true,""windows"":true,""osname"":""Windows"",""osversion"":""10"",""a"":true}","9:17:2","1","4","Test_3","74","j","1","1151.0999999996275","1280 x 1024","1280 x 881","true","1","10","","","","",""
"null","<p style=""font-size: 80px;"">+ 10 points</p>","null","html-keyboard-response","177","779563","0.0-11.0-2.176","62ead6a5a69bbf516d0973dc","7jfn1j","GY","50","F","{""name"":""Chrome"",""chrome"":true,""version"":""106.0"",""blink"":true,""windows"":true,""osname"":""Windows"",""osversion"":""10"",""a"":true}","9:17:2","1","4","Test_2","70","f","1","1174.9000000003725","1280 x 1024","1280 x 881","true","1","10","","","","",""
"null","<p style=""font-size: 80px;"">+ 10 points</p>","null","html-keyboard-response","178","782232","0.0-11.0-2.177","62ead6a5a69bbf516d0973dc","7jfn1j","GY","50","F","{""name"":""Chrome"",""chrome"":true,""version"":""106.0"",""blink"":true,""windows"":true,""osname"":""Windows"",""osversion"":""10"",""a"":true}","9:17:2","1","4","Test_2","70","f","1","663.5","1280 x 1024","1280 x 881","true","1","10","","","","",""
"null","<p style=""font-size: 80px;"">+ 10 points</p>","null","html-keyboard-response","179","785544","0.0-11.0-2.178","62ead6a5a69bbf516d0973dc","7jfn1j","GY","50","F","{""name"":""Chrome"",""chrome"":true,""version"":""106.0"",""blink"":true,""windows"":true,""osname"":""Windows"",""osversion"":""10"",""a"":true}","9:17:2","1","4","Test_1","74","j","1","1301.5","1280 x 1024","1280 x 881","true","1","10","","","","",""
"null","<p style=""font-size: 80px;"">+ 10 points</p>","null","html-keyboard-response","180","788503","0.0-11.0-2.179","62ead6a5a69bbf516d0973dc","7jfn1j","GY","50","F","{""name"":""Chrome"",""chrome"":true,""version"":""106.0"",""blink"":true,""windows"":true,""osname"":""Windows"",""osversion"":""10"",""a"":true}","9:17:2","1","4","Test_3","74","j","1","934.3999999994412","1280 x 1024","1280 x 881","true","1","10","","","","",""
"null","<p style=""font-size: 80px;"">+ 10 points</p>","null","html-keyboard-response","181","791433","0.0-11.0-2.180","62ead6a5a69bbf516d0973dc","7jfn1j","GY","50","F","{""name"":""Chrome"",""chrome"":true,""version"":""106.0"",""blink"":true,""windows"":true,""osname"":""Windows"",""osversion"":""10"",""a"":true}","9:17:2","1","4","Test_1","74","j","1","915.5","1280 x 1024","1280 x 881","true","1","10","","","","",""
"null","<p style=""font-size: 80px;"">+ 10 points</p>","null","html-keyboard-response","182","794433","0.0-11.0-2.181","62ead6a5a69bbf516d0973dc","7jfn1j","GY","50","F","{""name"":""Chrome"",""chrome"":true,""version"":""106.0"",""blink"":true,""windows"":true,""osname"":""Windows"",""osversion"":""10"",""a"":true}","9:17:2","1","4","Test_3","74","j","1","978.7999999998137","1280 x 1024","1280 x 881","true","1","10","","","","",""
"null","<p style=""font-size: 80px;"">+ 10 points</p>","null","html-keyboard-response","183","797442","0.0-11.0-2.182","62ead6a5a69bbf516d0973dc","7jfn1j","GY","50","F","{""name"":""Chrome"",""chrome"":true,""version"":""106.0"",""blink"":true,""windows"":true,""osname"":""Windows"",""osversion"":""10"",""a"":true}","9:17:2","1","4","Test_3","74","j","1","987.3999999994412","1280 x 1024","1280 x 881","true","1","10","","","","",""
"null","<p style=""font-size: 80px;"">+ 10 points</p>","null","html-keyboard-response","184","799968","0.0-11.0-2.183","62ead6a5a69bbf516d0973dc","7jfn1j","GY","50","F","{""name"":""Chrome"",""chrome"":true,""version"":""106.0"",""blink"":true,""windows"":true,""osname"":""Windows"",""osversion"":""10"",""a"":true}","9:17:2","1","4","Test_3","74","j","1","509.29999999981374","1280 x 1024","1280 x 881","true","1","10","","","","",""
"null","<p style=""font-size: 80px;"">+ 10 points</p>","null","html-keyboard-response","185","802510","0.0-11.0-2.184","62ead6a5a69bbf516d0973dc","7jfn1j","GY","50","F","{""name"":""Chrome"",""chrome"":true,""version"":""106.0"",""blink"":true,""windows"":true,""osname"":""Windows"",""osversion"":""10"",""a"":true}","9:17:2","1","4","Test_2","70","f","1","522.6000000005588","1280 x 1024","1280 x 881","true","1","10","","","","",""
"null","<p style=""font-size: 80px;"">+ 10 points</p>","null","html-keyboard-response","186","805875","0.0-11.0-2.185","62ead6a5a69bbf516d0973dc","7jfn1j","GY","50","F","{""name"":""Chrome"",""chrome"":true,""version"":""106.0"",""blink"":true,""windows"":true,""osname"":""Windows"",""osversion"":""10"",""a"":true}","9:17:2","1","4","Test_1","74","j","1","1343.5","1280 x 1024","1280 x 881","true","1","10","","","","",""
"null","<p style=""font-size: 80px;"">+ 10 points</p>","null","html-keyboard-response","187","810347","0.0-11.0-2.186","62ead6a5a69bbf516d0973dc","7jfn1j","GY","50","F","{""name"":""Chrome"",""chrome"":true,""version"":""106.0"",""blink"":true,""windows"":true,""osname"":""Windows"",""osversion"":""10"",""a"":true}","9:17:2","1","4","Test_2","70","f","1","2450.699999999255","1280 x 1024","1280 x 881","true","1","10","","","","",""
"null","<p style=""font-size: 80px;"">+ 10 points</p>","null","html-keyboard-response","188","813158","0.0-11.0-2.187","62ead6a5a69bbf516d0973dc","7jfn1j","GY","50","F","{""name"":""Chrome"",""chrome"":true,""version"":""106.0"",""blink"":true,""windows"":true,""osname"":""Windows"",""osversion"":""10"",""a"":true}","9:17:2","1","4","Test_2","70","f","1","789.6000000005588","1280 x 1024","1280 x 881","true","1","10","","","","",""
"null","<p style=""font-size: 80px;"">+ 10 points</p>","null","html-keyboard-response","189","816588","0.0-11.0-2.188","62ead6a5a69bbf516d0973dc","7jfn1j","GY","50","F","{""name"":""Chrome"",""chrome"":true,""version"":""106.0"",""blink"":true,""windows"":true,""osname"":""Windows"",""osversion"":""10"",""a"":true}","9:17:2","1","4","Test_4","70","f","1","1412.8999999994412","1280 x 1024","1280 x 881","true","1","10","","","","",""
