"rt","stimulus","key_press","trial_type","trial_index","time_elapsed","internal_node_id","Prolific_ID","random_ID","initials","age","gender","pc_info","start_time","Phase","Rule","Stimulus","Response","CorrResp","Accuracy","ResponseTime","screen_resolution","window_resolution","focus","relevant","Points","responses","question_order","rev_check","butterfly_check","passed_practice"
"null","<p style=""font-size: 80px;"">+ 10 points</p>","null","html-keyboard-response","1","73963","0.0-7.0-2.0","5c6bc7a15028140001710963","owerx4","AH","33","F","{""name"":""Chrome"",""chrome"":true,""version"":""106.0"",""blink"":true,""windows"":true,""osname"":""Windows"",""osversion"":""10"",""a"":true}","9:19:19","0","1","Practice_1","70","f","1","1021.5999999940395","1280 x 720","1280 x 720","true","1","10","","","","",""
"null","<p style=""font-size: 80px;"">+ 0 points</p>","null","html-keyboard-response","2","77325","0.0-7.0-2.1","5c6bc7a15028140001710963","owerx4","AH","33","F","{""name"":""Chrome"",""chrome"":true,""version"":""106.0"",""blink"":true,""windows"":true,""osname"":""Windows"",""osversion"":""10"",""a"":true}","9:19:19","0","1","Practice_3","74","f","0","1327.800000011921","1280 x 720","1280 x 720","true","1","0","","","","",""
"null","<p style=""font-size: 80px;"">+ 10 points</p>","null","html-keyboard-response","3","80617","0.0-7.0-2.2","5c6bc7a15028140001710963","owerx4","AH","33","F","{""name"":""Chrome"",""chrome"":true,""version"":""106.0"",""blink"":true,""windows"":true,""osname"":""Windows"",""osversion"":""10"",""a"":true}","9:19:19","0","1","Practice_3","70","f","1","1254.5999999940395","1280 x 720","1280 x 720","true","1","10","","","","",""
"null","<p style=""font-size: 80px;"">+ 10 points</p>","null","html-keyboard-response","4","83326","0.0-7.0-2.3","5c6bc7a15028140001710963","owerx4","AH","33","F","{""name"":""Chrome"",""chrome"":true,""version"":""106.0"",""blink"":true,""windows"":true,""osname"":""Windows"",""osversion"":""10"",""a"":true}","9:19:19","0","1","Practice_3","70","f","1","702.2999999821186","1280 x 720","1280 x 720","true","1","10","","","","",""
"null","<p style=""font-size: 80px;"">+ 10 points</p>","null","html-keyboard-response","5","86768","0.0-7.0-2.4","5c6bc7a15028140001710963","owerx4","AH","33","F","{""name"":""Chrome"",""chrome"":true,""version"":""106.0"",""blink"":true,""windows"":true,""osname"":""Windows"",""osversion"":""10"",""a"":true}","9:19:19","0","1","Practice_4","74","j","1","1424.4000000059605","1280 x 720","1280 x 720","true","1","10","","","","",""
"null","<p style=""font-size: 80px;"">+ 10 points</p>","null","html-keyboard-response","6","89460","0.0-7.0-2.5","5c6bc7a15028140001710963","owerx4","AH","33","F","{""name"":""Chrome"",""chrome"":true,""version"":""106.0"",""blink"":true,""windows"":true,""osname"":""Windows"",""osversion"":""10"",""a"":true}","9:19:19","0","1","Practice_3","70","f","1","665.0999999940395","1280 x 720","1280 x 720","true","1","10","","","","",""
"null","<p style=""font-size: 80px;"">+ 10 points</p>","null","html-keyboard-response","7","92369","0.0-7.0-2.6","5c6bc7a15028140001710963","owerx4","AH","33","F","{""name"":""Chrome"",""chrome"":true,""version"":""106.0"",""blink"":true,""windows"":true,""osname"":""Windows"",""osversion"":""10"",""a"":true}","9:19:19","0","1","Practice_4","74","j","1","888.4000000059605","1280 x 720","1280 x 720","true","1","10","","","","",""
"null","<p style=""font-size: 80px;"">+ 10 points</p>","null","html-keyboard-response","8","95137","0.0-7.0-2.7","5c6bc7a15028140001710963","owerx4","AH","33","F","{""name"":""Chrome"",""chrome"":true,""version"":""106.0"",""blink"":true,""windows"":true,""osname"":""Windows"",""osversion"":""10"",""a"":true}","9:19:19","0","1","Practice_2","74","j","1","738.5","1280 x 720","1280 x 720","true","1","10","","","","",""
"null","<p style=""font-size: 80px;"">+ 10 points</p>","null","html-keyboard-response","9","97806","0.0-7.0-2.8","5c6bc7a15028140001710963","owerx4","AH","33","F","{""name"":""Chrome"",""chrome"":true,""version"":""106.0"",""blink"":true,""windows"":true,""osname"":""Windows"",""osversion"":""10"",""a"":true}","9:19:19","0","1","Practice_2","74","j","1","649.7000000178814","1280 x 720","1280 x 720","true","1","10","","","","",""
"null","<p style=""font-size: 80px;"">+ 10 points</p>","null","html-keyboard-response","10","100474","0.0-7.0-2.9","5c6bc7a15028140001710963","owerx4","AH","33","F","{""name"":""Chrome"",""chrome"":true,""version"":""106.0"",""blink"":true,""windows"":true,""osname"":""Windows"",""osversion"":""10"",""a"":true}","9:19:19","0","1","Practice_2","74","j","1","640.0999999940395","1280 x 720","1280 x 720","true","1","10","","","","",""
"null","<p style=""font-size: 80px;"">+ 10 points</p>","null","html-keyboard-response","11","103202","0.0-7.0-2.10","5c6bc7a15028140001710963","owerx4","AH","33","F","{""name"":""Chrome"",""chrome"":true,""version"":""106.0"",""blink"":true,""windows"":true,""osname"":""Windows"",""osversion"":""10"",""a"":true}","9:19:19","0","1","Practice_1","70","f","1","711.6999999880791","1280 x 720","1280 x 720","true","1","10","","","","",""
"null","<p style=""font-size: 80px;"">+ 10 points</p>","null","html-keyboard-response","12","105889","0.0-7.0-2.11","5c6bc7a15028140001710963","owerx4","AH","33","F","{""name"":""Chrome"",""chrome"":true,""version"":""106.0"",""blink"":true,""windows"":true,""osname"":""Windows"",""osversion"":""10"",""a"":true}","9:19:19","0","1","Practice_1","70","f","1","680.5999999940395","1280 x 720","1280 x 720","true","1","10","","","","",""
"null","<p style=""font-size: 80px;"">+ 10 points</p>","null","html-keyboard-response","13","108502","0.0-7.0-2.12","5c6bc7a15028140001710963","owerx4","AH","33","F","{""name"":""Chrome"",""chrome"":true,""version"":""106.0"",""blink"":true,""windows"":true,""osname"":""Windows"",""osversion"":""10"",""a"":true}","9:19:19","0","1","Practice_4","74","j","1","597.6999999880791","1280 x 720","1280 x 720","true","1","10","","","","",""
"null","<p style=""font-size: 80px;"">+ 10 points</p>","null","html-keyboard-response","14","111188","0.0-7.0-2.13","5c6bc7a15028140001710963","owerx4","AH","33","F","{""name"":""Chrome"",""chrome"":true,""version"":""106.0"",""blink"":true,""windows"":true,""osname"":""Windows"",""osversion"":""10"",""a"":true}","9:19:19","0","1","Practice_3","70","f","1","654.4000000059605","1280 x 720","1280 x 720","true","1","10","","","","",""
"null","<p style=""font-size: 80px;"">+ 10 points</p>","null","html-keyboard-response","15","113949","0.0-7.0-2.14","5c6bc7a15028140001710963","owerx4","AH","33","F","{""name"":""Chrome"",""chrome"":true,""version"":""106.0"",""blink"":true,""windows"":true,""osname"":""Windows"",""osversion"":""10"",""a"":true}","9:19:19","0","1","Practice_1","70","f","1","744.5","1280 x 720","1280 x 720","true","1","10","","","","",""
"null","<p style=""font-size: 80px;"">+ 10 points</p>","null","html-keyboard-response","16","116718","0.0-7.0-2.15","5c6bc7a15028140001710963","owerx4","AH","33","F","{""name"":""Chrome"",""chrome"":true,""version"":""106.0"",""blink"":true,""windows"":true,""osname"":""Windows"",""osversion"":""10"",""a"":true}","9:19:19","0","1","Practice_2","74","j","1","732.6999999880791","1280 x 720","1280 x 720","true","1","10","","","","",""
"null","<p style=""font-size: 80px;"">+ 10 points</p>","null","html-keyboard-response","17","119751","0.0-7.0-2.16","5c6bc7a15028140001710963","owerx4","AH","33","F","{""name"":""Chrome"",""chrome"":true,""version"":""106.0"",""blink"":true,""windows"":true,""osname"":""Windows"",""osversion"":""10"",""a"":true}","9:19:19","0","1","Practice_4","74","j","1","995.3000000119209","1280 x 720","1280 x 720","true","1","10","","","","",""
"null","<p style=""font-size: 80px;"">+ 10 points</p>","null","html-keyboard-response","18","122788","0.0-7.0-2.17","5c6bc7a15028140001710963","owerx4","AH","33","F","{""name"":""Chrome"",""chrome"":true,""version"":""106.0"",""blink"":true,""windows"":true,""osname"":""Windows"",""osversion"":""10"",""a"":true}","9:19:19","0","1","Practice_1","70","f","1","1008.5999999940395","1280 x 720","1280 x 720","true","1","10","","","","",""
"null","<p style=""font-size: 80px;"">+ 10 points</p>","null","html-keyboard-response","19","125463","0.0-7.0-2.18","5c6bc7a15028140001710963","owerx4","AH","33","F","{""name"":""Chrome"",""chrome"":true,""version"":""106.0"",""blink"":true,""windows"":true,""osname"":""Windows"",""osversion"":""10"",""a"":true}","9:19:19","0","1","Practice_4","74","j","1","641.1999999880791","1280 x 720","1280 x 720","true","1","10","","","","",""
"null","<p style=""font-size: 80px;"">+ 10 points</p>","null","html-keyboard-response","20","128324","0.0-7.0-2.19","5c6bc7a15028140001710963","owerx4","AH","33","F","{""name"":""Chrome"",""chrome"":true,""version"":""106.0"",""blink"":true,""windows"":true,""osname"":""Windows"",""osversion"":""10"",""a"":true}","9:19:19","0","1","Practice_2","74","j","1","850","1280 x 720","1280 x 720","true","1","10","","","","",""
"null","<p style=""font-size: 80px;"">+ 0 points</p>","null","html-keyboard-response","21","131306","0.0-7.0-2.20","5c6bc7a15028140001710963","owerx4","AH","33","F","{""name"":""Chrome"",""chrome"":true,""version"":""106.0"",""blink"":true,""windows"":true,""osname"":""Windows"",""osversion"":""10"",""a"":true}","9:19:19","0","2","Practice_2","74","f","0","966.5999999940395","1280 x 720","1280 x 720","true","1","0","","","","",""
"null","<p style=""font-size: 80px;"">+ 0 points</p>","null","html-keyboard-response","22","134228","0.0-7.0-2.21","5c6bc7a15028140001710963","owerx4","AH","33","F","{""name"":""Chrome"",""chrome"":true,""version"":""106.0"",""blink"":true,""windows"":true,""osname"":""Windows"",""osversion"":""10"",""a"":true}","9:19:19","0","2","Practice_1","70","j","0","908","1280 x 720","1280 x 720","true","1","0","","","","",""
"null","<p style=""font-size: 80px;"">+ 10 points</p>","null","html-keyboard-response","23","137362","0.0-7.0-2.22","5c6bc7a15028140001710963","owerx4","AH","33","F","{""name"":""Chrome"",""chrome"":true,""version"":""106.0"",""blink"":true,""windows"":true,""osname"":""Windows"",""osversion"":""10"",""a"":true}","9:19:19","0","2","Practice_1","74","j","1","1105.9000000059605","1280 x 720","1280 x 720","true","1","10","","","","",""
"null","<p style=""font-size: 80px;"">+ 10 points</p>","null","html-keyboard-response","24","140341","0.0-7.0-2.23","5c6bc7a15028140001710963","owerx4","AH","33","F","{""name"":""Chrome"",""chrome"":true,""version"":""106.0"",""blink"":true,""windows"":true,""osname"":""Windows"",""osversion"":""10"",""a"":true}","9:19:19","0","2","Practice_4","70","f","1","950.7999999821186","1280 x 720","1280 x 720","true","1","10","","","","",""
"null","<p style=""font-size: 80px;"">+ 10 points</p>","null","html-keyboard-response","25","143214","0.0-7.0-2.24","5c6bc7a15028140001710963","owerx4","AH","33","F","{""name"":""Chrome"",""chrome"":true,""version"":""106.0"",""blink"":true,""windows"":true,""osname"":""Windows"",""osversion"":""10"",""a"":true}","9:19:19","0","2","Practice_4","70","f","1","857.3000000119209","1280 x 720","1280 x 720","true","1","10","","","","",""
"null","<p style=""font-size: 80px;"">+ 10 points</p>","null","html-keyboard-response","26","146478","0.0-7.0-2.25","5c6bc7a15028140001710963","owerx4","AH","33","F","{""name"":""Chrome"",""chrome"":true,""version"":""106.0"",""blink"":true,""windows"":true,""osname"":""Windows"",""osversion"":""10"",""a"":true}","9:19:19","0","2","Practice_2","70","f","1","1247.800000011921","1280 x 720","1280 x 720","true","1","10","","","","",""
"null","<p style=""font-size: 80px;"">+ 10 points</p>","null","html-keyboard-response","27","149644","0.0-7.0-2.26","5c6bc7a15028140001710963","owerx4","AH","33","F","{""name"":""Chrome"",""chrome"":true,""version"":""106.0"",""blink"":true,""windows"":true,""osname"":""Windows"",""osversion"":""10"",""a"":true}","9:19:19","0","2","Practice_2","70","f","1","1129.3999999761581","1280 x 720","1280 x 720","true","1","10","","","","",""
"null","<p style=""font-size: 80px;"">+ 10 points</p>","null","html-keyboard-response","28","153041","0.0-7.0-2.27","5c6bc7a15028140001710963","owerx4","AH","33","F","{""name"":""Chrome"",""chrome"":true,""version"":""106.0"",""blink"":true,""windows"":true,""osname"":""Windows"",""osversion"":""10"",""a"":true}","9:19:19","0","2","Practice_4","70","f","1","1360.0999999940395","1280 x 720","1280 x 720","true","1","10","","","","",""
"null","<p style=""font-size: 80px;"">+ 10 points</p>","null","html-keyboard-response","29","156264","0.0-7.0-2.28","5c6bc7a15028140001710963","owerx4","AH","33","F","{""name"":""Chrome"",""chrome"":true,""version"":""106.0"",""blink"":true,""windows"":true,""osname"":""Windows"",""osversion"":""10"",""a"":true}","9:19:19","0","2","Practice_1","74","j","1","1203.5999999940395","1280 x 720","1280 x 720","true","1","10","","","","",""
"null","<p style=""font-size: 80px;"">+ 10 points</p>","null","html-keyboard-response","30","159673","0.0-7.0-2.29","5c6bc7a15028140001710963","owerx4","AH","33","F","{""name"":""Chrome"",""chrome"":true,""version"":""106.0"",""blink"":true,""windows"":true,""osname"":""Windows"",""osversion"":""10"",""a"":true}","9:19:19","0","2","Practice_2","70","f","1","1383.199999988079","1280 x 720","1280 x 720","true","1","10","","","","",""
"null","<p style=""font-size: 80px;"">+ 0 points</p>","null","html-keyboard-response","31","162719","0.0-7.0-2.30","5c6bc7a15028140001710963","owerx4","AH","33","F","{""name"":""Chrome"",""chrome"":true,""version"":""106.0"",""blink"":true,""windows"":true,""osname"":""Windows"",""osversion"":""10"",""a"":true}","9:19:19","0","2","Practice_3","70","j","0","1020.5","1280 x 720","1280 x 720","true","1","0","","","","",""
"null","<p style=""font-size: 80px;"">+ 10 points</p>","null","html-keyboard-response","32","166286","0.0-7.0-2.31","5c6bc7a15028140001710963","owerx4","AH","33","F","{""name"":""Chrome"",""chrome"":true,""version"":""106.0"",""blink"":true,""windows"":true,""osname"":""Windows"",""osversion"":""10"",""a"":true}","9:19:19","0","2","Practice_1","74","j","1","1542.199999988079","1280 x 720","1280 x 720","true","1","10","","","","",""
"null","<p style=""font-size: 80px;"">+ 10 points</p>","null","html-keyboard-response","33","170574","0.0-7.0-2.32","5c6bc7a15028140001710963","owerx4","AH","33","F","{""name"":""Chrome"",""chrome"":true,""version"":""106.0"",""blink"":true,""windows"":true,""osname"":""Windows"",""osversion"":""10"",""a"":true}","9:19:19","0","2","Practice_1","74","j","1","2310.199999988079","1280 x 720","1280 x 720","true","1","10","","","","",""
"null","<p style=""font-size: 80px;"">+ 10 points</p>","null","html-keyboard-response","34","174740","0.0-7.0-2.33","5c6bc7a15028140001710963","owerx4","AH","33","F","{""name"":""Chrome"",""chrome"":true,""version"":""106.0"",""blink"":true,""windows"":true,""osname"":""Windows"",""osversion"":""10"",""a"":true}","9:19:19","0","2","Practice_4","70","f","1","2144.4000000059605","1280 x 720","1280 x 720","true","1","10","","","","",""
"null","<p style=""font-size: 80px;"">+ 10 points</p>","null","html-keyboard-response","35","178375","0.0-7.0-2.34","5c6bc7a15028140001710963","owerx4","AH","33","F","{""name"":""Chrome"",""chrome"":true,""version"":""106.0"",""blink"":true,""windows"":true,""osname"":""Windows"",""osversion"":""10"",""a"":true}","9:19:19","0","2","Practice_3","74","j","1","1611.7000000178814","1280 x 720","1280 x 720","true","1","10","","","","",""
"null","<p style=""font-size: 80px;"">+ 10 points</p>","null","html-keyboard-response","36","181314","0.0-7.0-2.35","5c6bc7a15028140001710963","owerx4","AH","33","F","{""name"":""Chrome"",""chrome"":true,""version"":""106.0"",""blink"":true,""windows"":true,""osname"":""Windows"",""osversion"":""10"",""a"":true}","9:19:19","0","2","Practice_3","74","j","1","903.0999999940395","1280 x 720","1280 x 720","true","1","10","","","","",""
"null","<p style=""font-size: 80px;"">+ 10 points</p>","null","html-keyboard-response","37","184590","0.0-7.0-2.36","5c6bc7a15028140001710963","owerx4","AH","33","F","{""name"":""Chrome"",""chrome"":true,""version"":""106.0"",""blink"":true,""windows"":true,""osname"":""Windows"",""osversion"":""10"",""a"":true}","9:19:19","0","2","Practice_2","70","f","1","1259.699999988079","1280 x 720","1280 x 720","true","1","10","","","","",""
"null","<p style=""font-size: 80px;"">+ 0 points</p>","null","html-keyboard-response","38","187647","0.0-7.0-2.37","5c6bc7a15028140001710963","owerx4","AH","33","F","{""name"":""Chrome"",""chrome"":true,""version"":""106.0"",""blink"":true,""windows"":true,""osname"":""Windows"",""osversion"":""10"",""a"":true}","9:19:19","0","2","Practice_3","70","j","0","1039.5","1280 x 720","1280 x 720","true","1","0","","","","",""
"null","<p style=""font-size: 80px;"">+ 10 points</p>","null","html-keyboard-response","39","191774","0.0-7.0-2.38","5c6bc7a15028140001710963","owerx4","AH","33","F","{""name"":""Chrome"",""chrome"":true,""version"":""106.0"",""blink"":true,""windows"":true,""osname"":""Windows"",""osversion"":""10"",""a"":true}","9:19:19","0","2","Practice_3","74","j","1","2095.5999999940395","1280 x 720","1280 x 720","true","1","10","","","","",""
"null","<p style=""font-size: 80px;"">+ 10 points</p>","null","html-keyboard-response","40","197649","0.0-7.0-2.39","5c6bc7a15028140001710963","owerx4","AH","33","F","{""name"":""Chrome"",""chrome"":true,""version"":""106.0"",""blink"":true,""windows"":true,""osname"":""Windows"",""osversion"":""10"",""a"":true}","9:19:19","0","2","Practice_4","70","f","1","3856.2000000178814","1280 x 720","1280 x 720","true","1","10","","","","",""
"12679.59999999404","","","survey-multi-choice","127","210330","0.0-8.0","5c6bc7a15028140001710963","owerx4","AH","33","F","{""name"":""Chrome"",""chrome"":true,""version"":""106.0"",""blink"":true,""windows"":true,""osname"":""Windows"",""osversion"":""10"",""a"":true}","9:19:19","","","","","","","","","","","1","","{""Q0"":""The red one"",""Q1"":""1""}","[0,1]","1","The red one","2"
"null","<p style=""font-size: 80px;"">+ 10 points</p>","null","html-keyboard-response","1","221342","0.0-11.0-2.0","5c6bc7a15028140001710963","owerx4","AH","33","F","{""name"":""Chrome"",""chrome"":true,""version"":""106.0"",""blink"":true,""windows"":true,""osname"":""Windows"",""osversion"":""10"",""a"":true}","9:19:19","1","3","Test_4","74","j","1","1394.2999999821186","1280 x 720","1280 x 720","true","1","10","","","","",""
"null","<p style=""font-size: 80px;"">+ 10 points</p>","null","html-keyboard-response","2","224771","0.0-11.0-2.1","5c6bc7a15028140001710963","owerx4","AH","33","F","{""name"":""Chrome"",""chrome"":true,""version"":""106.0"",""blink"":true,""windows"":true,""osname"":""Windows"",""osversion"":""10"",""a"":true}","9:19:19","1","3","Test_2","74","j","1","1412.4000000059605","1280 x 720","1280 x 720","true","1","10","","","","",""
"null","<p style=""font-size: 80px;"">+ 10 points</p>","null","html-keyboard-response","3","227795","0.0-11.0-2.2","5c6bc7a15028140001710963","owerx4","AH","33","F","{""name"":""Chrome"",""chrome"":true,""version"":""106.0"",""blink"":true,""windows"":true,""osname"":""Windows"",""osversion"":""10"",""a"":true}","9:19:19","1","3","Test_3","70","f","1","1002.8999999761581","1280 x 720","1280 x 720","true","1","10","","","","",""
"null","<p style=""font-size: 80px;"">+ 10 points</p>","null","html-keyboard-response","4","230979","0.0-11.0-2.3","5c6bc7a15028140001710963","owerx4","AH","33","F","{""name"":""Chrome"",""chrome"":true,""version"":""106.0"",""blink"":true,""windows"":true,""osname"":""Windows"",""osversion"":""10"",""a"":true}","9:19:19","1","3","Test_1","70","f","1","1262.2000000178814","1280 x 720","1280 x 720","true","1","10","","","","",""
"null","<p style=""font-size: 80px;"">+ 10 points</p>","null","html-keyboard-response","5","233888","0.0-11.0-2.4","5c6bc7a15028140001710963","owerx4","AH","33","F","{""name"":""Chrome"",""chrome"":true,""version"":""106.0"",""blink"":true,""windows"":true,""osname"":""Windows"",""osversion"":""10"",""a"":true}","9:19:19","1","3","Test_4","74","j","1","882.3999999761581","1280 x 720","1280 x 720","true","1","10","","","","",""
"null","<p style=""font-size: 80px;"">+ 10 points</p>","null","html-keyboard-response","6","236576","0.0-11.0-2.5","5c6bc7a15028140001710963","owerx4","AH","33","F","{""name"":""Chrome"",""chrome"":true,""version"":""106.0"",""blink"":true,""windows"":true,""osname"":""Windows"",""osversion"":""10"",""a"":true}","9:19:19","1","3","Test_3","70","f","1","662.4000000059605","1280 x 720","1280 x 720","true","1","10","","","","",""
"null","<p style=""font-size: 80px;"">+ 10 points</p>","null","html-keyboard-response","7","239153","0.0-11.0-2.6","5c6bc7a15028140001710963","owerx4","AH","33","F","{""name"":""Chrome"",""chrome"":true,""version"":""106.0"",""blink"":true,""windows"":true,""osname"":""Windows"",""osversion"":""10"",""a"":true}","9:19:19","1","3","Test_4","74","j","1","561.1999999880791","1280 x 720","1280 x 720","true","1","10","","","","",""
"null","<p style=""font-size: 80px;"">+ 10 points</p>","null","html-keyboard-response","8","241929","0.0-11.0-2.7","5c6bc7a15028140001710963","owerx4","AH","33","F","{""name"":""Chrome"",""chrome"":true,""version"":""106.0"",""blink"":true,""windows"":true,""osname"":""Windows"",""osversion"":""10"",""a"":true}","9:19:19","1","3","Test_3","70","f","1","750.3000000119209","1280 x 720","1280 x 720","true","1","10","","","","",""
"null","<p style=""font-size: 80px;"">+ 10 points</p>","null","html-keyboard-response","9","244893","0.0-11.0-2.8","5c6bc7a15028140001710963","owerx4","AH","33","F","{""name"":""Chrome"",""chrome"":true,""version"":""106.0"",""blink"":true,""windows"":true,""osname"":""Windows"",""osversion"":""10"",""a"":true}","9:19:19","1","3","Test_1","70","f","1","930.0999999940395","1280 x 720","1280 x 720","true","1","10","","","","",""
"null","<p style=""font-size: 80px;"">+ 10 points</p>","null","html-keyboard-response","10","248284","0.0-11.0-2.9","5c6bc7a15028140001710963","owerx4","AH","33","F","{""name"":""Chrome"",""chrome"":true,""version"":""106.0"",""blink"":true,""windows"":true,""osname"":""Windows"",""osversion"":""10"",""a"":true}","9:19:19","1","3","Test_4","74","j","1","1371.7999999821186","1280 x 720","1280 x 720","true","1","10","","","","",""
"null","<p style=""font-size: 80px;"">+ 10 points</p>","null","html-keyboard-response","11","251226","0.0-11.0-2.10","5c6bc7a15028140001710963","owerx4","AH","33","F","{""name"":""Chrome"",""chrome"":true,""version"":""106.0"",""blink"":true,""windows"":true,""osname"":""Windows"",""osversion"":""10"",""a"":true}","9:19:19","1","3","Test_2","74","j","1","921.0999999940395","1280 x 720","1280 x 720","true","1","10","","","","",""
"null","<p style=""font-size: 80px;"">+ 10 points</p>","null","html-keyboard-response","12","253988","0.0-11.0-2.11","5c6bc7a15028140001710963","owerx4","AH","33","F","{""name"":""Chrome"",""chrome"":true,""version"":""106.0"",""blink"":true,""windows"":true,""osname"":""Windows"",""osversion"":""10"",""a"":true}","9:19:19","1","3","Test_3","70","f","1","736.7999999821186","1280 x 720","1280 x 720","true","1","10","","","","",""
"null","<p style=""font-size: 80px;"">+ 10 points</p>","null","html-keyboard-response","13","256870","0.0-11.0-2.12","5c6bc7a15028140001710963","owerx4","AH","33","F","{""name"":""Chrome"",""chrome"":true,""version"":""106.0"",""blink"":true,""windows"":true,""osname"":""Windows"",""osversion"":""10"",""a"":true}","9:19:19","1","3","Test_2","74","j","1","854.6000000238419","1280 x 720","1280 x 720","true","1","10","","","","",""
"null","<p style=""font-size: 80px;"">+ 10 points</p>","null","html-keyboard-response","14","259789","0.0-11.0-2.13","5c6bc7a15028140001710963","owerx4","AH","33","F","{""name"":""Chrome"",""chrome"":true,""version"":""106.0"",""blink"":true,""windows"":true,""osname"":""Windows"",""osversion"":""10"",""a"":true}","9:19:19","1","3","Test_1","70","f","1","897.3999999761581","1280 x 720","1280 x 720","true","1","10","","","","",""
"null","<p style=""font-size: 80px;"">+ 10 points</p>","null","html-keyboard-response","15","262731","0.0-11.0-2.14","5c6bc7a15028140001710963","owerx4","AH","33","F","{""name"":""Chrome"",""chrome"":true,""version"":""106.0"",""blink"":true,""windows"":true,""osname"":""Windows"",""osversion"":""10"",""a"":true}","9:19:19","1","3","Test_2","74","j","1","909","1280 x 720","1280 x 720","true","1","10","","","","",""
"null","<p style=""font-size: 80px;"">+ 10 points</p>","null","html-keyboard-response","16","266627","0.0-11.0-2.15","5c6bc7a15028140001710963","owerx4","AH","33","F","{""name"":""Chrome"",""chrome"":true,""version"":""106.0"",""blink"":true,""windows"":true,""osname"":""Windows"",""osversion"":""10"",""a"":true}","9:19:19","1","3","Test_1","70","f","1","1875.699999988079","1280 x 720","1280 x 720","true","1","10","","","","",""
"null","<p style=""font-size: 80px;"">+ 0 points</p>","null","html-keyboard-response","17","270086","0.0-11.0-2.16","5c6bc7a15028140001710963","owerx4","AH","33","F","{""name"":""Chrome"",""chrome"":true,""version"":""106.0"",""blink"":true,""windows"":true,""osname"":""Windows"",""osversion"":""10"",""a"":true}","9:19:19","1","4","Test_1","70","j","0","1435.4000000059605","1280 x 720","1280 x 720","true","1","0","","","","",""
"null","<p style=""font-size: 80px;"">+ 10 points</p>","null","html-keyboard-response","18","273285","0.0-11.0-2.17","5c6bc7a15028140001710963","owerx4","AH","33","F","{""name"":""Chrome"",""chrome"":true,""version"":""106.0"",""blink"":true,""windows"":true,""osname"":""Windows"",""osversion"":""10"",""a"":true}","9:19:19","1","4","Test_4","70","f","1","1170.7999999821186","1280 x 720","1280 x 720","true","1","10","","","","",""
"null","<p style=""font-size: 80px;"">+ 10 points</p>","null","html-keyboard-response","19","276244","0.0-11.0-2.18","5c6bc7a15028140001710963","owerx4","AH","33","F","{""name"":""Chrome"",""chrome"":true,""version"":""106.0"",""blink"":true,""windows"":true,""osname"":""Windows"",""osversion"":""10"",""a"":true}","9:19:19","1","4","Test_1","74","j","1","931.2000000178814","1280 x 720","1280 x 720","true","1","10","","","","",""
"null","<p style=""font-size: 80px;"">+ 10 points</p>","null","html-keyboard-response","20","280010","0.0-11.0-2.19","5c6bc7a15028140001710963","owerx4","AH","33","F","{""name"":""Chrome"",""chrome"":true,""version"":""106.0"",""blink"":true,""windows"":true,""osname"":""Windows"",""osversion"":""10"",""a"":true}","9:19:19","1","4","Test_3","74","j","1","1749.7000000178814","1280 x 720","1280 x 720","true","1","10","","","","",""
"null","<p style=""font-size: 80px;"">+ 10 points</p>","null","html-keyboard-response","21","283140","0.0-11.0-2.20","5c6bc7a15028140001710963","owerx4","AH","33","F","{""name"":""Chrome"",""chrome"":true,""version"":""106.0"",""blink"":true,""windows"":true,""osname"":""Windows"",""osversion"":""10"",""a"":true}","9:19:19","1","4","Test_1","74","j","1","1104.9000000059605","1280 x 720","1280 x 720","true","1","10","","","","",""
"null","<p style=""font-size: 80px;"">+ 10 points</p>","null","html-keyboard-response","22","285815","0.0-11.0-2.21","5c6bc7a15028140001710963","owerx4","AH","33","F","{""name"":""Chrome"",""chrome"":true,""version"":""106.0"",""blink"":true,""windows"":true,""osname"":""Windows"",""osversion"":""10"",""a"":true}","9:19:19","1","4","Test_1","74","j","1","651.6000000238419","1280 x 720","1280 x 720","true","1","10","","","","",""
"null","<p style=""font-size: 80px;"">+ 10 points</p>","null","html-keyboard-response","23","289127","0.0-11.0-2.22","5c6bc7a15028140001710963","owerx4","AH","33","F","{""name"":""Chrome"",""chrome"":true,""version"":""106.0"",""blink"":true,""windows"":true,""osname"":""Windows"",""osversion"":""10"",""a"":true}","9:19:19","1","4","Test_3","74","j","1","1297.5","1280 x 720","1280 x 720","true","1","10","","","","",""
"null","<p style=""font-size: 80px;"">+ 10 points</p>","null","html-keyboard-response","24","292212","0.0-11.0-2.23","5c6bc7a15028140001710963","owerx4","AH","33","F","{""name"":""Chrome"",""chrome"":true,""version"":""106.0"",""blink"":true,""windows"":true,""osname"":""Windows"",""osversion"":""10"",""a"":true}","9:19:19","1","4","Test_1","74","j","1","1153.9000000059605","1280 x 720","1280 x 720","true","1","10","","","","",""
"null","<p style=""font-size: 80px;"">+ 10 points</p>","null","html-keyboard-response","25","295086","0.0-11.0-2.24","5c6bc7a15028140001710963","owerx4","AH","33","F","{""name"":""Chrome"",""chrome"":true,""version"":""106.0"",""blink"":true,""windows"":true,""osname"":""Windows"",""osversion"":""10"",""a"":true}","9:19:19","1","4","Test_2","70","f","1","846.8000000119209","1280 x 720","1280 x 720","true","1","10","","","","",""
"null","<p style=""font-size: 80px;"">+ 10 points</p>","null","html-keyboard-response","26","298387","0.0-11.0-2.25","5c6bc7a15028140001710963","owerx4","AH","33","F","{""name"":""Chrome"",""chrome"":true,""version"":""106.0"",""blink"":true,""windows"":true,""osname"":""Windows"",""osversion"":""10"",""a"":true}","9:19:19","1","4","Test_3","74","j","1","1286","1280 x 720","1280 x 720","true","1","10","","","","",""
"null","<p style=""font-size: 80px;"">+ 10 points</p>","null","html-keyboard-response","27","301791","0.0-11.0-2.26","5c6bc7a15028140001710963","owerx4","AH","33","F","{""name"":""Chrome"",""chrome"":true,""version"":""106.0"",""blink"":true,""windows"":true,""osname"":""Windows"",""osversion"":""10"",""a"":true}","9:19:19","1","4","Test_2","70","f","1","1385.7000000178814","1280 x 720","1280 x 720","true","1","10","","","","",""
"null","<p style=""font-size: 80px;"">+ 10 points</p>","null","html-keyboard-response","28","304883","0.0-11.0-2.27","5c6bc7a15028140001710963","owerx4","AH","33","F","{""name"":""Chrome"",""chrome"":true,""version"":""106.0"",""blink"":true,""windows"":true,""osname"":""Windows"",""osversion"":""10"",""a"":true}","9:19:19","1","4","Test_2","70","f","1","1072.199999988079","1280 x 720","1280 x 720","true","1","10","","","","",""
"null","<p style=""font-size: 80px;"">+ 10 points</p>","null","html-keyboard-response","29","308059","0.0-11.0-2.28","5c6bc7a15028140001710963","owerx4","AH","33","F","{""name"":""Chrome"",""chrome"":true,""version"":""106.0"",""blink"":true,""windows"":true,""osname"":""Windows"",""osversion"":""10"",""a"":true}","9:19:19","1","4","Test_4","70","f","1","1157.4000000059605","1280 x 720","1280 x 720","true","1","10","","","","",""
"null","<p style=""font-size: 80px;"">+ 10 points</p>","null","html-keyboard-response","30","311230","0.0-11.0-2.29","5c6bc7a15028140001710963","owerx4","AH","33","F","{""name"":""Chrome"",""chrome"":true,""version"":""106.0"",""blink"":true,""windows"":true,""osname"":""Windows"",""osversion"":""10"",""a"":true}","9:19:19","1","4","Test_3","74","j","1","1129.800000011921","1280 x 720","1280 x 720","true","1","10","","","","",""
"null","<p style=""font-size: 80px;"">+ 10 points</p>","null","html-keyboard-response","31","314874","0.0-11.0-2.30","5c6bc7a15028140001710963","owerx4","AH","33","F","{""name"":""Chrome"",""chrome"":true,""version"":""106.0"",""blink"":true,""windows"":true,""osname"":""Windows"",""osversion"":""10"",""a"":true}","9:19:19","1","4","Test_2","70","f","1","1624.300000011921","1280 x 720","1280 x 720","true","1","10","","","","",""
"null","<p style=""font-size: 80px;"">+ 10 points</p>","null","html-keyboard-response","32","318862","0.0-11.0-2.31","5c6bc7a15028140001710963","owerx4","AH","33","F","{""name"":""Chrome"",""chrome"":true,""version"":""106.0"",""blink"":true,""windows"":true,""osname"":""Windows"",""osversion"":""10"",""a"":true}","9:19:19","1","4","Test_2","70","f","1","1973.8999999761581","1280 x 720","1280 x 720","true","1","10","","","","",""
"null","<p style=""font-size: 80px;"">+ 10 points</p>","null","html-keyboard-response","33","322748","0.0-11.0-2.32","5c6bc7a15028140001710963","owerx4","AH","33","F","{""name"":""Chrome"",""chrome"":true,""version"":""106.0"",""blink"":true,""windows"":true,""osname"":""Windows"",""osversion"":""10"",""a"":true}","9:19:19","1","4","Test_2","70","f","1","1866.5","1280 x 720","1280 x 720","true","1","10","","","","",""
"null","<p style=""font-size: 80px;"">+ 10 points</p>","null","html-keyboard-response","34","328030","0.0-11.0-2.33","5c6bc7a15028140001710963","owerx4","AH","33","F","{""name"":""Chrome"",""chrome"":true,""version"":""106.0"",""blink"":true,""windows"":true,""osname"":""Windows"",""osversion"":""10"",""a"":true}","9:19:19","1","4","Test_4","70","f","1","3259.9000000059605","1280 x 720","1280 x 720","true","1","10","","","","",""
"null","<p style=""font-size: 80px;"">+ 10 points</p>","null","html-keyboard-response","35","331666","0.0-11.0-2.34","5c6bc7a15028140001710963","owerx4","AH","33","F","{""name"":""Chrome"",""chrome"":true,""version"":""106.0"",""blink"":true,""windows"":true,""osname"":""Windows"",""osversion"":""10"",""a"":true}","9:19:19","1","4","Test_4","70","f","1","1596.0999999940395","1280 x 720","1280 x 720","true","1","10","","","","",""
"null","<p style=""font-size: 80px;"">+ 10 points</p>","null","html-keyboard-response","36","335735","0.0-11.0-2.35","5c6bc7a15028140001710963","owerx4","AH","33","F","{""name"":""Chrome"",""chrome"":true,""version"":""106.0"",""blink"":true,""windows"":true,""osname"":""Windows"",""osversion"":""10"",""a"":true}","9:19:19","1","4","Test_3","74","j","1","2038.800000011921","1280 x 720","1280 x 720","true","1","10","","","","",""
"null","<p style=""font-size: 80px;"">+ 10 points</p>","null","html-keyboard-response","37","340668","0.0-11.0-2.36","5c6bc7a15028140001710963","owerx4","AH","33","F","{""name"":""Chrome"",""chrome"":true,""version"":""106.0"",""blink"":true,""windows"":true,""osname"":""Windows"",""osversion"":""10"",""a"":true}","9:19:19","1","4","Test_1","74","j","1","2915.600000023842","1280 x 720","1280 x 720","true","1","10","","","","",""
"null","<p style=""font-size: 80px;"">+ 10 points</p>","null","html-keyboard-response","38","344162","0.0-11.0-2.37","5c6bc7a15028140001710963","owerx4","AH","33","F","{""name"":""Chrome"",""chrome"":true,""version"":""106.0"",""blink"":true,""windows"":true,""osname"":""Windows"",""osversion"":""10"",""a"":true}","9:19:19","1","4","Test_4","70","f","1","1479","1280 x 720","1280 x 720","true","1","10","","","","",""
"null","<p style=""font-size: 80px;"">+ 10 points</p>","null","html-keyboard-response","39","348409","0.0-11.0-2.38","5c6bc7a15028140001710963","owerx4","AH","33","F","{""name"":""Chrome"",""chrome"":true,""version"":""106.0"",""blink"":true,""windows"":true,""osname"":""Windows"",""osversion"":""10"",""a"":true}","9:19:19","1","4","Test_3","74","j","1","2214.9000000059605","1280 x 720","1280 x 720","true","1","10","","","","",""
"null","<p style=""font-size: 80px;"">+ 0 points</p>","null","html-keyboard-response","40","352034","0.0-11.0-2.39","5c6bc7a15028140001710963","owerx4","AH","33","F","{""name"":""Chrome"",""chrome"":true,""version"":""106.0"",""blink"":true,""windows"":true,""osname"":""Windows"",""osversion"":""10"",""a"":true}","9:19:19","1","3","Test_3","74","f","0","1702.7000000178814","1280 x 720","1280 x 720","true","1","0","","","","",""
"null","<p style=""font-size: 80px;"">+ 10 points</p>","null","html-keyboard-response","41","354683","0.0-11.0-2.40","5c6bc7a15028140001710963","owerx4","AH","33","F","{""name"":""Chrome"",""chrome"":true,""version"":""106.0"",""blink"":true,""windows"":true,""osname"":""Windows"",""osversion"":""10"",""a"":true}","9:19:19","1","3","Test_2","74","j","1","621.1999999880791","1280 x 720","1280 x 720","true","1","10","","","","",""
"null","<p style=""font-size: 80px;"">+ 10 points</p>","null","html-keyboard-response","42","357296","0.0-11.0-2.41","5c6bc7a15028140001710963","owerx4","AH","33","F","{""name"":""Chrome"",""chrome"":true,""version"":""106.0"",""blink"":true,""windows"":true,""osname"":""Windows"",""osversion"":""10"",""a"":true}","9:19:19","1","3","Test_2","74","j","1","583.6999999880791","1280 x 720","1280 x 720","true","1","10","","","","",""
"null","<p style=""font-size: 80px;"">+ 10 points</p>","null","html-keyboard-response","43","360896","0.0-11.0-2.42","5c6bc7a15028140001710963","owerx4","AH","33","F","{""name"":""Chrome"",""chrome"":true,""version"":""106.0"",""blink"":true,""windows"":true,""osname"":""Windows"",""osversion"":""10"",""a"":true}","9:19:19","1","3","Test_4","74","j","1","1582.699999988079","1280 x 720","1280 x 720","true","1","10","","","","",""
"null","<p style=""font-size: 80px;"">+ 10 points</p>","null","html-keyboard-response","44","363431","0.0-11.0-2.43","5c6bc7a15028140001710963","owerx4","AH","33","F","{""name"":""Chrome"",""chrome"":true,""version"":""106.0"",""blink"":true,""windows"":true,""osname"":""Windows"",""osversion"":""10"",""a"":true}","9:19:19","1","3","Test_4","74","j","1","508.40000000596046","1280 x 720","1280 x 720","true","1","10","","","","",""
"null","<p style=""font-size: 80px;"">+ 10 points</p>","null","html-keyboard-response","45","366176","0.0-11.0-2.44","5c6bc7a15028140001710963","owerx4","AH","33","F","{""name"":""Chrome"",""chrome"":true,""version"":""106.0"",""blink"":true,""windows"":true,""osname"":""Windows"",""osversion"":""10"",""a"":true}","9:19:19","1","3","Test_3","70","f","1","724.4000000059605","1280 x 720","1280 x 720","true","1","10","","","","",""
"null","<p style=""font-size: 80px;"">+ 10 points</p>","null","html-keyboard-response","46","369052","0.0-11.0-2.45","5c6bc7a15028140001710963","owerx4","AH","33","F","{""name"":""Chrome"",""chrome"":true,""version"":""106.0"",""blink"":true,""windows"":true,""osname"":""Windows"",""osversion"":""10"",""a"":true}","9:19:19","1","3","Test_3","70","f","1","837","1280 x 720","1280 x 720","true","1","10","","","","",""
"null","<p style=""font-size: 80px;"">+ 10 points</p>","null","html-keyboard-response","47","372632","0.0-11.0-2.46","5c6bc7a15028140001710963","owerx4","AH","33","F","{""name"":""Chrome"",""chrome"":true,""version"":""106.0"",""blink"":true,""windows"":true,""osname"":""Windows"",""osversion"":""10"",""a"":true}","9:19:19","1","3","Test_3","70","f","1","1554","1280 x 720","1280 x 720","true","1","10","","","","",""
"null","<p style=""font-size: 80px;"">+ 10 points</p>","null","html-keyboard-response","48","378679","0.0-11.0-2.47","5c6bc7a15028140001710963","owerx4","AH","33","F","{""name"":""Chrome"",""chrome"":true,""version"":""106.0"",""blink"":true,""windows"":true,""osname"":""Windows"",""osversion"":""10"",""a"":true}","9:19:19","1","3","Test_1","70","f","1","4022.7999999821186","1280 x 720","1280 x 720","true","1","10","","","","",""
"null","<p style=""font-size: 80px;"">+ 10 points</p>","null","html-keyboard-response","49","381574","0.0-11.0-2.48","5c6bc7a15028140001710963","owerx4","AH","33","F","{""name"":""Chrome"",""chrome"":true,""version"":""106.0"",""blink"":true,""windows"":true,""osname"":""Windows"",""osversion"":""10"",""a"":true}","9:19:19","1","3","Test_2","74","j","1","862.8000000119209","1280 x 720","1280 x 720","true","1","10","","","","",""
"null","<p style=""font-size: 80px;"">+ 10 points</p>","null","html-keyboard-response","50","384247","0.0-11.0-2.49","5c6bc7a15028140001710963","owerx4","AH","33","F","{""name"":""Chrome"",""chrome"":true,""version"":""106.0"",""blink"":true,""windows"":true,""osname"":""Windows"",""osversion"":""10"",""a"":true}","9:19:19","1","3","Test_1","70","f","1","646.8999999761581","1280 x 720","1280 x 720","true","1","10","","","","",""
"null","<p style=""font-size: 80px;"">+ 10 points</p>","null","html-keyboard-response","51","387873","0.0-11.0-2.50","5c6bc7a15028140001710963","owerx4","AH","33","F","{""name"":""Chrome"",""chrome"":true,""version"":""106.0"",""blink"":true,""windows"":true,""osname"":""Windows"",""osversion"":""10"",""a"":true}","9:19:19","1","3","Test_2","74","j","1","1592.199999988079","1280 x 720","1280 x 720","true","1","10","","","","",""
"null","<p style=""font-size: 80px;"">+ 10 points</p>","null","html-keyboard-response","52","393157","0.0-11.0-2.51","5c6bc7a15028140001710963","owerx4","AH","33","F","{""name"":""Chrome"",""chrome"":true,""version"":""106.0"",""blink"":true,""windows"":true,""osname"":""Windows"",""osversion"":""10"",""a"":true}","9:19:19","1","3","Test_1","70","f","1","3245.5","1280 x 720","1280 x 720","true","1","10","","","","",""
"null","<p style=""font-size: 80px;"">+ 10 points</p>","null","html-keyboard-response","53","396368","0.0-11.0-2.52","5c6bc7a15028140001710963","owerx4","AH","33","F","{""name"":""Chrome"",""chrome"":true,""version"":""106.0"",""blink"":true,""windows"":true,""osname"":""Windows"",""osversion"":""10"",""a"":true}","9:19:19","1","3","Test_4","74","j","1","1188.5","1280 x 720","1280 x 720","true","1","10","","","","",""
"null","<p style=""font-size: 80px;"">+ 10 points</p>","null","html-keyboard-response","54","399263","0.0-11.0-2.53","5c6bc7a15028140001710963","owerx4","AH","33","F","{""name"":""Chrome"",""chrome"":true,""version"":""106.0"",""blink"":true,""windows"":true,""osname"":""Windows"",""osversion"":""10"",""a"":true}","9:19:19","1","3","Test_1","70","f","1","876.7999999821186","1280 x 720","1280 x 720","true","1","10","","","","",""
"null","<p style=""font-size: 80px;"">+ 10 points</p>","null","html-keyboard-response","55","404115","0.0-11.0-2.54","5c6bc7a15028140001710963","owerx4","AH","33","F","{""name"":""Chrome"",""chrome"":true,""version"":""106.0"",""blink"":true,""windows"":true,""osname"":""Windows"",""osversion"":""10"",""a"":true}","9:19:19","1","3","Test_2","74","j","1","2831.4000000059605","1280 x 720","1280 x 720","true","1","10","","","","",""
"null","<p style=""font-size: 80px;"">+ 10 points</p>","null","html-keyboard-response","56","407878","0.0-11.0-2.55","5c6bc7a15028140001710963","owerx4","AH","33","F","{""name"":""Chrome"",""chrome"":true,""version"":""106.0"",""blink"":true,""windows"":true,""osname"":""Windows"",""osversion"":""10"",""a"":true}","9:19:19","1","3","Test_1","70","f","1","1740.199999988079","1280 x 720","1280 x 720","true","1","10","","","","",""
"null","<p style=""font-size: 80px;"">+ 10 points</p>","null","html-keyboard-response","57","411830","0.0-11.0-2.56","5c6bc7a15028140001710963","owerx4","AH","33","F","{""name"":""Chrome"",""chrome"":true,""version"":""106.0"",""blink"":true,""windows"":true,""osname"":""Windows"",""osversion"":""10"",""a"":true}","9:19:19","1","3","Test_4","74","j","1","1934.4000000059605","1280 x 720","1280 x 720","true","1","10","","","","",""
"null","<p style=""font-size: 80px;"">+ 0 points</p>","null","html-keyboard-response","58","414394","0.0-11.0-2.57","5c6bc7a15028140001710963","owerx4","AH","33","F","{""name"":""Chrome"",""chrome"":true,""version"":""106.0"",""blink"":true,""windows"":true,""osname"":""Windows"",""osversion"":""10"",""a"":true}","9:19:19","1","4","Test_2","74","f","0","625.4000000059605","1280 x 720","1280 x 720","true","1","0","","","","",""
"null","<p style=""font-size: 80px;"">+ 10 points</p>","null","html-keyboard-response","59","418319","0.0-11.0-2.58","5c6bc7a15028140001710963","owerx4","AH","33","F","{""name"":""Chrome"",""chrome"":true,""version"":""106.0"",""blink"":true,""windows"":true,""osname"":""Windows"",""osversion"":""10"",""a"":true}","9:19:19","1","4","Test_1","74","j","1","1912.2999999821186","1280 x 720","1280 x 720","true","1","10","","","","",""
"null","<p style=""font-size: 80px;"">+ 10 points</p>","null","html-keyboard-response","60","421212","0.0-11.0-2.59","5c6bc7a15028140001710963","owerx4","AH","33","F","{""name"":""Chrome"",""chrome"":true,""version"":""106.0"",""blink"":true,""windows"":true,""osname"":""Windows"",""osversion"":""10"",""a"":true}","9:19:19","1","4","Test_4","70","f","1","873.8000000119209","1280 x 720","1280 x 720","true","1","10","","","","",""
"null","<p style=""font-size: 80px;"">+ 10 points</p>","null","html-keyboard-response","61","423979","0.0-11.0-2.60","5c6bc7a15028140001710963","owerx4","AH","33","F","{""name"":""Chrome"",""chrome"":true,""version"":""106.0"",""blink"":true,""windows"":true,""osname"":""Windows"",""osversion"":""10"",""a"":true}","9:19:19","1","4","Test_3","74","j","1","758.5","1280 x 720","1280 x 720","true","1","10","","","","",""
"null","<p style=""font-size: 80px;"">+ 10 points</p>","null","html-keyboard-response","62","426826","0.0-11.0-2.61","5c6bc7a15028140001710963","owerx4","AH","33","F","{""name"":""Chrome"",""chrome"":true,""version"":""106.0"",""blink"":true,""windows"":true,""osname"":""Windows"",""osversion"":""10"",""a"":true}","9:19:19","1","4","Test_3","74","j","1","831.6999999880791","1280 x 720","1280 x 720","true","1","10","","","","",""
"null","<p style=""font-size: 80px;"">+ 10 points</p>","null","html-keyboard-response","63","429742","0.0-11.0-2.62","5c6bc7a15028140001710963","owerx4","AH","33","F","{""name"":""Chrome"",""chrome"":true,""version"":""106.0"",""blink"":true,""windows"":true,""osname"":""Windows"",""osversion"":""10"",""a"":true}","9:19:19","1","4","Test_1","74","j","1","886.5","1280 x 720","1280 x 720","true","1","10","","","","",""
"null","<p style=""font-size: 80px;"">+ 10 points</p>","null","html-keyboard-response","64","433469","0.0-11.0-2.63","5c6bc7a15028140001710963","owerx4","AH","33","F","{""name"":""Chrome"",""chrome"":true,""version"":""106.0"",""blink"":true,""windows"":true,""osname"":""Windows"",""osversion"":""10"",""a"":true}","9:19:19","1","4","Test_2","70","f","1","1701.300000011921","1280 x 720","1280 x 720","true","1","10","","","","",""
"null","<p style=""font-size: 80px;"">+ 10 points</p>","null","html-keyboard-response","65","439509","0.0-11.0-2.64","5c6bc7a15028140001710963","owerx4","AH","33","F","{""name"":""Chrome"",""chrome"":true,""version"":""106.0"",""blink"":true,""windows"":true,""osname"":""Windows"",""osversion"":""10"",""a"":true}","9:19:19","1","4","Test_2","70","f","1","3990","1280 x 720","1280 x 720","true","1","10","","","","",""
"null","<p style=""font-size: 80px;"">+ 10 points</p>","null","html-keyboard-response","66","445451","0.0-11.0-2.65","5c6bc7a15028140001710963","owerx4","AH","33","F","{""name"":""Chrome"",""chrome"":true,""version"":""106.0"",""blink"":true,""windows"":true,""osname"":""Windows"",""osversion"":""10"",""a"":true}","9:19:19","1","4","Test_3","74","j","1","3916.4000000059605","1280 x 720","1280 x 720","true","1","10","","","","",""
"null","<p style=""font-size: 80px;"">+ 10 points</p>","null","html-keyboard-response","67","448237","0.0-11.0-2.66","5c6bc7a15028140001710963","owerx4","AH","33","F","{""name"":""Chrome"",""chrome"":true,""version"":""106.0"",""blink"":true,""windows"":true,""osname"":""Windows"",""osversion"":""10"",""a"":true}","9:19:19","1","4","Test_3","74","j","1","751.3999999761581","1280 x 720","1280 x 720","true","1","10","","","","",""
"null","<p style=""font-size: 80px;"">+ 10 points</p>","null","html-keyboard-response","68","450847","0.0-11.0-2.67","5c6bc7a15028140001710963","owerx4","AH","33","F","{""name"":""Chrome"",""chrome"":true,""version"":""106.0"",""blink"":true,""windows"":true,""osname"":""Windows"",""osversion"":""10"",""a"":true}","9:19:19","1","4","Test_2","70","f","1","582.5999999940395","1280 x 720","1280 x 720","true","1","10","","","","",""
"null","<p style=""font-size: 80px;"">+ 10 points</p>","null","html-keyboard-response","69","453593","0.0-11.0-2.68","5c6bc7a15028140001710963","owerx4","AH","33","F","{""name"":""Chrome"",""chrome"":true,""version"":""106.0"",""blink"":true,""windows"":true,""osname"":""Windows"",""osversion"":""10"",""a"":true}","9:19:19","1","4","Test_4","70","f","1","714","1280 x 720","1280 x 720","true","1","10","","","","",""
"null","<p style=""font-size: 80px;"">+ 10 points</p>","null","html-keyboard-response","70","456192","0.0-11.0-2.69","5c6bc7a15028140001710963","owerx4","AH","33","F","{""name"":""Chrome"",""chrome"":true,""version"":""106.0"",""blink"":true,""windows"":true,""osname"":""Windows"",""osversion"":""10"",""a"":true}","9:19:19","1","4","Test_1","74","j","1","556.6999999880791","1280 x 720","1280 x 720","true","1","10","","","","",""
"null","<p style=""font-size: 80px;"">+ 10 points</p>","null","html-keyboard-response","71","459063","0.0-11.0-2.70","5c6bc7a15028140001710963","owerx4","AH","33","F","{""name"":""Chrome"",""chrome"":true,""version"":""106.0"",""blink"":true,""windows"":true,""osname"":""Windows"",""osversion"":""10"",""a"":true}","9:19:19","1","4","Test_1","74","j","1","841.7000000178814","1280 x 720","1280 x 720","true","1","10","","","","",""
"null","<p style=""font-size: 80px;"">+ 10 points</p>","null","html-keyboard-response","72","461750","0.0-11.0-2.71","5c6bc7a15028140001710963","owerx4","AH","33","F","{""name"":""Chrome"",""chrome"":true,""version"":""106.0"",""blink"":true,""windows"":true,""osname"":""Windows"",""osversion"":""10"",""a"":true}","9:19:19","1","4","Test_1","74","j","1","654.4000000059605","1280 x 720","1280 x 720","true","1","10","","","","",""
"null","<p style=""font-size: 80px;"">+ 10 points</p>","null","html-keyboard-response","73","465655","0.0-11.0-2.72","5c6bc7a15028140001710963","owerx4","AH","33","F","{""name"":""Chrome"",""chrome"":true,""version"":""106.0"",""blink"":true,""windows"":true,""osname"":""Windows"",""osversion"":""10"",""a"":true}","9:19:19","1","4","Test_3","74","j","1","1875.0999999940395","1280 x 720","1280 x 720","true","1","10","","","","",""
"null","<p style=""font-size: 80px;"">+ 10 points</p>","null","html-keyboard-response","74","468476","0.0-11.0-2.73","5c6bc7a15028140001710963","owerx4","AH","33","F","{""name"":""Chrome"",""chrome"":true,""version"":""106.0"",""blink"":true,""windows"":true,""osname"":""Windows"",""osversion"":""10"",""a"":true}","9:19:19","1","4","Test_2","70","f","1","792.8000000119209","1280 x 720","1280 x 720","true","1","10","","","","",""
"null","<p style=""font-size: 80px;"">+ 0 points</p>","null","html-keyboard-response","75","471443","0.0-11.0-2.74","5c6bc7a15028140001710963","owerx4","AH","33","F","{""name"":""Chrome"",""chrome"":true,""version"":""106.0"",""blink"":true,""windows"":true,""osname"":""Windows"",""osversion"":""10"",""a"":true}","9:19:19","1","3","Test_2","70","j","0","947","1280 x 720","1280 x 720","true","1","0","","","","",""
"null","<p style=""font-size: 80px;"">+ 10 points</p>","null","html-keyboard-response","76","474324","0.0-11.0-2.75","5c6bc7a15028140001710963","owerx4","AH","33","F","{""name"":""Chrome"",""chrome"":true,""version"":""106.0"",""blink"":true,""windows"":true,""osname"":""Windows"",""osversion"":""10"",""a"":true}","9:19:19","1","3","Test_1","70","f","1","892.7000000178814","1280 x 720","1280 x 720","true","1","10","","","","",""
"null","<p style=""font-size: 80px;"">+ 10 points</p>","null","html-keyboard-response","77","476930","0.0-11.0-2.76","5c6bc7a15028140001710963","owerx4","AH","33","F","{""name"":""Chrome"",""chrome"":true,""version"":""106.0"",""blink"":true,""windows"":true,""osname"":""Windows"",""osversion"":""10"",""a"":true}","9:19:19","1","3","Test_2","74","j","1","595.2000000178814","1280 x 720","1280 x 720","true","1","10","","","","",""
"null","<p style=""font-size: 80px;"">+ 10 points</p>","null","html-keyboard-response","78","481644","0.0-11.0-2.77","5c6bc7a15028140001710963","owerx4","AH","33","F","{""name"":""Chrome"",""chrome"":true,""version"":""106.0"",""blink"":true,""windows"":true,""osname"":""Windows"",""osversion"":""10"",""a"":true}","9:19:19","1","3","Test_1","70","f","1","2703.4000000059605","1280 x 720","1280 x 720","true","1","10","","","","",""
"null","<p style=""font-size: 80px;"">+ 10 points</p>","null","html-keyboard-response","79","484277","0.0-11.0-2.78","5c6bc7a15028140001710963","owerx4","AH","33","F","{""name"":""Chrome"",""chrome"":true,""version"":""106.0"",""blink"":true,""windows"":true,""osname"":""Windows"",""osversion"":""10"",""a"":true}","9:19:19","1","3","Test_4","74","j","1","600.5999999940395","1280 x 720","1280 x 720","true","1","10","","","","",""
"null","<p style=""font-size: 80px;"">+ 10 points</p>","null","html-keyboard-response","80","486930","0.0-11.0-2.79","5c6bc7a15028140001710963","owerx4","AH","33","F","{""name"":""Chrome"",""chrome"":true,""version"":""106.0"",""blink"":true,""windows"":true,""osname"":""Windows"",""osversion"":""10"",""a"":true}","9:19:19","1","3","Test_3","70","f","1","637.0999999940395","1280 x 720","1280 x 720","true","1","10","","","","",""
"null","<p style=""font-size: 80px;"">+ 10 points</p>","null","html-keyboard-response","81","490391","0.0-11.0-2.80","5c6bc7a15028140001710963","owerx4","AH","33","F","{""name"":""Chrome"",""chrome"":true,""version"":""106.0"",""blink"":true,""windows"":true,""osname"":""Windows"",""osversion"":""10"",""a"":true}","9:19:19","1","3","Test_2","74","j","1","1438.7000000178814","1280 x 720","1280 x 720","true","1","10","","","","",""
"null","<p style=""font-size: 80px;"">+ 10 points</p>","null","html-keyboard-response","82","493514","0.0-11.0-2.81","5c6bc7a15028140001710963","owerx4","AH","33","F","{""name"":""Chrome"",""chrome"":true,""version"":""106.0"",""blink"":true,""windows"":true,""osname"":""Windows"",""osversion"":""10"",""a"":true}","9:19:19","1","3","Test_3","70","f","1","1084.9000000059605","1280 x 720","1280 x 720","true","1","10","","","","",""
"null","<p style=""font-size: 80px;"">+ 10 points</p>","null","html-keyboard-response","83","497079","0.0-11.0-2.82","5c6bc7a15028140001710963","owerx4","AH","33","F","{""name"":""Chrome"",""chrome"":true,""version"":""106.0"",""blink"":true,""windows"":true,""osname"":""Windows"",""osversion"":""10"",""a"":true}","9:19:19","1","3","Test_1","70","f","1","1534","1280 x 720","1280 x 720","true","1","10","","","","",""
"null","<p style=""font-size: 80px;"">+ 10 points</p>","null","html-keyboard-response","84","500205","0.0-11.0-2.83","5c6bc7a15028140001710963","owerx4","AH","33","F","{""name"":""Chrome"",""chrome"":true,""version"":""106.0"",""blink"":true,""windows"":true,""osname"":""Windows"",""osversion"":""10"",""a"":true}","9:19:19","1","3","Test_4","74","j","1","1103.5999999940395","1280 x 720","1280 x 720","true","1","10","","","","",""
"null","<p style=""font-size: 80px;"">+ 10 points</p>","null","html-keyboard-response","85","506035","0.0-11.0-2.84","5c6bc7a15028140001710963","owerx4","AH","33","F","{""name"":""Chrome"",""chrome"":true,""version"":""106.0"",""blink"":true,""windows"":true,""osname"":""Windows"",""osversion"":""10"",""a"":true}","9:19:19","1","3","Test_2","74","j","1","3822.5999999940395","1280 x 720","1280 x 720","true","1","10","","","","",""
"null","<p style=""font-size: 80px;"">+ 10 points</p>","null","html-keyboard-response","86","509188","0.0-11.0-2.85","5c6bc7a15028140001710963","owerx4","AH","33","F","{""name"":""Chrome"",""chrome"":true,""version"":""106.0"",""blink"":true,""windows"":true,""osname"":""Windows"",""osversion"":""10"",""a"":true}","9:19:19","1","3","Test_1","70","f","1","1147","1280 x 720","1280 x 720","true","1","10","","","","",""
"null","<p style=""font-size: 80px;"">+ 10 points</p>","null","html-keyboard-response","87","513905","0.0-11.0-2.86","5c6bc7a15028140001710963","owerx4","AH","33","F","{""name"":""Chrome"",""chrome"":true,""version"":""106.0"",""blink"":true,""windows"":true,""osname"":""Windows"",""osversion"":""10"",""a"":true}","9:19:19","1","3","Test_3","70","f","1","2705.5","1280 x 720","1280 x 720","true","1","10","","","","",""
"null","<p style=""font-size: 80px;"">+ 10 points</p>","null","html-keyboard-response","88","516747","0.0-11.0-2.87","5c6bc7a15028140001710963","owerx4","AH","33","F","{""name"":""Chrome"",""chrome"":true,""version"":""106.0"",""blink"":true,""windows"":true,""osname"":""Windows"",""osversion"":""10"",""a"":true}","9:19:19","1","3","Test_4","74","j","1","825.8000000119209","1280 x 720","1280 x 720","true","1","10","","","","",""
"null","<p style=""font-size: 80px;"">+ 10 points</p>","null","html-keyboard-response","89","519649","0.0-11.0-2.88","5c6bc7a15028140001710963","owerx4","AH","33","F","{""name"":""Chrome"",""chrome"":true,""version"":""106.0"",""blink"":true,""windows"":true,""osname"":""Windows"",""osversion"":""10"",""a"":true}","9:19:19","1","3","Test_2","74","j","1","871.5","1280 x 720","1280 x 720","true","1","10","","","","",""
"null","<p style=""font-size: 80px;"">+ 10 points</p>","null","html-keyboard-response","90","522626","0.0-11.0-2.89","5c6bc7a15028140001710963","owerx4","AH","33","F","{""name"":""Chrome"",""chrome"":true,""version"":""106.0"",""blink"":true,""windows"":true,""osname"":""Windows"",""osversion"":""10"",""a"":true}","9:19:19","1","3","Test_4","74","j","1","950.8000000119209","1280 x 720","1280 x 720","true","1","10","","","","",""
"null","<p style=""font-size: 80px;"">+ 10 points</p>","null","html-keyboard-response","91","525300","0.0-11.0-2.90","5c6bc7a15028140001710963","owerx4","AH","33","F","{""name"":""Chrome"",""chrome"":true,""version"":""106.0"",""blink"":true,""windows"":true,""osname"":""Windows"",""osversion"":""10"",""a"":true}","9:19:19","1","3","Test_3","70","f","1","656.1999999880791","1280 x 720","1280 x 720","true","1","10","","","","",""
"null","<p style=""font-size: 80px;"">+ 10 points</p>","null","html-keyboard-response","92","528333","0.0-11.0-2.91","5c6bc7a15028140001710963","owerx4","AH","33","F","{""name"":""Chrome"",""chrome"":true,""version"":""106.0"",""blink"":true,""windows"":true,""osname"":""Windows"",""osversion"":""10"",""a"":true}","9:19:19","1","3","Test_3","70","f","1","1014.5","1280 x 720","1280 x 720","true","1","10","","","","",""
"null","<p style=""font-size: 80px;"">+ 10 points</p>","null","html-keyboard-response","93","531096","0.0-11.0-2.92","5c6bc7a15028140001710963","owerx4","AH","33","F","{""name"":""Chrome"",""chrome"":true,""version"":""106.0"",""blink"":true,""windows"":true,""osname"":""Windows"",""osversion"":""10"",""a"":true}","9:19:19","1","3","Test_4","74","j","1","741","1280 x 720","1280 x 720","true","1","10","","","","",""
"null","<p style=""font-size: 80px;"">+ 0 points</p>","null","html-keyboard-response","94","534270","0.0-11.0-2.93","5c6bc7a15028140001710963","owerx4","AH","33","F","{""name"":""Chrome"",""chrome"":true,""version"":""106.0"",""blink"":true,""windows"":true,""osname"":""Windows"",""osversion"":""10"",""a"":true}","9:19:19","1","4","Test_1","70","j","0","1152.4000000059605","1280 x 720","1280 x 720","true","1","0","","","","",""
"null","<p style=""font-size: 80px;"">+ 10 points</p>","null","html-keyboard-response","95","537441","0.0-11.0-2.94","5c6bc7a15028140001710963","owerx4","AH","33","F","{""name"":""Chrome"",""chrome"":true,""version"":""106.0"",""blink"":true,""windows"":true,""osname"":""Windows"",""osversion"":""10"",""a"":true}","9:19:19","1","4","Test_2","70","f","1","1150","1280 x 720","1280 x 720","true","1","10","","","","",""
"null","<p style=""font-size: 80px;"">+ 10 points</p>","null","html-keyboard-response","96","540656","0.0-11.0-2.95","5c6bc7a15028140001710963","owerx4","AH","33","F","{""name"":""Chrome"",""chrome"":true,""version"":""106.0"",""blink"":true,""windows"":true,""osname"":""Windows"",""osversion"":""10"",""a"":true}","9:19:19","1","4","Test_4","70","f","1","1181.699999988079","1280 x 720","1280 x 720","true","1","10","","","","",""
"null","<p style=""font-size: 80px;"">+ 10 points</p>","null","html-keyboard-response","97","543661","0.0-11.0-2.96","5c6bc7a15028140001710963","owerx4","AH","33","F","{""name"":""Chrome"",""chrome"":true,""version"":""106.0"",""blink"":true,""windows"":true,""osname"":""Windows"",""osversion"":""10"",""a"":true}","9:19:19","1","4","Test_2","70","f","1","992.7000000178814","1280 x 720","1280 x 720","true","1","10","","","","",""
"null","<p style=""font-size: 80px;"">+ 10 points</p>","null","html-keyboard-response","98","546398","0.0-11.0-2.97","5c6bc7a15028140001710963","owerx4","AH","33","F","{""name"":""Chrome"",""chrome"":true,""version"":""106.0"",""blink"":true,""windows"":true,""osname"":""Windows"",""osversion"":""10"",""a"":true}","9:19:19","1","4","Test_3","74","j","1","719.8000000119209","1280 x 720","1280 x 720","true","1","10","","","","",""
"null","<p style=""font-size: 80px;"">+ 10 points</p>","null","html-keyboard-response","99","549142","0.0-11.0-2.98","5c6bc7a15028140001710963","owerx4","AH","33","F","{""name"":""Chrome"",""chrome"":true,""version"":""106.0"",""blink"":true,""windows"":true,""osname"":""Windows"",""osversion"":""10"",""a"":true}","9:19:19","1","4","Test_4","70","f","1","723.5999999940395","1280 x 720","1280 x 720","true","1","10","","","","",""
"null","<p style=""font-size: 80px;"">+ 10 points</p>","null","html-keyboard-response","100","551711","0.0-11.0-2.99","5c6bc7a15028140001710963","owerx4","AH","33","F","{""name"":""Chrome"",""chrome"":true,""version"":""106.0"",""blink"":true,""windows"":true,""osname"":""Windows"",""osversion"":""10"",""a"":true}","9:19:19","1","4","Test_3","74","j","1","545.5999999940395","1280 x 720","1280 x 720","true","1","10","","","","",""
"null","<p style=""font-size: 80px;"">+ 10 points</p>","null","html-keyboard-response","101","554374","0.0-11.0-2.100","5c6bc7a15028140001710963","owerx4","AH","33","F","{""name"":""Chrome"",""chrome"":true,""version"":""106.0"",""blink"":true,""windows"":true,""osname"":""Windows"",""osversion"":""10"",""a"":true}","9:19:19","1","4","Test_4","70","f","1","653.2000000178814","1280 x 720","1280 x 720","true","1","10","","","","",""
"null","<p style=""font-size: 80px;"">+ 10 points</p>","null","html-keyboard-response","102","558950","0.0-11.0-2.101","5c6bc7a15028140001710963","owerx4","AH","33","F","{""name"":""Chrome"",""chrome"":true,""version"":""106.0"",""blink"":true,""windows"":true,""osname"":""Windows"",""osversion"":""10"",""a"":true}","9:19:19","1","4","Test_2","70","f","1","2545.5999999940395","1280 x 720","1280 x 720","true","1","10","","","","",""
"null","<p style=""font-size: 80px;"">+ 10 points</p>","null","html-keyboard-response","103","561721","0.0-11.0-2.102","5c6bc7a15028140001710963","owerx4","AH","33","F","{""name"":""Chrome"",""chrome"":true,""version"":""106.0"",""blink"":true,""windows"":true,""osname"":""Windows"",""osversion"":""10"",""a"":true}","9:19:19","1","4","Test_2","70","f","1","751.3000000119209","1280 x 720","1280 x 720","true","1","10","","","","",""
"null","<p style=""font-size: 80px;"">+ 10 points</p>","null","html-keyboard-response","104","564600","0.0-11.0-2.103","5c6bc7a15028140001710963","owerx4","AH","33","F","{""name"":""Chrome"",""chrome"":true,""version"":""106.0"",""blink"":true,""windows"":true,""osname"":""Windows"",""osversion"":""10"",""a"":true}","9:19:19","1","4","Test_3","74","j","1","865","1280 x 720","1280 x 720","true","1","10","","","","",""
"null","<p style=""font-size: 80px;"">+ 10 points</p>","null","html-keyboard-response","105","567724","0.0-11.0-2.104","5c6bc7a15028140001710963","owerx4","AH","33","F","{""name"":""Chrome"",""chrome"":true,""version"":""106.0"",""blink"":true,""windows"":true,""osname"":""Windows"",""osversion"":""10"",""a"":true}","9:19:19","1","4","Test_3","74","j","1","1107.9000000059605","1280 x 720","1280 x 720","true","1","10","","","","",""
"null","<p style=""font-size: 80px;"">+ 10 points</p>","null","html-keyboard-response","106","570634","0.0-11.0-2.105","5c6bc7a15028140001710963","owerx4","AH","33","F","{""name"":""Chrome"",""chrome"":true,""version"":""106.0"",""blink"":true,""windows"":true,""osname"":""Windows"",""osversion"":""10"",""a"":true}","9:19:19","1","4","Test_1","74","j","1","891.6999999880791","1280 x 720","1280 x 720","true","1","10","","","","",""
"null","<p style=""font-size: 80px;"">+ 10 points</p>","null","html-keyboard-response","107","573247","0.0-11.0-2.106","5c6bc7a15028140001710963","owerx4","AH","33","F","{""name"":""Chrome"",""chrome"":true,""version"":""106.0"",""blink"":true,""windows"":true,""osname"":""Windows"",""osversion"":""10"",""a"":true}","9:19:19","1","4","Test_1","74","j","1","601","1280 x 720","1280 x 720","true","1","10","","","","",""
"null","<p style=""font-size: 80px;"">+ 10 points</p>","null","html-keyboard-response","108","575997","0.0-11.0-2.107","5c6bc7a15028140001710963","owerx4","AH","33","F","{""name"":""Chrome"",""chrome"":true,""version"":""106.0"",""blink"":true,""windows"":true,""osname"":""Windows"",""osversion"":""10"",""a"":true}","9:19:19","1","4","Test_4","70","f","1","721","1280 x 720","1280 x 720","true","1","10","","","","",""
"null","<p style=""font-size: 80px;"">+ 10 points</p>","null","html-keyboard-response","109","578604","0.0-11.0-2.108","5c6bc7a15028140001710963","owerx4","AH","33","F","{""name"":""Chrome"",""chrome"":true,""version"":""106.0"",""blink"":true,""windows"":true,""osname"":""Windows"",""osversion"":""10"",""a"":true}","9:19:19","1","4","Test_4","70","f","1","574.5999999940395","1280 x 720","1280 x 720","true","1","10","","","","",""
"null","<p style=""font-size: 80px;"">+ 10 points</p>","null","html-keyboard-response","110","589993","0.0-11.0-2.109","5c6bc7a15028140001710963","owerx4","AH","33","F","{""name"":""Chrome"",""chrome"":true,""version"":""106.0"",""blink"":true,""windows"":true,""osname"":""Windows"",""osversion"":""10"",""a"":true}","9:19:19","1","4","Test_2","70","f","1","1022.3999999761581","1280 x 720","1280 x 720","true","1","10","","","","",""
"null","<p style=""font-size: 80px;"">+ 10 points</p>","null","html-keyboard-response","111","592538","0.0-11.0-2.110","5c6bc7a15028140001710963","owerx4","AH","33","F","{""name"":""Chrome"",""chrome"":true,""version"":""106.0"",""blink"":true,""windows"":true,""osname"":""Windows"",""osversion"":""10"",""a"":true}","9:19:19","1","4","Test_3","74","j","1","536.4000000059605","1280 x 720","1280 x 720","true","1","10","","","","",""
"null","<p style=""font-size: 80px;"">+ 10 points</p>","null","html-keyboard-response","112","595123","0.0-11.0-2.111","5c6bc7a15028140001710963","owerx4","AH","33","F","{""name"":""Chrome"",""chrome"":true,""version"":""106.0"",""blink"":true,""windows"":true,""osname"":""Windows"",""osversion"":""10"",""a"":true}","9:19:19","1","4","Test_1","74","j","1","579.7999999821186","1280 x 720","1280 x 720","true","1","10","","","","",""
"null","<p style=""font-size: 80px;"">+ 10 points</p>","null","html-keyboard-response","113","598537","0.0-11.0-2.112","5c6bc7a15028140001710963","owerx4","AH","33","F","{""name"":""Chrome"",""chrome"":true,""version"":""106.0"",""blink"":true,""windows"":true,""osname"":""Windows"",""osversion"":""10"",""a"":true}","9:19:19","1","4","Test_1","74","j","1","1394.800000011921","1280 x 720","1280 x 720","true","1","10","","","","",""
"null","<p style=""font-size: 80px;"">+ 10 points</p>","null","html-keyboard-response","114","601075","0.0-11.0-2.113","5c6bc7a15028140001710963","owerx4","AH","33","F","{""name"":""Chrome"",""chrome"":true,""version"":""106.0"",""blink"":true,""windows"":true,""osname"":""Windows"",""osversion"":""10"",""a"":true}","9:19:19","1","4","Test_2","70","f","1","497.40000000596046","1280 x 720","1280 x 720","true","1","10","","","","",""
"null","<p style=""font-size: 80px;"">+ 10 points</p>","null","html-keyboard-response","115","604139","0.0-11.0-2.114","5c6bc7a15028140001710963","owerx4","AH","33","F","{""name"":""Chrome"",""chrome"":true,""version"":""106.0"",""blink"":true,""windows"":true,""osname"":""Windows"",""osversion"":""10"",""a"":true}","9:19:19","1","4","Test_3","74","j","1","1042","1280 x 720","1280 x 720","true","1","10","","","","",""
"null","<p style=""font-size: 80px;"">+ 10 points</p>","null","html-keyboard-response","116","607378","0.0-11.0-2.115","5c6bc7a15028140001710963","owerx4","AH","33","F","{""name"":""Chrome"",""chrome"":true,""version"":""106.0"",""blink"":true,""windows"":true,""osname"":""Windows"",""osversion"":""10"",""a"":true}","9:19:19","1","4","Test_4","70","f","1","1223.0999999940395","1280 x 720","1280 x 720","true","1","10","","","","",""
"null","<p style=""font-size: 80px;"">+ 0 points</p>","null","html-keyboard-response","117","610065","0.0-11.0-2.116","5c6bc7a15028140001710963","owerx4","AH","33","F","{""name"":""Chrome"",""chrome"":true,""version"":""106.0"",""blink"":true,""windows"":true,""osname"":""Windows"",""osversion"":""10"",""a"":true}","9:19:19","1","3","Test_3","74","f","0","662.8000000119209","1280 x 720","1280 x 720","true","1","0","","","","",""
"null","<p style=""font-size: 80px;"">+ 10 points</p>","null","html-keyboard-response","118","612643","0.0-11.0-2.117","5c6bc7a15028140001710963","owerx4","AH","33","F","{""name"":""Chrome"",""chrome"":true,""version"":""106.0"",""blink"":true,""windows"":true,""osname"":""Windows"",""osversion"":""10"",""a"":true}","9:19:19","1","3","Test_3","70","f","1","554.0999999940395","1280 x 720","1280 x 720","true","1","10","","","","",""
"null","<p style=""font-size: 80px;"">+ 10 points</p>","null","html-keyboard-response","119","615311","0.0-11.0-2.118","5c6bc7a15028140001710963","owerx4","AH","33","F","{""name"":""Chrome"",""chrome"":true,""version"":""106.0"",""blink"":true,""windows"":true,""osname"":""Windows"",""osversion"":""10"",""a"":true}","9:19:19","1","3","Test_2","74","j","1","645.7999999821186","1280 x 720","1280 x 720","true","1","10","","","","",""
"null","<p style=""font-size: 80px;"">+ 10 points</p>","null","html-keyboard-response","120","617989","0.0-11.0-2.119","5c6bc7a15028140001710963","owerx4","AH","33","F","{""name"":""Chrome"",""chrome"":true,""version"":""106.0"",""blink"":true,""windows"":true,""osname"":""Windows"",""osversion"":""10"",""a"":true}","9:19:19","1","3","Test_2","74","j","1","650.4000000059605","1280 x 720","1280 x 720","true","1","10","","","","",""
"null","<p style=""font-size: 80px;"">+ 10 points</p>","null","html-keyboard-response","121","620650","0.0-11.0-2.120","5c6bc7a15028140001710963","owerx4","AH","33","F","{""name"":""Chrome"",""chrome"":true,""version"":""106.0"",""blink"":true,""windows"":true,""osname"":""Windows"",""osversion"":""10"",""a"":true}","9:19:19","1","3","Test_2","74","j","1","636.3000000119209","1280 x 720","1280 x 720","true","1","10","","","","",""
"null","<p style=""font-size: 80px;"">+ 10 points</p>","null","html-keyboard-response","122","623179","0.0-11.0-2.121","5c6bc7a15028140001710963","owerx4","AH","33","F","{""name"":""Chrome"",""chrome"":true,""version"":""106.0"",""blink"":true,""windows"":true,""osname"":""Windows"",""osversion"":""10"",""a"":true}","9:19:19","1","3","Test_3","70","f","1","510.40000000596046","1280 x 720","1280 x 720","true","1","10","","","","",""
"null","<p style=""font-size: 80px;"">+ 10 points</p>","null","html-keyboard-response","123","626249","0.0-11.0-2.122","5c6bc7a15028140001710963","owerx4","AH","33","F","{""name"":""Chrome"",""chrome"":true,""version"":""106.0"",""blink"":true,""windows"":true,""osname"":""Windows"",""osversion"":""10"",""a"":true}","9:19:19","1","3","Test_1","70","f","1","1041.300000011921","1280 x 720","1280 x 720","true","1","10","","","","",""
"null","<p style=""font-size: 80px;"">+ 10 points</p>","null","html-keyboard-response","124","628860","0.0-11.0-2.123","5c6bc7a15028140001710963","owerx4","AH","33","F","{""name"":""Chrome"",""chrome"":true,""version"":""106.0"",""blink"":true,""windows"":true,""osname"":""Windows"",""osversion"":""10"",""a"":true}","9:19:19","1","3","Test_2","74","j","1","583.5999999940395","1280 x 720","1280 x 720","true","1","10","","","","",""
"null","<p style=""font-size: 80px;"">+ 10 points</p>","null","html-keyboard-response","125","633044","0.0-11.0-2.124","5c6bc7a15028140001710963","owerx4","AH","33","F","{""name"":""Chrome"",""chrome"":true,""version"":""106.0"",""blink"":true,""windows"":true,""osname"":""Windows"",""osversion"":""10"",""a"":true}","9:19:19","1","3","Test_4","74","j","1","2167.5999999940395","1280 x 720","1280 x 720","true","1","10","","","","",""
"null","<p style=""font-size: 80px;"">+ 10 points</p>","null","html-keyboard-response","126","635860","0.0-11.0-2.125","5c6bc7a15028140001710963","owerx4","AH","33","F","{""name"":""Chrome"",""chrome"":true,""version"":""106.0"",""blink"":true,""windows"":true,""osname"":""Windows"",""osversion"":""10"",""a"":true}","9:19:19","1","3","Test_4","74","j","1","784.0999999940395","1280 x 720","1280 x 720","true","1","10","","","","",""
"null","<p style=""font-size: 80px;"">+ 10 points</p>","null","html-keyboard-response","127","638381","0.0-11.0-2.126","5c6bc7a15028140001710963","owerx4","AH","33","F","{""name"":""Chrome"",""chrome"":true,""version"":""106.0"",""blink"":true,""windows"":true,""osname"":""Windows"",""osversion"":""10"",""a"":true}","9:19:19","1","3","Test_1","70","f","1","489.59999999403954","1280 x 720","1280 x 720","true","1","10","","","","",""
"null","<p style=""font-size: 80px;"">+ 10 points</p>","null","html-keyboard-response","128","641063","0.0-11.0-2.127","5c6bc7a15028140001710963","owerx4","AH","33","F","{""name"":""Chrome"",""chrome"":true,""version"":""106.0"",""blink"":true,""windows"":true,""osname"":""Windows"",""osversion"":""10"",""a"":true}","9:19:19","1","3","Test_4","74","j","1","669.7000000178814","1280 x 720","1280 x 720","true","1","10","","","","",""
"null","<p style=""font-size: 80px;"">+ 10 points</p>","null","html-keyboard-response","129","643688","0.0-11.0-2.128","5c6bc7a15028140001710963","owerx4","AH","33","F","{""name"":""Chrome"",""chrome"":true,""version"":""106.0"",""blink"":true,""windows"":true,""osname"":""Windows"",""osversion"":""10"",""a"":true}","9:19:19","1","3","Test_1","70","f","1","613.0999999940395","1280 x 720","1280 x 720","true","1","10","","","","",""
"null","<p style=""font-size: 80px;"">+ 10 points</p>","null","html-keyboard-response","130","646241","0.0-11.0-2.129","5c6bc7a15028140001710963","owerx4","AH","33","F","{""name"":""Chrome"",""chrome"":true,""version"":""106.0"",""blink"":true,""windows"":true,""osname"":""Windows"",""osversion"":""10"",""a"":true}","9:19:19","1","3","Test_3","70","f","1","543.5999999940395","1280 x 720","1280 x 720","true","1","10","","","","",""
"null","<p style=""font-size: 80px;"">+ 10 points</p>","null","html-keyboard-response","131","648559","0.0-11.0-2.130","5c6bc7a15028140001710963","owerx4","AH","33","F","{""name"":""Chrome"",""chrome"":true,""version"":""106.0"",""blink"":true,""windows"":true,""osname"":""Windows"",""osversion"":""10"",""a"":true}","9:19:19","1","3","Test_1","70","f","1","297.5","1280 x 720","1280 x 720","true","1","10","","","","",""
"null","<p style=""font-size: 80px;"">+ 10 points</p>","null","html-keyboard-response","132","651090","0.0-11.0-2.131","5c6bc7a15028140001710963","owerx4","AH","33","F","{""name"":""Chrome"",""chrome"":true,""version"":""106.0"",""blink"":true,""windows"":true,""osname"":""Windows"",""osversion"":""10"",""a"":true}","9:19:19","1","3","Test_1","70","f","1","504.7000000178814","1280 x 720","1280 x 720","true","1","10","","","","",""
"null","<p style=""font-size: 80px;"">+ 10 points</p>","null","html-keyboard-response","133","653941","0.0-11.0-2.132","5c6bc7a15028140001710963","owerx4","AH","33","F","{""name"":""Chrome"",""chrome"":true,""version"":""106.0"",""blink"":true,""windows"":true,""osname"":""Windows"",""osversion"":""10"",""a"":true}","9:19:19","1","3","Test_2","74","j","1","826.8000000119209","1280 x 720","1280 x 720","true","1","10","","","","",""
"null","<p style=""font-size: 80px;"">+ 10 points</p>","null","html-keyboard-response","134","657270","0.0-11.0-2.133","5c6bc7a15028140001710963","owerx4","AH","33","F","{""name"":""Chrome"",""chrome"":true,""version"":""106.0"",""blink"":true,""windows"":true,""osname"":""Windows"",""osversion"":""10"",""a"":true}","9:19:19","1","3","Test_3","70","f","1","1313.9000000059605","1280 x 720","1280 x 720","true","1","10","","","","",""
"null","<p style=""font-size: 80px;"">+ 0 points</p>","null","html-keyboard-response","135","661131","0.0-11.0-2.134","5c6bc7a15028140001710963","owerx4","AH","33","F","{""name"":""Chrome"",""chrome"":true,""version"":""106.0"",""blink"":true,""windows"":true,""osname"":""Windows"",""osversion"":""10"",""a"":true}","9:19:19","1","4","Test_1","70","j","0","1842.7000000178814","1280 x 720","1280 x 720","true","1","0","","","","",""
"null","<p style=""font-size: 80px;"">+ 10 points</p>","null","html-keyboard-response","136","664285","0.0-11.0-2.135","5c6bc7a15028140001710963","owerx4","AH","33","F","{""name"":""Chrome"",""chrome"":true,""version"":""106.0"",""blink"":true,""windows"":true,""osname"":""Windows"",""osversion"":""10"",""a"":true}","9:19:19","1","4","Test_2","70","f","1","1137.800000011921","1280 x 720","1280 x 720","true","1","10","","","","",""
"null","<p style=""font-size: 80px;"">+ 10 points</p>","null","html-keyboard-response","137","667278","0.0-11.0-2.136","5c6bc7a15028140001710963","owerx4","AH","33","F","{""name"":""Chrome"",""chrome"":true,""version"":""106.0"",""blink"":true,""windows"":true,""osname"":""Windows"",""osversion"":""10"",""a"":true}","9:19:19","1","4","Test_3","74","j","1","973.4000000059605","1280 x 720","1280 x 720","true","1","10","","","","",""
"null","<p style=""font-size: 80px;"">+ 10 points</p>","null","html-keyboard-response","138","669868","0.0-11.0-2.137","5c6bc7a15028140001710963","owerx4","AH","33","F","{""name"":""Chrome"",""chrome"":true,""version"":""106.0"",""blink"":true,""windows"":true,""osname"":""Windows"",""osversion"":""10"",""a"":true}","9:19:19","1","4","Test_1","74","j","1","572.9000000059605","1280 x 720","1280 x 720","true","1","10","","","","",""
"null","<p style=""font-size: 80px;"">+ 10 points</p>","null","html-keyboard-response","139","673177","0.0-11.0-2.138","5c6bc7a15028140001710963","owerx4","AH","33","F","{""name"":""Chrome"",""chrome"":true,""version"":""106.0"",""blink"":true,""windows"":true,""osname"":""Windows"",""osversion"":""10"",""a"":true}","9:19:19","1","4","Test_3","74","j","1","1281.4000000059605","1280 x 720","1280 x 720","true","1","10","","","","",""
"null","<p style=""font-size: 80px;"">+ 10 points</p>","null","html-keyboard-response","140","675791","0.0-11.0-2.139","5c6bc7a15028140001710963","owerx4","AH","33","F","{""name"":""Chrome"",""chrome"":true,""version"":""106.0"",""blink"":true,""windows"":true,""osname"":""Windows"",""osversion"":""10"",""a"":true}","9:19:19","1","4","Test_3","74","j","1","581.8999999761581","1280 x 720","1280 x 720","true","1","10","","","","",""
"null","<p style=""font-size: 80px;"">+ 10 points</p>","null","html-keyboard-response","141","678382","0.0-11.0-2.140","5c6bc7a15028140001710963","owerx4","AH","33","F","{""name"":""Chrome"",""chrome"":true,""version"":""106.0"",""blink"":true,""windows"":true,""osname"":""Windows"",""osversion"":""10"",""a"":true}","9:19:19","1","4","Test_4","70","f","1","568.2000000178814","1280 x 720","1280 x 720","true","1","10","","","","",""
"null","<p style=""font-size: 80px;"">+ 10 points</p>","null","html-keyboard-response","142","681873","0.0-11.0-2.141","5c6bc7a15028140001710963","owerx4","AH","33","F","{""name"":""Chrome"",""chrome"":true,""version"":""106.0"",""blink"":true,""windows"":true,""osname"":""Windows"",""osversion"":""10"",""a"":true}","9:19:19","1","4","Test_1","74","j","1","1468.0999999940395","1280 x 720","1280 x 720","true","1","10","","","","",""
"null","<p style=""font-size: 80px;"">+ 10 points</p>","null","html-keyboard-response","143","685138","0.0-11.0-2.142","5c6bc7a15028140001710963","owerx4","AH","33","F","{""name"":""Chrome"",""chrome"":true,""version"":""106.0"",""blink"":true,""windows"":true,""osname"":""Windows"",""osversion"":""10"",""a"":true}","9:19:19","1","4","Test_4","70","f","1","1240.800000011921","1280 x 720","1280 x 720","true","1","10","","","","",""
"null","<p style=""font-size: 80px;"">+ 10 points</p>","null","html-keyboard-response","144","690016","0.0-11.0-2.143","5c6bc7a15028140001710963","owerx4","AH","33","F","{""name"":""Chrome"",""chrome"":true,""version"":""106.0"",""blink"":true,""windows"":true,""osname"":""Windows"",""osversion"":""10"",""a"":true}","9:19:19","1","4","Test_2","70","f","1","2862.600000023842","1280 x 720","1280 x 720","true","1","10","","","","",""
"null","<p style=""font-size: 80px;"">+ 10 points</p>","null","html-keyboard-response","145","692802","0.0-11.0-2.144","5c6bc7a15028140001710963","owerx4","AH","33","F","{""name"":""Chrome"",""chrome"":true,""version"":""106.0"",""blink"":true,""windows"":true,""osname"":""Windows"",""osversion"":""10"",""a"":true}","9:19:19","1","4","Test_2","70","f","1","778.8000000119209","1280 x 720","1280 x 720","true","1","10","","","","",""
"null","<p style=""font-size: 80px;"">+ 10 points</p>","null","html-keyboard-response","146","695289","0.0-11.0-2.145","5c6bc7a15028140001710963","owerx4","AH","33","F","{""name"":""Chrome"",""chrome"":true,""version"":""106.0"",""blink"":true,""windows"":true,""osname"":""Windows"",""osversion"":""10"",""a"":true}","9:19:19","1","4","Test_1","74","j","1","469.2000000178814","1280 x 720","1280 x 720","true","1","10","","","","",""
"null","<p style=""font-size: 80px;"">+ 10 points</p>","null","html-keyboard-response","147","699150","0.0-11.0-2.146","5c6bc7a15028140001710963","owerx4","AH","33","F","{""name"":""Chrome"",""chrome"":true,""version"":""106.0"",""blink"":true,""windows"":true,""osname"":""Windows"",""osversion"":""10"",""a"":true}","9:19:19","1","4","Test_2","70","f","1","1840.5","1280 x 720","1280 x 720","true","1","10","","","","",""
"null","<p style=""font-size: 80px;"">+ 0 points</p>","null","html-keyboard-response","148","702714","0.0-11.0-2.147","5c6bc7a15028140001710963","owerx4","AH","33","F","{""name"":""Chrome"",""chrome"":true,""version"":""106.0"",""blink"":true,""windows"":true,""osname"":""Windows"",""osversion"":""10"",""a"":true}","9:19:19","1","4","Test_1","70","j","0","1544.9000000059605","1280 x 720","1280 x 720","true","1","0","","","","",""
"null","<p style=""font-size: 80px;"">+ 10 points</p>","null","html-keyboard-response","149","705620","0.0-11.0-2.148","5c6bc7a15028140001710963","owerx4","AH","33","F","{""name"":""Chrome"",""chrome"":true,""version"":""106.0"",""blink"":true,""windows"":true,""osname"":""Windows"",""osversion"":""10"",""a"":true}","9:19:19","1","4","Test_3","74","j","1","897.4000000059605","1280 x 720","1280 x 720","true","1","10","","","","",""
"null","<p style=""font-size: 80px;"">+ 10 points</p>","null","html-keyboard-response","150","708394","0.0-11.0-2.149","5c6bc7a15028140001710963","owerx4","AH","33","F","{""name"":""Chrome"",""chrome"":true,""version"":""106.0"",""blink"":true,""windows"":true,""osname"":""Windows"",""osversion"":""10"",""a"":true}","9:19:19","1","4","Test_4","70","f","1","754.5","1280 x 720","1280 x 720","true","1","10","","","","",""
"null","<p style=""font-size: 80px;"">+ 10 points</p>","null","html-keyboard-response","151","711584","0.0-11.0-2.150","5c6bc7a15028140001710963","owerx4","AH","33","F","{""name"":""Chrome"",""chrome"":true,""version"":""106.0"",""blink"":true,""windows"":true,""osname"":""Windows"",""osversion"":""10"",""a"":true}","9:19:19","1","4","Test_4","70","f","1","1173.199999988079","1280 x 720","1280 x 720","true","1","10","","","","",""
"null","<p style=""font-size: 80px;"">+ 10 points</p>","null","html-keyboard-response","152","715034","0.0-11.0-2.151","5c6bc7a15028140001710963","owerx4","AH","33","F","{""name"":""Chrome"",""chrome"":true,""version"":""106.0"",""blink"":true,""windows"":true,""osname"":""Windows"",""osversion"":""10"",""a"":true}","9:19:19","1","4","Test_2","70","f","1","1434.800000011921","1280 x 720","1280 x 720","true","1","10","","","","",""
"null","<p style=""font-size: 80px;"">+ 10 points</p>","null","html-keyboard-response","153","717850","0.0-11.0-2.152","5c6bc7a15028140001710963","owerx4","AH","33","F","{""name"":""Chrome"",""chrome"":true,""version"":""106.0"",""blink"":true,""windows"":true,""osname"":""Windows"",""osversion"":""10"",""a"":true}","9:19:19","1","4","Test_3","74","j","1","802.0999999940395","1280 x 720","1280 x 720","true","1","10","","","","",""
"null","<p style=""font-size: 80px;"">+ 10 points</p>","null","html-keyboard-response","154","720367","0.0-11.0-2.153","5c6bc7a15028140001710963","owerx4","AH","33","F","{""name"":""Chrome"",""chrome"":true,""version"":""106.0"",""blink"":true,""windows"":true,""osname"":""Windows"",""osversion"":""10"",""a"":true}","9:19:19","1","4","Test_3","74","j","1","499.09999999403954","1280 x 720","1280 x 720","true","1","10","","","","",""
"null","<p style=""font-size: 80px;"">+ 0 points</p>","null","html-keyboard-response","155","723720","0.0-11.0-2.154","5c6bc7a15028140001710963","owerx4","AH","33","F","{""name"":""Chrome"",""chrome"":true,""version"":""106.0"",""blink"":true,""windows"":true,""osname"":""Windows"",""osversion"":""10"",""a"":true}","9:19:19","1","4","Test_1","70","j","0","1347.300000011921","1280 x 720","1280 x 720","true","1","0","","","","",""
"null","<p style=""font-size: 80px;"">+ 10 points</p>","null","html-keyboard-response","156","726342","0.0-11.0-2.155","5c6bc7a15028140001710963","owerx4","AH","33","F","{""name"":""Chrome"",""chrome"":true,""version"":""106.0"",""blink"":true,""windows"":true,""osname"":""Windows"",""osversion"":""10"",""a"":true}","9:19:19","1","4","Test_4","70","f","1","591.1999999880791","1280 x 720","1280 x 720","true","1","10","","","","",""
"null","<p style=""font-size: 80px;"">+ 10 points</p>","null","html-keyboard-response","157","730189","0.0-11.0-2.156","5c6bc7a15028140001710963","owerx4","AH","33","F","{""name"":""Chrome"",""chrome"":true,""version"":""106.0"",""blink"":true,""windows"":true,""osname"":""Windows"",""osversion"":""10"",""a"":true}","9:19:19","1","4","Test_2","70","f","1","1826.2999999821186","1280 x 720","1280 x 720","true","1","10","","","","",""
"null","<p style=""font-size: 80px;"">+ 0 points</p>","null","html-keyboard-response","158","732941","0.0-11.0-2.157","5c6bc7a15028140001710963","owerx4","AH","33","F","{""name"":""Chrome"",""chrome"":true,""version"":""106.0"",""blink"":true,""windows"":true,""osname"":""Windows"",""osversion"":""10"",""a"":true}","9:19:19","1","3","Test_4","70","j","0","742.0999999940395","1280 x 720","1280 x 720","true","1","0","","","","",""
"null","<p style=""font-size: 80px;"">+ 10 points</p>","null","html-keyboard-response","159","736770","0.0-11.0-2.158","5c6bc7a15028140001710963","owerx4","AH","33","F","{""name"":""Chrome"",""chrome"":true,""version"":""106.0"",""blink"":true,""windows"":true,""osname"":""Windows"",""osversion"":""10"",""a"":true}","9:19:19","1","3","Test_2","74","j","1","1801.9000000059605","1280 x 720","1280 x 720","true","1","10","","","","",""
"null","<p style=""font-size: 80px;"">+ 10 points</p>","null","html-keyboard-response","160","739744","0.0-11.0-2.159","5c6bc7a15028140001710963","owerx4","AH","33","F","{""name"":""Chrome"",""chrome"":true,""version"":""106.0"",""blink"":true,""windows"":true,""osname"":""Windows"",""osversion"":""10"",""a"":true}","9:19:19","1","3","Test_3","70","f","1","951.5","1280 x 720","1280 x 720","true","1","10","","","","",""
"null","<p style=""font-size: 80px;"">+ 10 points</p>","null","html-keyboard-response","161","742745","0.0-11.0-2.160","5c6bc7a15028140001710963","owerx4","AH","33","F","{""name"":""Chrome"",""chrome"":true,""version"":""106.0"",""blink"":true,""windows"":true,""osname"":""Windows"",""osversion"":""10"",""a"":true}","9:19:19","1","3","Test_4","74","j","1","968.2999999821186","1280 x 720","1280 x 720","true","1","10","","","","",""
"null","<p style=""font-size: 80px;"">+ 10 points</p>","null","html-keyboard-response","162","745638","0.0-11.0-2.161","5c6bc7a15028140001710963","owerx4","AH","33","F","{""name"":""Chrome"",""chrome"":true,""version"":""106.0"",""blink"":true,""windows"":true,""osname"":""Windows"",""osversion"":""10"",""a"":true}","9:19:19","1","3","Test_3","70","f","1","878.5","1280 x 720","1280 x 720","true","1","10","","","","",""
"null","<p style=""font-size: 80px;"">+ 10 points</p>","null","html-keyboard-response","163","748750","0.0-11.0-2.162","5c6bc7a15028140001710963","owerx4","AH","33","F","{""name"":""Chrome"",""chrome"":true,""version"":""106.0"",""blink"":true,""windows"":true,""osname"":""Windows"",""osversion"":""10"",""a"":true}","9:19:19","1","3","Test_1","70","f","1","1084","1280 x 720","1280 x 720","true","1","10","","","","",""
"null","<p style=""font-size: 80px;"">+ 10 points</p>","null","html-keyboard-response","164","751457","0.0-11.0-2.163","5c6bc7a15028140001710963","owerx4","AH","33","F","{""name"":""Chrome"",""chrome"":true,""version"":""106.0"",""blink"":true,""windows"":true,""osname"":""Windows"",""osversion"":""10"",""a"":true}","9:19:19","1","3","Test_1","70","f","1","695.8999999761581","1280 x 720","1280 x 720","true","1","10","","","","",""
"null","<p style=""font-size: 80px;"">+ 10 points</p>","null","html-keyboard-response","165","754034","0.0-11.0-2.164","5c6bc7a15028140001710963","owerx4","AH","33","F","{""name"":""Chrome"",""chrome"":true,""version"":""106.0"",""blink"":true,""windows"":true,""osname"":""Windows"",""osversion"":""10"",""a"":true}","9:19:19","1","3","Test_3","70","f","1","551.2000000178814","1280 x 720","1280 x 720","true","1","10","","","","",""
"null","<p style=""font-size: 80px;"">+ 10 points</p>","null","html-keyboard-response","166","756628","0.0-11.0-2.165","5c6bc7a15028140001710963","owerx4","AH","33","F","{""name"":""Chrome"",""chrome"":true,""version"":""106.0"",""blink"":true,""windows"":true,""osname"":""Windows"",""osversion"":""10"",""a"":true}","9:19:19","1","3","Test_2","74","j","1","580.7000000178814","1280 x 720","1280 x 720","true","1","10","","","","",""
"null","<p style=""font-size: 80px;"">+ 10 points</p>","null","html-keyboard-response","167","759241","0.0-11.0-2.166","5c6bc7a15028140001710963","owerx4","AH","33","F","{""name"":""Chrome"",""chrome"":true,""version"":""106.0"",""blink"":true,""windows"":true,""osname"":""Windows"",""osversion"":""10"",""a"":true}","9:19:19","1","3","Test_3","70","f","1","598.6999999880791","1280 x 720","1280 x 720","true","1","10","","","","",""
"null","<p style=""font-size: 80px;"">+ 10 points</p>","null","html-keyboard-response","168","761872","0.0-11.0-2.167","5c6bc7a15028140001710963","owerx4","AH","33","F","{""name"":""Chrome"",""chrome"":true,""version"":""106.0"",""blink"":true,""windows"":true,""osname"":""Windows"",""osversion"":""10"",""a"":true}","9:19:19","1","3","Test_2","74","j","1","617.6999999880791","1280 x 720","1280 x 720","true","1","10","","","","",""
"null","<p style=""font-size: 80px;"">+ 10 points</p>","null","html-keyboard-response","169","765467","0.0-11.0-2.168","5c6bc7a15028140001710963","owerx4","AH","33","F","{""name"":""Chrome"",""chrome"":true,""version"":""106.0"",""blink"":true,""windows"":true,""osname"":""Windows"",""osversion"":""10"",""a"":true}","9:19:19","1","3","Test_4","74","j","1","1583.5999999940395","1280 x 720","1280 x 720","true","1","10","","","","",""
"null","<p style=""font-size: 80px;"">+ 10 points</p>","null","html-keyboard-response","170","768328","0.0-11.0-2.169","5c6bc7a15028140001710963","owerx4","AH","33","F","{""name"":""Chrome"",""chrome"":true,""version"":""106.0"",""blink"":true,""windows"":true,""osname"":""Windows"",""osversion"":""10"",""a"":true}","9:19:19","1","3","Test_1","70","f","1","845.2000000178814","1280 x 720","1280 x 720","true","1","10","","","","",""
"null","<p style=""font-size: 80px;"">+ 10 points</p>","null","html-keyboard-response","171","770805","0.0-11.0-2.170","5c6bc7a15028140001710963","owerx4","AH","33","F","{""name"":""Chrome"",""chrome"":true,""version"":""106.0"",""blink"":true,""windows"":true,""osname"":""Windows"",""osversion"":""10"",""a"":true}","9:19:19","1","3","Test_1","70","f","1","455.5","1280 x 720","1280 x 720","true","1","10","","","","",""
"null","<p style=""font-size: 80px;"">+ 10 points</p>","null","html-keyboard-response","172","773722","0.0-11.0-2.171","5c6bc7a15028140001710963","owerx4","AH","33","F","{""name"":""Chrome"",""chrome"":true,""version"":""106.0"",""blink"":true,""windows"":true,""osname"":""Windows"",""osversion"":""10"",""a"":true}","9:19:19","1","3","Test_2","74","j","1","892.6999999880791","1280 x 720","1280 x 720","true","1","10","","","","",""
"null","<p style=""font-size: 80px;"">+ 0 points</p>","null","html-keyboard-response","173","776396","0.0-11.0-2.172","5c6bc7a15028140001710963","owerx4","AH","33","F","{""name"":""Chrome"",""chrome"":true,""version"":""106.0"",""blink"":true,""windows"":true,""osname"":""Windows"",""osversion"":""10"",""a"":true}","9:19:19","1","4","Test_4","74","f","0","658.5999999940395","1280 x 720","1280 x 720","true","1","0","","","","",""
"null","<p style=""font-size: 80px;"">+ 10 points</p>","null","html-keyboard-response","174","780196","0.0-11.0-2.173","5c6bc7a15028140001710963","owerx4","AH","33","F","{""name"":""Chrome"",""chrome"":true,""version"":""106.0"",""blink"":true,""windows"":true,""osname"":""Windows"",""osversion"":""10"",""a"":true}","9:19:19","1","4","Test_3","74","j","1","1781.7999999821186","1280 x 720","1280 x 720","true","1","10","","","","",""
"null","<p style=""font-size: 80px;"">+ 10 points</p>","null","html-keyboard-response","175","783136","0.0-11.0-2.174","5c6bc7a15028140001710963","owerx4","AH","33","F","{""name"":""Chrome"",""chrome"":true,""version"":""106.0"",""blink"":true,""windows"":true,""osname"":""Windows"",""osversion"":""10"",""a"":true}","9:19:19","1","4","Test_1","74","j","1","910.5999999940395","1280 x 720","1280 x 720","true","1","10","","","","",""
"null","<p style=""font-size: 80px;"">+ 10 points</p>","null","html-keyboard-response","176","785746","0.0-11.0-2.175","5c6bc7a15028140001710963","owerx4","AH","33","F","{""name"":""Chrome"",""chrome"":true,""version"":""106.0"",""blink"":true,""windows"":true,""osname"":""Windows"",""osversion"":""10"",""a"":true}","9:19:19","1","4","Test_1","74","j","1","593.0999999940395","1280 x 720","1280 x 720","true","1","10","","","","",""
"null","<p style=""font-size: 80px;"">+ 10 points</p>","null","html-keyboard-response","177","788874","0.0-11.0-2.176","5c6bc7a15028140001710963","owerx4","AH","33","F","{""name"":""Chrome"",""chrome"":true,""version"":""106.0"",""blink"":true,""windows"":true,""osname"":""Windows"",""osversion"":""10"",""a"":true}","9:19:19","1","4","Test_2","70","f","1","1102.9000000059605","1280 x 720","1280 x 720","true","1","10","","","","",""
"null","<p style=""font-size: 80px;"">+ 10 points</p>","null","html-keyboard-response","178","791485","0.0-11.0-2.177","5c6bc7a15028140001710963","owerx4","AH","33","F","{""name"":""Chrome"",""chrome"":true,""version"":""106.0"",""blink"":true,""windows"":true,""osname"":""Windows"",""osversion"":""10"",""a"":true}","9:19:19","1","4","Test_3","74","j","1","595.8000000119209","1280 x 720","1280 x 720","true","1","10","","","","",""
"null","<p style=""font-size: 80px;"">+ 10 points</p>","null","html-keyboard-response","179","794173","0.0-11.0-2.178","5c6bc7a15028140001710963","owerx4","AH","33","F","{""name"":""Chrome"",""chrome"":true,""version"":""106.0"",""blink"":true,""windows"":true,""osname"":""Windows"",""osversion"":""10"",""a"":true}","9:19:19","1","4","Test_4","70","f","1","684.2999999821186","1280 x 720","1280 x 720","true","1","10","","","","",""
"null","<p style=""font-size: 80px;"">+ 10 points</p>","null","html-keyboard-response","180","797017","0.0-11.0-2.179","5c6bc7a15028140001710963","owerx4","AH","33","F","{""name"":""Chrome"",""chrome"":true,""version"":""106.0"",""blink"":true,""windows"":true,""osname"":""Windows"",""osversion"":""10"",""a"":true}","9:19:19","1","4","Test_2","70","f","1","837.0999999940395","1280 x 720","1280 x 720","true","1","10","","","","",""
"null","<p style=""font-size: 80px;"">+ 10 points</p>","null","html-keyboard-response","181","800261","0.0-11.0-2.180","5c6bc7a15028140001710963","owerx4","AH","33","F","{""name"":""Chrome"",""chrome"":true,""version"":""106.0"",""blink"":true,""windows"":true,""osname"":""Windows"",""osversion"":""10"",""a"":true}","9:19:19","1","4","Test_1","74","j","1","1233.8999999761581","1280 x 720","1280 x 720","true","1","10","","","","",""
"null","<p style=""font-size: 80px;"">+ 10 points</p>","null","html-keyboard-response","182","803102","0.0-11.0-2.181","5c6bc7a15028140001710963","owerx4","AH","33","F","{""name"":""Chrome"",""chrome"":true,""version"":""106.0"",""blink"":true,""windows"":true,""osname"":""Windows"",""osversion"":""10"",""a"":true}","9:19:19","1","4","Test_4","70","f","1","813.5999999940395","1280 x 720","1280 x 720","true","1","10","","","","",""
"null","<p style=""font-size: 80px;"">+ 10 points</p>","null","html-keyboard-response","183","805794","0.0-11.0-2.182","5c6bc7a15028140001710963","owerx4","AH","33","F","{""name"":""Chrome"",""chrome"":true,""version"":""106.0"",""blink"":true,""windows"":true,""osname"":""Windows"",""osversion"":""10"",""a"":true}","9:19:19","1","4","Test_3","74","j","1","670.4000000059605","1280 x 720","1280 x 720","true","1","10","","","","",""
"null","<p style=""font-size: 80px;"">+ 10 points</p>","null","html-keyboard-response","184","808494","0.0-11.0-2.183","5c6bc7a15028140001710963","owerx4","AH","33","F","{""name"":""Chrome"",""chrome"":true,""version"":""106.0"",""blink"":true,""windows"":true,""osname"":""Windows"",""osversion"":""10"",""a"":true}","9:19:19","1","4","Test_2","70","f","1","671.8000000119209","1280 x 720","1280 x 720","true","1","10","","","","",""
"null","<p style=""font-size: 80px;"">+ 10 points</p>","null","html-keyboard-response","185","811146","0.0-11.0-2.184","5c6bc7a15028140001710963","owerx4","AH","33","F","{""name"":""Chrome"",""chrome"":true,""version"":""106.0"",""blink"":true,""windows"":true,""osname"":""Windows"",""osversion"":""10"",""a"":true}","9:19:19","1","4","Test_2","70","f","1","628.0999999940395","1280 x 720","1280 x 720","true","1","10","","","","",""
"null","<p style=""font-size: 80px;"">+ 10 points</p>","null","html-keyboard-response","186","815099","0.0-11.0-2.185","5c6bc7a15028140001710963","owerx4","AH","33","F","{""name"":""Chrome"",""chrome"":true,""version"":""106.0"",""blink"":true,""windows"":true,""osname"":""Windows"",""osversion"":""10"",""a"":true}","9:19:19","1","4","Test_3","74","j","1","1936.4000000059605","1280 x 720","1280 x 720","true","1","10","","","","",""
"null","<p style=""font-size: 80px;"">+ 10 points</p>","null","html-keyboard-response","187","818324","0.0-11.0-2.186","5c6bc7a15028140001710963","owerx4","AH","33","F","{""name"":""Chrome"",""chrome"":true,""version"":""106.0"",""blink"":true,""windows"":true,""osname"":""Windows"",""osversion"":""10"",""a"":true}","9:19:19","1","4","Test_1","74","j","1","1198.800000011921","1280 x 720","1280 x 720","true","1","10","","","","",""
"null","<p style=""font-size: 80px;"">+ 10 points</p>","null","html-keyboard-response","188","823212","0.0-11.0-2.187","5c6bc7a15028140001710963","owerx4","AH","33","F","{""name"":""Chrome"",""chrome"":true,""version"":""106.0"",""blink"":true,""windows"":true,""osname"":""Windows"",""osversion"":""10"",""a"":true}","9:19:19","1","4","Test_3","74","j","1","2862.2999999821186","1280 x 720","1280 x 720","true","1","10","","","","",""
"null","<p style=""font-size: 80px;"">+ 10 points</p>","null","html-keyboard-response","189","826075","0.0-11.0-2.188","5c6bc7a15028140001710963","owerx4","AH","33","F","{""name"":""Chrome"",""chrome"":true,""version"":""106.0"",""blink"":true,""windows"":true,""osname"":""Windows"",""osversion"":""10"",""a"":true}","9:19:19","1","4","Test_2","70","f","1","852.5999999940395","1280 x 720","1280 x 720","true","1","10","","","","",""
