"rt","stimulus","key_press","trial_type","trial_index","time_elapsed","internal_node_id","Prolific_ID","random_ID","initials","age","gender","pc_info","start_time","Phase","Rule","Stimulus","Response","CorrResp","Accuracy","ResponseTime","screen_resolution","window_resolution","focus","relevant","Points","responses","question_order","rev_check","butterfly_check","passed_practice"
"null","<p style=""font-size: 80px;"">+ 0 points</p>","null","html-keyboard-response","1","96026","0.0-7.0-2.0","5bc5f36b8d83e10001724601","oj323h","ll","53","f","{""name"":""Chrome"",""chrome"":true,""version"":""106.0"",""blink"":true,""windows"":true,""osname"":""Windows"",""osversion"":""10"",""a"":true}","9:24:2","0","1","Practice_1","74","f","0","1358.9000000022352","1536 x 864","1536 x 864","true","1","0","","","","",""
"null","<p style=""font-size: 80px;"">+ 10 points</p>","null","html-keyboard-response","2","98988","0.0-7.0-2.1","5bc5f36b8d83e10001724601","oj323h","ll","53","f","{""name"":""Chrome"",""chrome"":true,""version"":""106.0"",""blink"":true,""windows"":true,""osname"":""Windows"",""osversion"":""10"",""a"":true}","9:24:2","0","1","Practice_1","70","f","1","934.3999999985099","1536 x 864","1536 x 864","true","1","10","","","","",""
"null","<p style=""font-size: 80px;"">+ 10 points</p>","null","html-keyboard-response","3","102266","0.0-7.0-2.2","5bc5f36b8d83e10001724601","oj323h","ll","53","f","{""name"":""Chrome"",""chrome"":true,""version"":""106.0"",""blink"":true,""windows"":true,""osname"":""Windows"",""osversion"":""10"",""a"":true}","9:24:2","0","1","Practice_4","74","j","1","1244.699999999255","1536 x 864","1536 x 864","true","1","10","","","","",""
"null","<p style=""font-size: 80px;"">+ 10 points</p>","null","html-keyboard-response","4","105031","0.0-7.0-2.3","5bc5f36b8d83e10001724601","oj323h","ll","53","f","{""name"":""Chrome"",""chrome"":true,""version"":""106.0"",""blink"":true,""windows"":true,""osname"":""Windows"",""osversion"":""10"",""a"":true}","9:24:2","0","1","Practice_4","74","j","1","735.1000000014901","1536 x 864","1536 x 864","true","1","10","","","","",""
"null","<p style=""font-size: 80px;"">+ 10 points</p>","null","html-keyboard-response","5","107588","0.0-7.0-2.4","5bc5f36b8d83e10001724601","oj323h","ll","53","f","{""name"":""Chrome"",""chrome"":true,""version"":""106.0"",""blink"":true,""windows"":true,""osname"":""Windows"",""osversion"":""10"",""a"":true}","9:24:2","0","1","Practice_4","74","j","1","528.8999999985099","1536 x 864","1536 x 864","true","1","10","","","","",""
"null","<p style=""font-size: 80px;"">+ 10 points</p>","null","html-keyboard-response","6","110939","0.0-7.0-2.5","5bc5f36b8d83e10001724601","oj323h","ll","53","f","{""name"":""Chrome"",""chrome"":true,""version"":""106.0"",""blink"":true,""windows"":true,""osname"":""Windows"",""osversion"":""10"",""a"":true}","9:24:2","0","1","Practice_4","74","j","1","1320.5","1536 x 864","1536 x 864","true","1","10","","","","",""
"null","<p style=""font-size: 80px;"">+ 10 points</p>","null","html-keyboard-response","7","113700","0.0-7.0-2.6","5bc5f36b8d83e10001724601","oj323h","ll","53","f","{""name"":""Chrome"",""chrome"":true,""version"":""106.0"",""blink"":true,""windows"":true,""osname"":""Windows"",""osversion"":""10"",""a"":true}","9:24:2","0","1","Practice_1","70","f","1","743.4000000022352","1536 x 864","1536 x 864","true","1","10","","","","",""
"null","<p style=""font-size: 80px;"">+ 10 points</p>","null","html-keyboard-response","8","117038","0.0-7.0-2.7","5bc5f36b8d83e10001724601","oj323h","ll","53","f","{""name"":""Chrome"",""chrome"":true,""version"":""106.0"",""blink"":true,""windows"":true,""osname"":""Windows"",""osversion"":""10"",""a"":true}","9:24:2","0","1","Practice_2","74","j","1","1309.1000000014901","1536 x 864","1536 x 864","true","1","10","","","","",""
"null","<p style=""font-size: 80px;"">+ 10 points</p>","null","html-keyboard-response","9","119474","0.0-7.0-2.8","5bc5f36b8d83e10001724601","oj323h","ll","53","f","{""name"":""Chrome"",""chrome"":true,""version"":""106.0"",""blink"":true,""windows"":true,""osname"":""Windows"",""osversion"":""10"",""a"":true}","9:24:2","0","1","Practice_2","74","j","1","417.0999999977648","1536 x 864","1536 x 864","true","1","10","","","","",""
"null","<p style=""font-size: 80px;"">+ 10 points</p>","null","html-keyboard-response","10","121823","0.0-7.0-2.9","5bc5f36b8d83e10001724601","oj323h","ll","53","f","{""name"":""Chrome"",""chrome"":true,""version"":""106.0"",""blink"":true,""windows"":true,""osname"":""Windows"",""osversion"":""10"",""a"":true}","9:24:2","0","1","Practice_2","74","j","1","329.4000000022352","1536 x 864","1536 x 864","true","1","10","","","","",""
"null","<p style=""font-size: 80px;"">+ 10 points</p>","null","html-keyboard-response","11","124973","0.0-7.0-2.10","5bc5f36b8d83e10001724601","oj323h","ll","53","f","{""name"":""Chrome"",""chrome"":true,""version"":""106.0"",""blink"":true,""windows"":true,""osname"":""Windows"",""osversion"":""10"",""a"":true}","9:24:2","0","1","Practice_1","70","f","1","1128.199999999255","1536 x 864","1536 x 864","true","1","10","","","","",""
"null","<p style=""font-size: 80px;"">+ 10 points</p>","null","html-keyboard-response","12","127732","0.0-7.0-2.11","5bc5f36b8d83e10001724601","oj323h","ll","53","f","{""name"":""Chrome"",""chrome"":true,""version"":""106.0"",""blink"":true,""windows"":true,""osname"":""Windows"",""osversion"":""10"",""a"":true}","9:24:2","0","1","Practice_2","74","j","1","733.9000000022352","1536 x 864","1536 x 864","true","1","10","","","","",""
"null","<p style=""font-size: 80px;"">+ 10 points</p>","null","html-keyboard-response","13","130322","0.0-7.0-2.12","5bc5f36b8d83e10001724601","oj323h","ll","53","f","{""name"":""Chrome"",""chrome"":true,""version"":""106.0"",""blink"":true,""windows"":true,""osname"":""Windows"",""osversion"":""10"",""a"":true}","9:24:2","0","1","Practice_1","70","f","1","568.5999999977648","1536 x 864","1536 x 864","true","1","10","","","","",""
"null","<p style=""font-size: 80px;"">+ 10 points</p>","null","html-keyboard-response","14","133338","0.0-7.0-2.13","5bc5f36b8d83e10001724601","oj323h","ll","53","f","{""name"":""Chrome"",""chrome"":true,""version"":""106.0"",""blink"":true,""windows"":true,""osname"":""Windows"",""osversion"":""10"",""a"":true}","9:24:2","0","1","Practice_3","70","f","1","1000.2000000029802","1536 x 864","1536 x 864","true","1","10","","","","",""
"null","<p style=""font-size: 80px;"">+ 10 points</p>","null","html-keyboard-response","15","135786","0.0-7.0-2.14","5bc5f36b8d83e10001724601","oj323h","ll","53","f","{""name"":""Chrome"",""chrome"":true,""version"":""106.0"",""blink"":true,""windows"":true,""osname"":""Windows"",""osversion"":""10"",""a"":true}","9:24:2","0","1","Practice_3","70","f","1","432.1000000014901","1536 x 864","1536 x 864","true","1","10","","","","",""
"null","<p style=""font-size: 80px;"">+ 10 points</p>","null","html-keyboard-response","16","138437","0.0-7.0-2.15","5bc5f36b8d83e10001724601","oj323h","ll","53","f","{""name"":""Chrome"",""chrome"":true,""version"":""106.0"",""blink"":true,""windows"":true,""osname"":""Windows"",""osversion"":""10"",""a"":true}","9:24:2","0","1","Practice_3","70","f","1","628.7000000029802","1536 x 864","1536 x 864","true","1","10","","","","",""
"null","<p style=""font-size: 80px;"">+ 10 points</p>","null","html-keyboard-response","17","141764","0.0-7.0-2.16","5bc5f36b8d83e10001724601","oj323h","ll","53","f","{""name"":""Chrome"",""chrome"":true,""version"":""106.0"",""blink"":true,""windows"":true,""osname"":""Windows"",""osversion"":""10"",""a"":true}","9:24:2","0","1","Practice_2","74","j","1","1302","1536 x 864","1536 x 864","true","1","10","","","","",""
"null","<p style=""font-size: 80px;"">+ 10 points</p>","null","html-keyboard-response","18","144601","0.0-7.0-2.17","5bc5f36b8d83e10001724601","oj323h","ll","53","f","{""name"":""Chrome"",""chrome"":true,""version"":""106.0"",""blink"":true,""windows"":true,""osname"":""Windows"",""osversion"":""10"",""a"":true}","9:24:2","0","1","Practice_4","74","j","1","808.1000000014901","1536 x 864","1536 x 864","true","1","10","","","","",""
"null","<p style=""font-size: 80px;"">+ 10 points</p>","null","html-keyboard-response","19","147103","0.0-7.0-2.18","5bc5f36b8d83e10001724601","oj323h","ll","53","f","{""name"":""Chrome"",""chrome"":true,""version"":""106.0"",""blink"":true,""windows"":true,""osname"":""Windows"",""osversion"":""10"",""a"":true}","9:24:2","0","1","Practice_3","70","f","1","475.80000000074506","1536 x 864","1536 x 864","true","1","10","","","","",""
"null","<p style=""font-size: 80px;"">+ 10 points</p>","null","html-keyboard-response","20","149543","0.0-7.0-2.19","5bc5f36b8d83e10001724601","oj323h","ll","53","f","{""name"":""Chrome"",""chrome"":true,""version"":""106.0"",""blink"":true,""windows"":true,""osname"":""Windows"",""osversion"":""10"",""a"":true}","9:24:2","0","1","Practice_3","70","f","1","417","1536 x 864","1536 x 864","true","1","10","","","","",""
"null","<p style=""font-size: 80px;"">+ 0 points</p>","null","html-keyboard-response","21","152544","0.0-7.0-2.20","5bc5f36b8d83e10001724601","oj323h","ll","53","f","{""name"":""Chrome"",""chrome"":true,""version"":""106.0"",""blink"":true,""windows"":true,""osname"":""Windows"",""osversion"":""10"",""a"":true}","9:24:2","0","2","Practice_2","74","f","0","984.2999999970198","1536 x 864","1536 x 864","true","1","0","","","","",""
"null","<p style=""font-size: 80px;"">+ 10 points</p>","null","html-keyboard-response","22","155582","0.0-7.0-2.21","5bc5f36b8d83e10001724601","oj323h","ll","53","f","{""name"":""Chrome"",""chrome"":true,""version"":""106.0"",""blink"":true,""windows"":true,""osname"":""Windows"",""osversion"":""10"",""a"":true}","9:24:2","0","2","Practice_1","74","j","1","1026.300000000745","1536 x 864","1536 x 864","true","1","10","","","","",""
"null","<p style=""font-size: 80px;"">+ 10 points</p>","null","html-keyboard-response","23","158257","0.0-7.0-2.22","5bc5f36b8d83e10001724601","oj323h","ll","53","f","{""name"":""Chrome"",""chrome"":true,""version"":""106.0"",""blink"":true,""windows"":true,""osname"":""Windows"",""osversion"":""10"",""a"":true}","9:24:2","0","2","Practice_4","70","f","1","655.3000000007451","1536 x 864","1536 x 864","true","1","10","","","","",""
"null","<p style=""font-size: 80px;"">+ 10 points</p>","null","html-keyboard-response","24","161198","0.0-7.0-2.23","5bc5f36b8d83e10001724601","oj323h","ll","53","f","{""name"":""Chrome"",""chrome"":true,""version"":""106.0"",""blink"":true,""windows"":true,""osname"":""Windows"",""osversion"":""10"",""a"":true}","9:24:2","0","2","Practice_3","74","j","1","920.5","1536 x 864","1536 x 864","true","1","10","","","","",""
"null","<p style=""font-size: 80px;"">+ 10 points</p>","null","html-keyboard-response","25","164470","0.0-7.0-2.24","5bc5f36b8d83e10001724601","oj323h","ll","53","f","{""name"":""Chrome"",""chrome"":true,""version"":""106.0"",""blink"":true,""windows"":true,""osname"":""Windows"",""osversion"":""10"",""a"":true}","9:24:2","0","2","Practice_2","70","f","1","1246.199999999255","1536 x 864","1536 x 864","true","1","10","","","","",""
"null","<p style=""font-size: 80px;"">+ 0 points</p>","null","html-keyboard-response","26","167248","0.0-7.0-2.25","5bc5f36b8d83e10001724601","oj323h","ll","53","f","{""name"":""Chrome"",""chrome"":true,""version"":""106.0"",""blink"":true,""windows"":true,""osname"":""Windows"",""osversion"":""10"",""a"":true}","9:24:2","0","2","Practice_4","74","f","0","752.5","1536 x 864","1536 x 864","true","1","0","","","","",""
"null","<p style=""font-size: 80px;"">+ 10 points</p>","null","html-keyboard-response","27","170676","0.0-7.0-2.26","5bc5f36b8d83e10001724601","oj323h","ll","53","f","{""name"":""Chrome"",""chrome"":true,""version"":""106.0"",""blink"":true,""windows"":true,""osname"":""Windows"",""osversion"":""10"",""a"":true}","9:24:2","0","2","Practice_3","74","j","1","1400.1000000014901","1536 x 864","1536 x 864","true","1","10","","","","",""
"null","<p style=""font-size: 80px;"">+ 10 points</p>","null","html-keyboard-response","28","173919","0.0-7.0-2.27","5bc5f36b8d83e10001724601","oj323h","ll","53","f","{""name"":""Chrome"",""chrome"":true,""version"":""106.0"",""blink"":true,""windows"":true,""osname"":""Windows"",""osversion"":""10"",""a"":true}","9:24:2","0","2","Practice_2","70","f","1","1233.800000000745","1536 x 864","1536 x 864","true","1","10","","","","",""
"null","<p style=""font-size: 80px;"">+ 0 points</p>","null","html-keyboard-response","29","177195","0.0-7.0-2.28","5bc5f36b8d83e10001724601","oj323h","ll","53","f","{""name"":""Chrome"",""chrome"":true,""version"":""106.0"",""blink"":true,""windows"":true,""osname"":""Windows"",""osversion"":""10"",""a"":true}","9:24:2","0","2","Practice_4","74","f","0","1255.5","1536 x 864","1536 x 864","true","1","0","","","","",""
"null","<p style=""font-size: 80px;"">+ 10 points</p>","null","html-keyboard-response","30","180131","0.0-7.0-2.29","5bc5f36b8d83e10001724601","oj323h","ll","53","f","{""name"":""Chrome"",""chrome"":true,""version"":""106.0"",""blink"":true,""windows"":true,""osname"":""Windows"",""osversion"":""10"",""a"":true}","9:24:2","0","2","Practice_4","70","f","1","918.8999999985099","1536 x 864","1536 x 864","true","1","10","","","","",""
"null","<p style=""font-size: 80px;"">+ 10 points</p>","null","html-keyboard-response","31","183701","0.0-7.0-2.30","5bc5f36b8d83e10001724601","oj323h","ll","53","f","{""name"":""Chrome"",""chrome"":true,""version"":""106.0"",""blink"":true,""windows"":true,""osname"":""Windows"",""osversion"":""10"",""a"":true}","9:24:2","0","2","Practice_2","70","f","1","1549.2999999970198","1536 x 864","1536 x 864","true","1","10","","","","",""
"null","<p style=""font-size: 80px;"">+ 10 points</p>","null","html-keyboard-response","32","186818","0.0-7.0-2.31","5bc5f36b8d83e10001724601","oj323h","ll","53","f","{""name"":""Chrome"",""chrome"":true,""version"":""106.0"",""blink"":true,""windows"":true,""osname"":""Windows"",""osversion"":""10"",""a"":true}","9:24:2","0","2","Practice_3","74","j","1","1100.199999999255","1536 x 864","1536 x 864","true","1","10","","","","",""
"null","<p style=""font-size: 80px;"">+ 10 points</p>","null","html-keyboard-response","33","190032","0.0-7.0-2.32","5bc5f36b8d83e10001724601","oj323h","ll","53","f","{""name"":""Chrome"",""chrome"":true,""version"":""106.0"",""blink"":true,""windows"":true,""osname"":""Windows"",""osversion"":""10"",""a"":true}","9:24:2","0","2","Practice_3","74","j","1","1193.7000000029802","1536 x 864","1536 x 864","true","1","10","","","","",""
"null","<p style=""font-size: 80px;"">+ 0 points</p>","null","html-keyboard-response","34","192655","0.0-7.0-2.33","5bc5f36b8d83e10001724601","oj323h","ll","53","f","{""name"":""Chrome"",""chrome"":true,""version"":""106.0"",""blink"":true,""windows"":true,""osname"":""Windows"",""osversion"":""10"",""a"":true}","9:24:2","0","2","Practice_1","70","j","0","609.6000000014901","1536 x 864","1536 x 864","true","1","0","","","","",""
"null","<p style=""font-size: 80px;"">+ 10 points</p>","null","html-keyboard-response","35","195474","0.0-7.0-2.34","5bc5f36b8d83e10001724601","oj323h","ll","53","f","{""name"":""Chrome"",""chrome"":true,""version"":""106.0"",""blink"":true,""windows"":true,""osname"":""Windows"",""osversion"":""10"",""a"":true}","9:24:2","0","2","Practice_1","74","j","1","793.8000000007451","1536 x 864","1536 x 864","true","1","10","","","","",""
"null","<p style=""font-size: 80px;"">+ 10 points</p>","null","html-keyboard-response","36","199054","0.0-7.0-2.35","5bc5f36b8d83e10001724601","oj323h","ll","53","f","{""name"":""Chrome"",""chrome"":true,""version"":""106.0"",""blink"":true,""windows"":true,""osname"":""Windows"",""osversion"":""10"",""a"":true}","9:24:2","0","2","Practice_3","74","j","1","1554.800000000745","1536 x 864","1536 x 864","true","1","10","","","","",""
"null","<p style=""font-size: 80px;"">+ 10 points</p>","null","html-keyboard-response","37","201944","0.0-7.0-2.36","5bc5f36b8d83e10001724601","oj323h","ll","53","f","{""name"":""Chrome"",""chrome"":true,""version"":""106.0"",""blink"":true,""windows"":true,""osname"":""Windows"",""osversion"":""10"",""a"":true}","9:24:2","0","2","Practice_2","70","f","1","879.8999999985099","1536 x 864","1536 x 864","true","1","10","","","","",""
"null","<p style=""font-size: 80px;"">+ 10 points</p>","null","html-keyboard-response","38","204795","0.0-7.0-2.37","5bc5f36b8d83e10001724601","oj323h","ll","53","f","{""name"":""Chrome"",""chrome"":true,""version"":""106.0"",""blink"":true,""windows"":true,""osname"":""Windows"",""osversion"":""10"",""a"":true}","9:24:2","0","2","Practice_1","74","j","1","832.5","1536 x 864","1536 x 864","true","1","10","","","","",""
"null","<p style=""font-size: 80px;"">+ 10 points</p>","null","html-keyboard-response","39","207563","0.0-7.0-2.38","5bc5f36b8d83e10001724601","oj323h","ll","53","f","{""name"":""Chrome"",""chrome"":true,""version"":""106.0"",""blink"":true,""windows"":true,""osname"":""Windows"",""osversion"":""10"",""a"":true}","9:24:2","0","2","Practice_1","74","j","1","750","1536 x 864","1536 x 864","true","1","10","","","","",""
"null","<p style=""font-size: 80px;"">+ 10 points</p>","null","html-keyboard-response","40","210325","0.0-7.0-2.39","5bc5f36b8d83e10001724601","oj323h","ll","53","f","{""name"":""Chrome"",""chrome"":true,""version"":""106.0"",""blink"":true,""windows"":true,""osname"":""Windows"",""osversion"":""10"",""a"":true}","9:24:2","0","2","Practice_4","70","f","1","737.8999999985099","1536 x 864","1536 x 864","true","1","10","","","","",""
"14889.199999999255","","","survey-multi-choice","127","225217","0.0-8.0","5bc5f36b8d83e10001724601","oj323h","ll","53","f","{""name"":""Chrome"",""chrome"":true,""version"":""106.0"",""blink"":true,""windows"":true,""osname"":""Windows"",""osversion"":""10"",""a"":true}","9:24:2","","","","","","","","","","","1","","{""Q0"":""The red one"",""Q1"":""1""}","[0,1]","1","The red one","2"
"null","<p style=""font-size: 80px;"">+ 10 points</p>","null","html-keyboard-response","1","236467","0.0-11.0-2.0","5bc5f36b8d83e10001724601","oj323h","ll","53","f","{""name"":""Chrome"",""chrome"":true,""version"":""106.0"",""blink"":true,""windows"":true,""osname"":""Windows"",""osversion"":""10"",""a"":true}","9:24:2","1","4","Test_3","74","j","1","1081","1536 x 864","1536 x 864","true","1","10","","","","",""
"null","<p style=""font-size: 80px;"">+ 10 points</p>","null","html-keyboard-response","2","239449","0.0-11.0-2.1","5bc5f36b8d83e10001724601","oj323h","ll","53","f","{""name"":""Chrome"",""chrome"":true,""version"":""106.0"",""blink"":true,""windows"":true,""osname"":""Windows"",""osversion"":""10"",""a"":true}","9:24:2","1","4","Test_2","70","f","1","961.2000000029802","1536 x 864","1536 x 864","true","1","10","","","","",""
"null","<p style=""font-size: 80px;"">+ 10 points</p>","null","html-keyboard-response","3","242995","0.0-11.0-2.2","5bc5f36b8d83e10001724601","oj323h","ll","53","f","{""name"":""Chrome"",""chrome"":true,""version"":""106.0"",""blink"":true,""windows"":true,""osname"":""Windows"",""osversion"":""10"",""a"":true}","9:24:2","1","4","Test_4","70","f","1","1517.1000000014901","1536 x 864","1536 x 864","true","1","10","","","","",""
"null","<p style=""font-size: 80px;"">+ 0 points</p>","null","html-keyboard-response","4","245647","0.0-11.0-2.3","5bc5f36b8d83e10001724601","oj323h","ll","53","f","{""name"":""Chrome"",""chrome"":true,""version"":""106.0"",""blink"":true,""windows"":true,""osname"":""Windows"",""osversion"":""10"",""a"":true}","9:24:2","1","4","Test_2","74","f","0","637.6999999992549","1536 x 864","1536 x 864","true","1","0","","","","",""
"null","<p style=""font-size: 80px;"">+ 10 points</p>","null","html-keyboard-response","5","248156","0.0-11.0-2.4","5bc5f36b8d83e10001724601","oj323h","ll","53","f","{""name"":""Chrome"",""chrome"":true,""version"":""106.0"",""blink"":true,""windows"":true,""osname"":""Windows"",""osversion"":""10"",""a"":true}","9:24:2","1","4","Test_2","70","f","1","487","1536 x 864","1536 x 864","true","1","10","","","","",""
"null","<p style=""font-size: 80px;"">+ 10 points</p>","null","html-keyboard-response","6","250784","0.0-11.0-2.5","5bc5f36b8d83e10001724601","oj323h","ll","53","f","{""name"":""Chrome"",""chrome"":true,""version"":""106.0"",""blink"":true,""windows"":true,""osname"":""Windows"",""osversion"":""10"",""a"":true}","9:24:2","1","4","Test_3","74","j","1","593.3999999985099","1536 x 864","1536 x 864","true","1","10","","","","",""
"null","<p style=""font-size: 80px;"">+ 10 points</p>","null","html-keyboard-response","7","254051","0.0-11.0-2.6","5bc5f36b8d83e10001724601","oj323h","ll","53","f","{""name"":""Chrome"",""chrome"":true,""version"":""106.0"",""blink"":true,""windows"":true,""osname"":""Windows"",""osversion"":""10"",""a"":true}","9:24:2","1","4","Test_1","74","j","1","1244.6000000014901","1536 x 864","1536 x 864","true","1","10","","","","",""
"null","<p style=""font-size: 80px;"">+ 10 points</p>","null","html-keyboard-response","8","257147","0.0-11.0-2.7","5bc5f36b8d83e10001724601","oj323h","ll","53","f","{""name"":""Chrome"",""chrome"":true,""version"":""106.0"",""blink"":true,""windows"":true,""osname"":""Windows"",""osversion"":""10"",""a"":true}","9:24:2","1","4","Test_4","70","f","1","1071","1536 x 864","1536 x 864","true","1","10","","","","",""
"null","<p style=""font-size: 80px;"">+ 10 points</p>","null","html-keyboard-response","9","260161","0.0-11.0-2.8","5bc5f36b8d83e10001724601","oj323h","ll","53","f","{""name"":""Chrome"",""chrome"":true,""version"":""106.0"",""blink"":true,""windows"":true,""osname"":""Windows"",""osversion"":""10"",""a"":true}","9:24:2","1","4","Test_1","74","j","1","1000.1000000014901","1536 x 864","1536 x 864","true","1","10","","","","",""
"null","<p style=""font-size: 80px;"">+ 10 points</p>","null","html-keyboard-response","10","262842","0.0-11.0-2.9","5bc5f36b8d83e10001724601","oj323h","ll","53","f","{""name"":""Chrome"",""chrome"":true,""version"":""106.0"",""blink"":true,""windows"":true,""osname"":""Windows"",""osversion"":""10"",""a"":true}","9:24:2","1","4","Test_1","74","j","1","652.6999999992549","1536 x 864","1536 x 864","true","1","10","","","","",""
"null","<p style=""font-size: 80px;"">+ 10 points</p>","null","html-keyboard-response","11","265300","0.0-11.0-2.10","5bc5f36b8d83e10001724601","oj323h","ll","53","f","{""name"":""Chrome"",""chrome"":true,""version"":""106.0"",""blink"":true,""windows"":true,""osname"":""Windows"",""osversion"":""10"",""a"":true}","9:24:2","1","4","Test_1","74","j","1","442.30000000074506","1536 x 864","1536 x 864","true","1","10","","","","",""
"null","<p style=""font-size: 80px;"">+ 10 points</p>","null","html-keyboard-response","12","267872","0.0-11.0-2.11","5bc5f36b8d83e10001724601","oj323h","ll","53","f","{""name"":""Chrome"",""chrome"":true,""version"":""106.0"",""blink"":true,""windows"":true,""osname"":""Windows"",""osversion"":""10"",""a"":true}","9:24:2","1","4","Test_2","70","f","1","561.3000000007451","1536 x 864","1536 x 864","true","1","10","","","","",""
"null","<p style=""font-size: 80px;"">+ 10 points</p>","null","html-keyboard-response","13","270451","0.0-11.0-2.12","5bc5f36b8d83e10001724601","oj323h","ll","53","f","{""name"":""Chrome"",""chrome"":true,""version"":""106.0"",""blink"":true,""windows"":true,""osname"":""Windows"",""osversion"":""10"",""a"":true}","9:24:2","1","4","Test_3","74","j","1","564.1999999992549","1536 x 864","1536 x 864","true","1","10","","","","",""
"null","<p style=""font-size: 80px;"">+ 10 points</p>","null","html-keyboard-response","14","272933","0.0-11.0-2.13","5bc5f36b8d83e10001724601","oj323h","ll","53","f","{""name"":""Chrome"",""chrome"":true,""version"":""106.0"",""blink"":true,""windows"":true,""osname"":""Windows"",""osversion"":""10"",""a"":true}","9:24:2","1","4","Test_3","74","j","1","461","1536 x 864","1536 x 864","true","1","10","","","","",""
"null","<p style=""font-size: 80px;"">+ 10 points</p>","null","html-keyboard-response","15","275754","0.0-11.0-2.14","5bc5f36b8d83e10001724601","oj323h","ll","53","f","{""name"":""Chrome"",""chrome"":true,""version"":""106.0"",""blink"":true,""windows"":true,""osname"":""Windows"",""osversion"":""10"",""a"":true}","9:24:2","1","4","Test_4","70","f","1","801.5","1536 x 864","1536 x 864","true","1","10","","","","",""
"null","<p style=""font-size: 80px;"">+ 10 points</p>","null","html-keyboard-response","16","278425","0.0-11.0-2.15","5bc5f36b8d83e10001724601","oj323h","ll","53","f","{""name"":""Chrome"",""chrome"":true,""version"":""106.0"",""blink"":true,""windows"":true,""osname"":""Windows"",""osversion"":""10"",""a"":true}","9:24:2","1","4","Test_4","70","f","1","652.1999999992549","1536 x 864","1536 x 864","true","1","10","","","","",""
"null","<p style=""font-size: 80px;"">+ 0 points</p>","null","html-keyboard-response","17","281065","0.0-11.0-2.16","5bc5f36b8d83e10001724601","oj323h","ll","53","f","{""name"":""Chrome"",""chrome"":true,""version"":""106.0"",""blink"":true,""windows"":true,""osname"":""Windows"",""osversion"":""10"",""a"":true}","9:24:2","1","3","Test_4","70","j","0","613.9000000022352","1536 x 864","1536 x 864","true","1","0","","","","",""
"null","<p style=""font-size: 80px;"">+ 10 points</p>","null","html-keyboard-response","18","284167","0.0-11.0-2.17","5bc5f36b8d83e10001724601","oj323h","ll","53","f","{""name"":""Chrome"",""chrome"":true,""version"":""106.0"",""blink"":true,""windows"":true,""osname"":""Windows"",""osversion"":""10"",""a"":true}","9:24:2","1","3","Test_1","70","f","1","1092.2999999970198","1536 x 864","1536 x 864","true","1","10","","","","",""
"null","<p style=""font-size: 80px;"">+ 10 points</p>","null","html-keyboard-response","19","286700","0.0-11.0-2.18","5bc5f36b8d83e10001724601","oj323h","ll","53","f","{""name"":""Chrome"",""chrome"":true,""version"":""106.0"",""blink"":true,""windows"":true,""osname"":""Windows"",""osversion"":""10"",""a"":true}","9:24:2","1","3","Test_2","74","j","1","519.3000000007451","1536 x 864","1536 x 864","true","1","10","","","","",""
"null","<p style=""font-size: 80px;"">+ 10 points</p>","null","html-keyboard-response","20","289415","0.0-11.0-2.19","5bc5f36b8d83e10001724601","oj323h","ll","53","f","{""name"":""Chrome"",""chrome"":true,""version"":""106.0"",""blink"":true,""windows"":true,""osname"":""Windows"",""osversion"":""10"",""a"":true}","9:24:2","1","3","Test_4","74","j","1","699","1536 x 864","1536 x 864","true","1","10","","","","",""
"null","<p style=""font-size: 80px;"">+ 10 points</p>","null","html-keyboard-response","21","292203","0.0-11.0-2.20","5bc5f36b8d83e10001724601","oj323h","ll","53","f","{""name"":""Chrome"",""chrome"":true,""version"":""106.0"",""blink"":true,""windows"":true,""osname"":""Windows"",""osversion"":""10"",""a"":true}","9:24:2","1","3","Test_1","70","f","1","756","1536 x 864","1536 x 864","true","1","10","","","","",""
"null","<p style=""font-size: 80px;"">+ 10 points</p>","null","html-keyboard-response","22","295594","0.0-11.0-2.21","5bc5f36b8d83e10001724601","oj323h","ll","53","f","{""name"":""Chrome"",""chrome"":true,""version"":""106.0"",""blink"":true,""windows"":true,""osname"":""Windows"",""osversion"":""10"",""a"":true}","9:24:2","1","3","Test_2","74","j","1","1374.0999999977648","1536 x 864","1536 x 864","true","1","10","","","","",""
"null","<p style=""font-size: 80px;"">+ 10 points</p>","null","html-keyboard-response","23","298411","0.0-11.0-2.22","5bc5f36b8d83e10001724601","oj323h","ll","53","f","{""name"":""Chrome"",""chrome"":true,""version"":""106.0"",""blink"":true,""windows"":true,""osname"":""Windows"",""osversion"":""10"",""a"":true}","9:24:2","1","3","Test_1","70","f","1","786.7000000029802","1536 x 864","1536 x 864","true","1","10","","","","",""
"null","<p style=""font-size: 80px;"">+ 10 points</p>","null","html-keyboard-response","24","301081","0.0-11.0-2.23","5bc5f36b8d83e10001724601","oj323h","ll","53","f","{""name"":""Chrome"",""chrome"":true,""version"":""106.0"",""blink"":true,""windows"":true,""osname"":""Windows"",""osversion"":""10"",""a"":true}","9:24:2","1","3","Test_3","70","f","1","640.6999999992549","1536 x 864","1536 x 864","true","1","10","","","","",""
"null","<p style=""font-size: 80px;"">+ 10 points</p>","null","html-keyboard-response","25","304111","0.0-11.0-2.24","5bc5f36b8d83e10001724601","oj323h","ll","53","f","{""name"":""Chrome"",""chrome"":true,""version"":""106.0"",""blink"":true,""windows"":true,""osname"":""Windows"",""osversion"":""10"",""a"":true}","9:24:2","1","3","Test_2","74","j","1","1008.3000000007451","1536 x 864","1536 x 864","true","1","10","","","","",""
"null","<p style=""font-size: 80px;"">+ 10 points</p>","null","html-keyboard-response","26","306778","0.0-11.0-2.25","5bc5f36b8d83e10001724601","oj323h","ll","53","f","{""name"":""Chrome"",""chrome"":true,""version"":""106.0"",""blink"":true,""windows"":true,""osname"":""Windows"",""osversion"":""10"",""a"":true}","9:24:2","1","3","Test_1","70","f","1","655.6999999992549","1536 x 864","1536 x 864","true","1","10","","","","",""
"null","<p style=""font-size: 80px;"">+ 10 points</p>","null","html-keyboard-response","27","309524","0.0-11.0-2.26","5bc5f36b8d83e10001724601","oj323h","ll","53","f","{""name"":""Chrome"",""chrome"":true,""version"":""106.0"",""blink"":true,""windows"":true,""osname"":""Windows"",""osversion"":""10"",""a"":true}","9:24:2","1","3","Test_4","74","j","1","726.8000000007451","1536 x 864","1536 x 864","true","1","10","","","","",""
"null","<p style=""font-size: 80px;"">+ 10 points</p>","null","html-keyboard-response","28","312098","0.0-11.0-2.27","5bc5f36b8d83e10001724601","oj323h","ll","53","f","{""name"":""Chrome"",""chrome"":true,""version"":""106.0"",""blink"":true,""windows"":true,""osname"":""Windows"",""osversion"":""10"",""a"":true}","9:24:2","1","3","Test_3","70","f","1","562.9000000022352","1536 x 864","1536 x 864","true","1","10","","","","",""
"null","<p style=""font-size: 80px;"">+ 10 points</p>","null","html-keyboard-response","29","314751","0.0-11.0-2.28","5bc5f36b8d83e10001724601","oj323h","ll","53","f","{""name"":""Chrome"",""chrome"":true,""version"":""106.0"",""blink"":true,""windows"":true,""osname"":""Windows"",""osversion"":""10"",""a"":true}","9:24:2","1","3","Test_4","74","j","1","634.4000000022352","1536 x 864","1536 x 864","true","1","10","","","","",""
"null","<p style=""font-size: 80px;"">+ 10 points</p>","null","html-keyboard-response","30","317614","0.0-11.0-2.29","5bc5f36b8d83e10001724601","oj323h","ll","53","f","{""name"":""Chrome"",""chrome"":true,""version"":""106.0"",""blink"":true,""windows"":true,""osname"":""Windows"",""osversion"":""10"",""a"":true}","9:24:2","1","3","Test_2","74","j","1","848.8000000007451","1536 x 864","1536 x 864","true","1","10","","","","",""
"null","<p style=""font-size: 80px;"">+ 10 points</p>","null","html-keyboard-response","31","320661","0.0-11.0-2.30","5bc5f36b8d83e10001724601","oj323h","ll","53","f","{""name"":""Chrome"",""chrome"":true,""version"":""106.0"",""blink"":true,""windows"":true,""osname"":""Windows"",""osversion"":""10"",""a"":true}","9:24:2","1","3","Test_3","70","f","1","1032.300000000745","1536 x 864","1536 x 864","true","1","10","","","","",""
"null","<p style=""font-size: 80px;"">+ 10 points</p>","null","html-keyboard-response","32","324115","0.0-11.0-2.31","5bc5f36b8d83e10001724601","oj323h","ll","53","f","{""name"":""Chrome"",""chrome"":true,""version"":""106.0"",""blink"":true,""windows"":true,""osname"":""Windows"",""osversion"":""10"",""a"":true}","9:24:2","1","3","Test_1","70","f","1","1435.300000000745","1536 x 864","1536 x 864","true","1","10","","","","",""
"null","<p style=""font-size: 80px;"">+ 10 points</p>","null","html-keyboard-response","33","327093","0.0-11.0-2.32","5bc5f36b8d83e10001724601","oj323h","ll","53","f","{""name"":""Chrome"",""chrome"":true,""version"":""106.0"",""blink"":true,""windows"":true,""osname"":""Windows"",""osversion"":""10"",""a"":true}","9:24:2","1","3","Test_2","74","j","1","967.5","1536 x 864","1536 x 864","true","1","10","","","","",""
"null","<p style=""font-size: 80px;"">+ 10 points</p>","null","html-keyboard-response","34","329789","0.0-11.0-2.33","5bc5f36b8d83e10001724601","oj323h","ll","53","f","{""name"":""Chrome"",""chrome"":true,""version"":""106.0"",""blink"":true,""windows"":true,""osname"":""Windows"",""osversion"":""10"",""a"":true}","9:24:2","1","3","Test_1","70","f","1","680.3999999985099","1536 x 864","1536 x 864","true","1","10","","","","",""
"null","<p style=""font-size: 80px;"">+ 0 points</p>","null","html-keyboard-response","35","332840","0.0-11.0-2.34","5bc5f36b8d83e10001724601","oj323h","ll","53","f","{""name"":""Chrome"",""chrome"":true,""version"":""106.0"",""blink"":true,""windows"":true,""osname"":""Windows"",""osversion"":""10"",""a"":true}","9:24:2","1","3","Test_3","74","f","0","1027.300000000745","1536 x 864","1536 x 864","true","1","0","","","","",""
"null","<p style=""font-size: 80px;"">+ 10 points</p>","null","html-keyboard-response","36","335423","0.0-11.0-2.35","5bc5f36b8d83e10001724601","oj323h","ll","53","f","{""name"":""Chrome"",""chrome"":true,""version"":""106.0"",""blink"":true,""windows"":true,""osname"":""Windows"",""osversion"":""10"",""a"":true}","9:24:2","1","3","Test_3","70","f","1","558.8000000007451","1536 x 864","1536 x 864","true","1","10","","","","",""
"null","<p style=""font-size: 80px;"">+ 10 points</p>","null","html-keyboard-response","37","338114","0.0-11.0-2.36","5bc5f36b8d83e10001724601","oj323h","ll","53","f","{""name"":""Chrome"",""chrome"":true,""version"":""106.0"",""blink"":true,""windows"":true,""osname"":""Windows"",""osversion"":""10"",""a"":true}","9:24:2","1","3","Test_4","74","j","1","669.1000000014901","1536 x 864","1536 x 864","true","1","10","","","","",""
"null","<p style=""font-size: 80px;"">+ 0 points</p>","null","html-keyboard-response","38","341491","0.0-11.0-2.37","5bc5f36b8d83e10001724601","oj323h","ll","53","f","{""name"":""Chrome"",""chrome"":true,""version"":""106.0"",""blink"":true,""windows"":true,""osname"":""Windows"",""osversion"":""10"",""a"":true}","9:24:2","1","3","Test_4","70","j","0","1362.800000000745","1536 x 864","1536 x 864","true","1","0","","","","",""
"null","<p style=""font-size: 80px;"">+ 0 points</p>","null","html-keyboard-response","39","344882","0.0-11.0-2.38","5bc5f36b8d83e10001724601","oj323h","ll","53","f","{""name"":""Chrome"",""chrome"":true,""version"":""106.0"",""blink"":true,""windows"":true,""osname"":""Windows"",""osversion"":""10"",""a"":true}","9:24:2","1","3","Test_2","70","j","0","1381.800000000745","1536 x 864","1536 x 864","true","1","0","","","","",""
"null","<p style=""font-size: 80px;"">+ 0 points</p>","null","html-keyboard-response","40","347887","0.0-11.0-2.39","5bc5f36b8d83e10001724601","oj323h","ll","53","f","{""name"":""Chrome"",""chrome"":true,""version"":""106.0"",""blink"":true,""windows"":true,""osname"":""Windows"",""osversion"":""10"",""a"":true}","9:24:2","1","3","Test_3","74","f","0","984.5999999977648","1536 x 864","1536 x 864","true","1","0","","","","",""
"null","<p style=""font-size: 80px;"">+ 0 points</p>","null","html-keyboard-response","41","350661","0.0-11.0-2.40","5bc5f36b8d83e10001724601","oj323h","ll","53","f","{""name"":""Chrome"",""chrome"":true,""version"":""106.0"",""blink"":true,""windows"":true,""osname"":""Windows"",""osversion"":""10"",""a"":true}","9:24:2","1","4","Test_2","74","f","0","748","1536 x 864","1536 x 864","true","1","0","","","","",""
"null","<p style=""font-size: 80px;"">+ 10 points</p>","null","html-keyboard-response","42","353604","0.0-11.0-2.41","5bc5f36b8d83e10001724601","oj323h","ll","53","f","{""name"":""Chrome"",""chrome"":true,""version"":""106.0"",""blink"":true,""windows"":true,""osname"":""Windows"",""osversion"":""10"",""a"":true}","9:24:2","1","4","Test_3","74","j","1","930.1000000014901","1536 x 864","1536 x 864","true","1","10","","","","",""
"null","<p style=""font-size: 80px;"">+ 10 points</p>","null","html-keyboard-response","43","356633","0.0-11.0-2.42","5bc5f36b8d83e10001724601","oj323h","ll","53","f","{""name"":""Chrome"",""chrome"":true,""version"":""106.0"",""blink"":true,""windows"":true,""osname"":""Windows"",""osversion"":""10"",""a"":true}","9:24:2","1","4","Test_2","70","f","1","1016.1000000014901","1536 x 864","1536 x 864","true","1","10","","","","",""
"null","<p style=""font-size: 80px;"">+ 10 points</p>","null","html-keyboard-response","44","359363","0.0-11.0-2.43","5bc5f36b8d83e10001724601","oj323h","ll","53","f","{""name"":""Chrome"",""chrome"":true,""version"":""106.0"",""blink"":true,""windows"":true,""osname"":""Windows"",""osversion"":""10"",""a"":true}","9:24:2","1","4","Test_2","70","f","1","700.1999999992549","1536 x 864","1536 x 864","true","1","10","","","","",""
"null","<p style=""font-size: 80px;"">+ 10 points</p>","null","html-keyboard-response","45","362089","0.0-11.0-2.44","5bc5f36b8d83e10001724601","oj323h","ll","53","f","{""name"":""Chrome"",""chrome"":true,""version"":""106.0"",""blink"":true,""windows"":true,""osname"":""Windows"",""osversion"":""10"",""a"":true}","9:24:2","1","4","Test_1","74","j","1","713","1536 x 864","1536 x 864","true","1","10","","","","",""
"null","<p style=""font-size: 80px;"">+ 10 points</p>","null","html-keyboard-response","46","364820","0.0-11.0-2.45","5bc5f36b8d83e10001724601","oj323h","ll","53","f","{""name"":""Chrome"",""chrome"":true,""version"":""106.0"",""blink"":true,""windows"":true,""osname"":""Windows"",""osversion"":""10"",""a"":true}","9:24:2","1","4","Test_4","70","f","1","710.3000000007451","1536 x 864","1536 x 864","true","1","10","","","","",""
"null","<p style=""font-size: 80px;"">+ 10 points</p>","null","html-keyboard-response","47","367774","0.0-11.0-2.46","5bc5f36b8d83e10001724601","oj323h","ll","53","f","{""name"":""Chrome"",""chrome"":true,""version"":""106.0"",""blink"":true,""windows"":true,""osname"":""Windows"",""osversion"":""10"",""a"":true}","9:24:2","1","4","Test_4","70","f","1","939.2999999970198","1536 x 864","1536 x 864","true","1","10","","","","",""
"null","<p style=""font-size: 80px;"">+ 10 points</p>","null","html-keyboard-response","48","370886","0.0-11.0-2.47","5bc5f36b8d83e10001724601","oj323h","ll","53","f","{""name"":""Chrome"",""chrome"":true,""version"":""106.0"",""blink"":true,""windows"":true,""osname"":""Windows"",""osversion"":""10"",""a"":true}","9:24:2","1","4","Test_3","74","j","1","1106.1000000014901","1536 x 864","1536 x 864","true","1","10","","","","",""
"null","<p style=""font-size: 80px;"">+ 10 points</p>","null","html-keyboard-response","49","373693","0.0-11.0-2.48","5bc5f36b8d83e10001724601","oj323h","ll","53","f","{""name"":""Chrome"",""chrome"":true,""version"":""106.0"",""blink"":true,""windows"":true,""osname"":""Windows"",""osversion"":""10"",""a"":true}","9:24:2","1","4","Test_1","74","j","1","785.6999999992549","1536 x 864","1536 x 864","true","1","10","","","","",""
"null","<p style=""font-size: 80px;"">+ 10 points</p>","null","html-keyboard-response","50","376577","0.0-11.0-2.49","5bc5f36b8d83e10001724601","oj323h","ll","53","f","{""name"":""Chrome"",""chrome"":true,""version"":""106.0"",""blink"":true,""windows"":true,""osname"":""Windows"",""osversion"":""10"",""a"":true}","9:24:2","1","4","Test_4","70","f","1","863.6000000014901","1536 x 864","1536 x 864","true","1","10","","","","",""
"null","<p style=""font-size: 80px;"">+ 10 points</p>","null","html-keyboard-response","51","379344","0.0-11.0-2.50","5bc5f36b8d83e10001724601","oj323h","ll","53","f","{""name"":""Chrome"",""chrome"":true,""version"":""106.0"",""blink"":true,""windows"":true,""osname"":""Windows"",""osversion"":""10"",""a"":true}","9:24:2","1","4","Test_1","74","j","1","740","1536 x 864","1536 x 864","true","1","10","","","","",""
"null","<p style=""font-size: 80px;"">+ 10 points</p>","null","html-keyboard-response","52","382243","0.0-11.0-2.51","5bc5f36b8d83e10001724601","oj323h","ll","53","f","{""name"":""Chrome"",""chrome"":true,""version"":""106.0"",""blink"":true,""windows"":true,""osname"":""Windows"",""osversion"":""10"",""a"":true}","9:24:2","1","4","Test_3","74","j","1","872.5","1536 x 864","1536 x 864","true","1","10","","","","",""
"null","<p style=""font-size: 80px;"">+ 10 points</p>","null","html-keyboard-response","53","384921","0.0-11.0-2.52","5bc5f36b8d83e10001724601","oj323h","ll","53","f","{""name"":""Chrome"",""chrome"":true,""version"":""106.0"",""blink"":true,""windows"":true,""osname"":""Windows"",""osversion"":""10"",""a"":true}","9:24:2","1","4","Test_4","70","f","1","663.0999999977648","1536 x 864","1536 x 864","true","1","10","","","","",""
"null","<p style=""font-size: 80px;"">+ 10 points</p>","null","html-keyboard-response","54","387645","0.0-11.0-2.53","5bc5f36b8d83e10001724601","oj323h","ll","53","f","{""name"":""Chrome"",""chrome"":true,""version"":""106.0"",""blink"":true,""windows"":true,""osname"":""Windows"",""osversion"":""10"",""a"":true}","9:24:2","1","4","Test_1","74","j","1","714.6999999992549","1536 x 864","1536 x 864","true","1","10","","","","",""
"null","<p style=""font-size: 80px;"">+ 10 points</p>","null","html-keyboard-response","55","390176","0.0-11.0-2.54","5bc5f36b8d83e10001724601","oj323h","ll","53","f","{""name"":""Chrome"",""chrome"":true,""version"":""106.0"",""blink"":true,""windows"":true,""osname"":""Windows"",""osversion"":""10"",""a"":true}","9:24:2","1","4","Test_2","70","f","1","519.1000000014901","1536 x 864","1536 x 864","true","1","10","","","","",""
"null","<p style=""font-size: 80px;"">+ 0 points</p>","null","html-keyboard-response","56","392840","0.0-11.0-2.55","5bc5f36b8d83e10001724601","oj323h","ll","53","f","{""name"":""Chrome"",""chrome"":true,""version"":""106.0"",""blink"":true,""windows"":true,""osname"":""Windows"",""osversion"":""10"",""a"":true}","9:24:2","1","3","Test_1","74","f","0","640.6999999992549","1536 x 864","1536 x 864","true","1","0","","","","",""
"null","<p style=""font-size: 80px;"">+ 10 points</p>","null","html-keyboard-response","57","396326","0.0-11.0-2.56","5bc5f36b8d83e10001724601","oj323h","ll","53","f","{""name"":""Chrome"",""chrome"":true,""version"":""106.0"",""blink"":true,""windows"":true,""osname"":""Windows"",""osversion"":""10"",""a"":true}","9:24:2","1","3","Test_3","70","f","1","1462.199999999255","1536 x 864","1536 x 864","true","1","10","","","","",""
"null","<p style=""font-size: 80px;"">+ 10 points</p>","null","html-keyboard-response","58","399491","0.0-11.0-2.57","5bc5f36b8d83e10001724601","oj323h","ll","53","f","{""name"":""Chrome"",""chrome"":true,""version"":""106.0"",""blink"":true,""windows"":true,""osname"":""Windows"",""osversion"":""10"",""a"":true}","9:24:2","1","3","Test_2","74","j","1","1150.199999999255","1536 x 864","1536 x 864","true","1","10","","","","",""
"null","<p style=""font-size: 80px;"">+ 10 points</p>","null","html-keyboard-response","59","402250","0.0-11.0-2.58","5bc5f36b8d83e10001724601","oj323h","ll","53","f","{""name"":""Chrome"",""chrome"":true,""version"":""106.0"",""blink"":true,""windows"":true,""osname"":""Windows"",""osversion"":""10"",""a"":true}","9:24:2","1","3","Test_2","74","j","1","741.5","1536 x 864","1536 x 864","true","1","10","","","","",""
"null","<p style=""font-size: 80px;"">+ 10 points</p>","null","html-keyboard-response","60","404880","0.0-11.0-2.59","5bc5f36b8d83e10001724601","oj323h","ll","53","f","{""name"":""Chrome"",""chrome"":true,""version"":""106.0"",""blink"":true,""windows"":true,""osname"":""Windows"",""osversion"":""10"",""a"":true}","9:24:2","1","3","Test_1","70","f","1","617.1000000014901","1536 x 864","1536 x 864","true","1","10","","","","",""
"null","<p style=""font-size: 80px;"">+ 10 points</p>","null","html-keyboard-response","61","408946","0.0-11.0-2.60","5bc5f36b8d83e10001724601","oj323h","ll","53","f","{""name"":""Chrome"",""chrome"":true,""version"":""106.0"",""blink"":true,""windows"":true,""osname"":""Windows"",""osversion"":""10"",""a"":true}","9:24:2","1","3","Test_3","70","f","1","2038.5","1536 x 864","1536 x 864","true","1","10","","","","",""
"null","<p style=""font-size: 80px;"">+ 10 points</p>","null","html-keyboard-response","62","411548","0.0-11.0-2.61","5bc5f36b8d83e10001724601","oj323h","ll","53","f","{""name"":""Chrome"",""chrome"":true,""version"":""106.0"",""blink"":true,""windows"":true,""osname"":""Windows"",""osversion"":""10"",""a"":true}","9:24:2","1","3","Test_3","70","f","1","570.5","1536 x 864","1536 x 864","true","1","10","","","","",""
"null","<p style=""font-size: 80px;"">+ 10 points</p>","null","html-keyboard-response","63","414370","0.0-11.0-2.62","5bc5f36b8d83e10001724601","oj323h","ll","53","f","{""name"":""Chrome"",""chrome"":true,""version"":""106.0"",""blink"":true,""windows"":true,""osname"":""Windows"",""osversion"":""10"",""a"":true}","9:24:2","1","3","Test_4","74","j","1","803","1536 x 864","1536 x 864","true","1","10","","","","",""
"null","<p style=""font-size: 80px;"">+ 10 points</p>","null","html-keyboard-response","64","417361","0.0-11.0-2.63","5bc5f36b8d83e10001724601","oj323h","ll","53","f","{""name"":""Chrome"",""chrome"":true,""version"":""106.0"",""blink"":true,""windows"":true,""osname"":""Windows"",""osversion"":""10"",""a"":true}","9:24:2","1","3","Test_2","74","j","1","980.3999999985099","1536 x 864","1536 x 864","true","1","10","","","","",""
"null","<p style=""font-size: 80px;"">+ 10 points</p>","null","html-keyboard-response","65","420250","0.0-11.0-2.64","5bc5f36b8d83e10001724601","oj323h","ll","53","f","{""name"":""Chrome"",""chrome"":true,""version"":""106.0"",""blink"":true,""windows"":true,""osname"":""Windows"",""osversion"":""10"",""a"":true}","9:24:2","1","3","Test_1","70","f","1","872.2000000029802","1536 x 864","1536 x 864","true","1","10","","","","",""
"null","<p style=""font-size: 80px;"">+ 10 points</p>","null","html-keyboard-response","66","422872","0.0-11.0-2.65","5bc5f36b8d83e10001724601","oj323h","ll","53","f","{""name"":""Chrome"",""chrome"":true,""version"":""106.0"",""blink"":true,""windows"":true,""osname"":""Windows"",""osversion"":""10"",""a"":true}","9:24:2","1","3","Test_1","70","f","1","593.0999999977648","1536 x 864","1536 x 864","true","1","10","","","","",""
"null","<p style=""font-size: 80px;"">+ 10 points</p>","null","html-keyboard-response","67","425426","0.0-11.0-2.66","5bc5f36b8d83e10001724601","oj323h","ll","53","f","{""name"":""Chrome"",""chrome"":true,""version"":""106.0"",""blink"":true,""windows"":true,""osname"":""Windows"",""osversion"":""10"",""a"":true}","9:24:2","1","3","Test_2","74","j","1","539.1000000014901","1536 x 864","1536 x 864","true","1","10","","","","",""
"null","<p style=""font-size: 80px;"">+ 10 points</p>","null","html-keyboard-response","68","427956","0.0-11.0-2.67","5bc5f36b8d83e10001724601","oj323h","ll","53","f","{""name"":""Chrome"",""chrome"":true,""version"":""106.0"",""blink"":true,""windows"":true,""osname"":""Windows"",""osversion"":""10"",""a"":true}","9:24:2","1","3","Test_1","70","f","1","506","1536 x 864","1536 x 864","true","1","10","","","","",""
"null","<p style=""font-size: 80px;"">+ 10 points</p>","null","html-keyboard-response","69","430864","0.0-11.0-2.68","5bc5f36b8d83e10001724601","oj323h","ll","53","f","{""name"":""Chrome"",""chrome"":true,""version"":""106.0"",""blink"":true,""windows"":true,""osname"":""Windows"",""osversion"":""10"",""a"":true}","9:24:2","1","3","Test_4","74","j","1","899.0999999977648","1536 x 864","1536 x 864","true","1","10","","","","",""
"null","<p style=""font-size: 80px;"">+ 10 points</p>","null","html-keyboard-response","70","433299","0.0-11.0-2.69","5bc5f36b8d83e10001724601","oj323h","ll","53","f","{""name"":""Chrome"",""chrome"":true,""version"":""106.0"",""blink"":true,""windows"":true,""osname"":""Windows"",""osversion"":""10"",""a"":true}","9:24:2","1","3","Test_4","74","j","1","418.1000000014901","1536 x 864","1536 x 864","true","1","10","","","","",""
"null","<p style=""font-size: 80px;"">+ 10 points</p>","null","html-keyboard-response","71","435878","0.0-11.0-2.70","5bc5f36b8d83e10001724601","oj323h","ll","53","f","{""name"":""Chrome"",""chrome"":true,""version"":""106.0"",""blink"":true,""windows"":true,""osname"":""Windows"",""osversion"":""10"",""a"":true}","9:24:2","1","3","Test_4","74","j","1","550.6999999992549","1536 x 864","1536 x 864","true","1","10","","","","",""
"null","<p style=""font-size: 80px;"">+ 10 points</p>","null","html-keyboard-response","72","438378","0.0-11.0-2.71","5bc5f36b8d83e10001724601","oj323h","ll","53","f","{""name"":""Chrome"",""chrome"":true,""version"":""106.0"",""blink"":true,""windows"":true,""osname"":""Windows"",""osversion"":""10"",""a"":true}","9:24:2","1","3","Test_4","74","j","1","482.69999999925494","1536 x 864","1536 x 864","true","1","10","","","","",""
"null","<p style=""font-size: 80px;"">+ 10 points</p>","null","html-keyboard-response","73","441322","0.0-11.0-2.72","5bc5f36b8d83e10001724601","oj323h","ll","53","f","{""name"":""Chrome"",""chrome"":true,""version"":""106.0"",""blink"":true,""windows"":true,""osname"":""Windows"",""osversion"":""10"",""a"":true}","9:24:2","1","3","Test_3","70","f","1","916.5999999977648","1536 x 864","1536 x 864","true","1","10","","","","",""
"null","<p style=""font-size: 80px;"">+ 10 points</p>","null","html-keyboard-response","74","443846","0.0-11.0-2.73","5bc5f36b8d83e10001724601","oj323h","ll","53","f","{""name"":""Chrome"",""chrome"":true,""version"":""106.0"",""blink"":true,""windows"":true,""osname"":""Windows"",""osversion"":""10"",""a"":true}","9:24:2","1","3","Test_2","74","j","1","506.5","1536 x 864","1536 x 864","true","1","10","","","","",""
"null","<p style=""font-size: 80px;"">+ 10 points</p>","null","html-keyboard-response","75","446422","0.0-11.0-2.74","5bc5f36b8d83e10001724601","oj323h","ll","53","f","{""name"":""Chrome"",""chrome"":true,""version"":""106.0"",""blink"":true,""windows"":true,""osname"":""Windows"",""osversion"":""10"",""a"":true}","9:24:2","1","3","Test_3","70","f","1","562.2999999970198","1536 x 864","1536 x 864","true","1","10","","","","",""
"null","<p style=""font-size: 80px;"">+ 10 points</p>","null","html-keyboard-response","76","449466","0.0-11.0-2.75","5bc5f36b8d83e10001724601","oj323h","ll","53","f","{""name"":""Chrome"",""chrome"":true,""version"":""106.0"",""blink"":true,""windows"":true,""osname"":""Windows"",""osversion"":""10"",""a"":true}","9:24:2","1","3","Test_1","70","f","1","1021.1999999992549","1536 x 864","1536 x 864","true","1","10","","","","",""
"null","<p style=""font-size: 80px;"">+ 0 points</p>","null","html-keyboard-response","77","452236","0.0-11.0-2.76","5bc5f36b8d83e10001724601","oj323h","ll","53","f","{""name"":""Chrome"",""chrome"":true,""version"":""106.0"",""blink"":true,""windows"":true,""osname"":""Windows"",""osversion"":""10"",""a"":true}","9:24:2","1","4","Test_1","70","j","0","755.5999999977648","1536 x 864","1536 x 864","true","1","0","","","","",""
"null","<p style=""font-size: 80px;"">+ 10 points</p>","null","html-keyboard-response","78","454836","0.0-11.0-2.77","5bc5f36b8d83e10001724601","oj323h","ll","53","f","{""name"":""Chrome"",""chrome"":true,""version"":""106.0"",""blink"":true,""windows"":true,""osname"":""Windows"",""osversion"":""10"",""a"":true}","9:24:2","1","4","Test_1","74","j","1","578.3000000007451","1536 x 864","1536 x 864","true","1","10","","","","",""
"null","<p style=""font-size: 80px;"">+ 10 points</p>","null","html-keyboard-response","79","457339","0.0-11.0-2.78","5bc5f36b8d83e10001724601","oj323h","ll","53","f","{""name"":""Chrome"",""chrome"":true,""version"":""106.0"",""blink"":true,""windows"":true,""osname"":""Windows"",""osversion"":""10"",""a"":true}","9:24:2","1","4","Test_2","70","f","1","491.30000000074506","1536 x 864","1536 x 864","true","1","10","","","","",""
"null","<p style=""font-size: 80px;"">+ 10 points</p>","null","html-keyboard-response","80","459889","0.0-11.0-2.79","5bc5f36b8d83e10001724601","oj323h","ll","53","f","{""name"":""Chrome"",""chrome"":true,""version"":""106.0"",""blink"":true,""windows"":true,""osname"":""Windows"",""osversion"":""10"",""a"":true}","9:24:2","1","4","Test_1","74","j","1","531.3000000007451","1536 x 864","1536 x 864","true","1","10","","","","",""
"null","<p style=""font-size: 80px;"">+ 10 points</p>","null","html-keyboard-response","81","462722","0.0-11.0-2.80","5bc5f36b8d83e10001724601","oj323h","ll","53","f","{""name"":""Chrome"",""chrome"":true,""version"":""106.0"",""blink"":true,""windows"":true,""osname"":""Windows"",""osversion"":""10"",""a"":true}","9:24:2","1","4","Test_1","74","j","1","801.4000000022352","1536 x 864","1536 x 864","true","1","10","","","","",""
"null","<p style=""font-size: 80px;"">+ 0 points</p>","null","html-keyboard-response","82","465367","0.0-11.0-2.81","5bc5f36b8d83e10001724601","oj323h","ll","53","f","{""name"":""Chrome"",""chrome"":true,""version"":""106.0"",""blink"":true,""windows"":true,""osname"":""Windows"",""osversion"":""10"",""a"":true}","9:24:2","1","4","Test_1","70","j","0","627.3999999985099","1536 x 864","1536 x 864","true","1","0","","","","",""
"null","<p style=""font-size: 80px;"">+ 0 points</p>","null","html-keyboard-response","83","468738","0.0-11.0-2.82","5bc5f36b8d83e10001724601","oj323h","ll","53","f","{""name"":""Chrome"",""chrome"":true,""version"":""106.0"",""blink"":true,""windows"":true,""osname"":""Windows"",""osversion"":""10"",""a"":true}","9:24:2","1","4","Test_3","70","j","0","1347.4000000022352","1536 x 864","1536 x 864","true","1","0","","","","",""
"null","<p style=""font-size: 80px;"">+ 10 points</p>","null","html-keyboard-response","84","471537","0.0-11.0-2.83","5bc5f36b8d83e10001724601","oj323h","ll","53","f","{""name"":""Chrome"",""chrome"":true,""version"":""106.0"",""blink"":true,""windows"":true,""osname"":""Windows"",""osversion"":""10"",""a"":true}","9:24:2","1","4","Test_2","70","f","1","777.4000000022352","1536 x 864","1536 x 864","true","1","10","","","","",""
"null","<p style=""font-size: 80px;"">+ 0 points</p>","null","html-keyboard-response","85","474924","0.0-11.0-2.84","5bc5f36b8d83e10001724601","oj323h","ll","53","f","{""name"":""Chrome"",""chrome"":true,""version"":""106.0"",""blink"":true,""windows"":true,""osname"":""Windows"",""osversion"":""10"",""a"":true}","9:24:2","1","4","Test_4","74","f","0","1355.199999999255","1536 x 864","1536 x 864","true","1","0","","","","",""
"null","<p style=""font-size: 80px;"">+ 10 points</p>","null","html-keyboard-response","86","478058","0.0-11.0-2.85","5bc5f36b8d83e10001724601","oj323h","ll","53","f","{""name"":""Chrome"",""chrome"":true,""version"":""106.0"",""blink"":true,""windows"":true,""osname"":""Windows"",""osversion"":""10"",""a"":true}","9:24:2","1","4","Test_1","74","j","1","1106.1000000014901","1536 x 864","1536 x 864","true","1","10","","","","",""
"null","<p style=""font-size: 80px;"">+ 10 points</p>","null","html-keyboard-response","87","481201","0.0-11.0-2.86","5bc5f36b8d83e10001724601","oj323h","ll","53","f","{""name"":""Chrome"",""chrome"":true,""version"":""106.0"",""blink"":true,""windows"":true,""osname"":""Windows"",""osversion"":""10"",""a"":true}","9:24:2","1","4","Test_4","70","f","1","1123.9000000022352","1536 x 864","1536 x 864","true","1","10","","","","",""
"null","<p style=""font-size: 80px;"">+ 10 points</p>","null","html-keyboard-response","88","483971","0.0-11.0-2.87","5bc5f36b8d83e10001724601","oj323h","ll","53","f","{""name"":""Chrome"",""chrome"":true,""version"":""106.0"",""blink"":true,""windows"":true,""osname"":""Windows"",""osversion"":""10"",""a"":true}","9:24:2","1","4","Test_2","70","f","1","756.2000000029802","1536 x 864","1536 x 864","true","1","10","","","","",""
"null","<p style=""font-size: 80px;"">+ 10 points</p>","null","html-keyboard-response","89","486887","0.0-11.0-2.88","5bc5f36b8d83e10001724601","oj323h","ll","53","f","{""name"":""Chrome"",""chrome"":true,""version"":""106.0"",""blink"":true,""windows"":true,""osname"":""Windows"",""osversion"":""10"",""a"":true}","9:24:2","1","4","Test_2","70","f","1","883","1536 x 864","1536 x 864","true","1","10","","","","",""
"null","<p style=""font-size: 80px;"">+ 0 points</p>","null","html-keyboard-response","90","489892","0.0-11.0-2.89","5bc5f36b8d83e10001724601","oj323h","ll","53","f","{""name"":""Chrome"",""chrome"":true,""version"":""106.0"",""blink"":true,""windows"":true,""osname"":""Windows"",""osversion"":""10"",""a"":true}","9:24:2","1","4","Test_3","70","j","0","971.5","1536 x 864","1536 x 864","true","1","0","","","","",""
"null","<p style=""font-size: 80px;"">+ 10 points</p>","null","html-keyboard-response","91","492559","0.0-11.0-2.90","5bc5f36b8d83e10001724601","oj323h","ll","53","f","{""name"":""Chrome"",""chrome"":true,""version"":""106.0"",""blink"":true,""windows"":true,""osname"":""Windows"",""osversion"":""10"",""a"":true}","9:24:2","1","4","Test_3","74","j","1","640.3999999985099","1536 x 864","1536 x 864","true","1","10","","","","",""
"null","<p style=""font-size: 80px;"">+ 10 points</p>","null","html-keyboard-response","92","495491","0.0-11.0-2.91","5bc5f36b8d83e10001724601","oj323h","ll","53","f","{""name"":""Chrome"",""chrome"":true,""version"":""106.0"",""blink"":true,""windows"":true,""osname"":""Windows"",""osversion"":""10"",""a"":true}","9:24:2","1","4","Test_4","70","f","1","900.0999999977648","1536 x 864","1536 x 864","true","1","10","","","","",""
"null","<p style=""font-size: 80px;"">+ 0 points</p>","null","html-keyboard-response","93","498364","0.0-11.0-2.92","5bc5f36b8d83e10001724601","oj323h","ll","53","f","{""name"":""Chrome"",""chrome"":true,""version"":""106.0"",""blink"":true,""windows"":true,""osname"":""Windows"",""osversion"":""10"",""a"":true}","9:24:2","1","4","Test_3","70","j","0","849.3999999985099","1536 x 864","1536 x 864","true","1","0","","","","",""
"null","<p style=""font-size: 80px;"">+ 10 points</p>","null","html-keyboard-response","94","501255","0.0-11.0-2.93","5bc5f36b8d83e10001724601","oj323h","ll","53","f","{""name"":""Chrome"",""chrome"":true,""version"":""106.0"",""blink"":true,""windows"":true,""osname"":""Windows"",""osversion"":""10"",""a"":true}","9:24:2","1","4","Test_4","70","f","1","873","1536 x 864","1536 x 864","true","1","10","","","","",""
"null","<p style=""font-size: 80px;"">+ 10 points</p>","null","html-keyboard-response","95","503955","0.0-11.0-2.94","5bc5f36b8d83e10001724601","oj323h","ll","53","f","{""name"":""Chrome"",""chrome"":true,""version"":""106.0"",""blink"":true,""windows"":true,""osname"":""Windows"",""osversion"":""10"",""a"":true}","9:24:2","1","4","Test_4","70","f","1","676.6999999992549","1536 x 864","1536 x 864","true","1","10","","","","",""
"null","<p style=""font-size: 80px;"">+ 10 points</p>","null","html-keyboard-response","96","506702","0.0-11.0-2.95","5bc5f36b8d83e10001724601","oj323h","ll","53","f","{""name"":""Chrome"",""chrome"":true,""version"":""106.0"",""blink"":true,""windows"":true,""osname"":""Windows"",""osversion"":""10"",""a"":true}","9:24:2","1","4","Test_3","74","j","1","716","1536 x 864","1536 x 864","true","1","10","","","","",""
"null","<p style=""font-size: 80px;"">+ 10 points</p>","null","html-keyboard-response","97","509238","0.0-11.0-2.96","5bc5f36b8d83e10001724601","oj323h","ll","53","f","{""name"":""Chrome"",""chrome"":true,""version"":""106.0"",""blink"":true,""windows"":true,""osname"":""Windows"",""osversion"":""10"",""a"":true}","9:24:2","1","4","Test_3","74","j","1","514.2000000029802","1536 x 864","1536 x 864","true","1","10","","","","",""
"null","<p style=""font-size: 80px;"">+ 10 points</p>","null","html-keyboard-response","98","511966","0.0-11.0-2.97","5bc5f36b8d83e10001724601","oj323h","ll","53","f","{""name"":""Chrome"",""chrome"":true,""version"":""106.0"",""blink"":true,""windows"":true,""osname"":""Windows"",""osversion"":""10"",""a"":true}","9:24:2","1","4","Test_2","70","f","1","692.1000000014901","1536 x 864","1536 x 864","true","1","10","","","","",""
"null","<p style=""font-size: 80px;"">+ 10 points</p>","null","html-keyboard-response","99","514475","0.0-11.0-2.98","5bc5f36b8d83e10001724601","oj323h","ll","53","f","{""name"":""Chrome"",""chrome"":true,""version"":""106.0"",""blink"":true,""windows"":true,""osname"":""Windows"",""osversion"":""10"",""a"":true}","9:24:2","1","4","Test_2","70","f","1","484.69999999925494","1536 x 864","1536 x 864","true","1","10","","","","",""
"null","<p style=""font-size: 80px;"">+ 10 points</p>","null","html-keyboard-response","100","517264","0.0-11.0-2.99","5bc5f36b8d83e10001724601","oj323h","ll","53","f","{""name"":""Chrome"",""chrome"":true,""version"":""106.0"",""blink"":true,""windows"":true,""osname"":""Windows"",""osversion"":""10"",""a"":true}","9:24:2","1","4","Test_4","70","f","1","756.0999999977648","1536 x 864","1536 x 864","true","1","10","","","","",""
"null","<p style=""font-size: 80px;"">+ 0 points</p>","null","html-keyboard-response","101","519824","0.0-11.0-2.100","5bc5f36b8d83e10001724601","oj323h","ll","53","f","{""name"":""Chrome"",""chrome"":true,""version"":""106.0"",""blink"":true,""windows"":true,""osname"":""Windows"",""osversion"":""10"",""a"":true}","9:24:2","1","3","Test_1","74","f","0","535.6000000014901","1536 x 864","1536 x 864","true","1","0","","","","",""
"null","<p style=""font-size: 80px;"">+ 0 points</p>","null","html-keyboard-response","102","522925","0.0-11.0-2.101","5bc5f36b8d83e10001724601","oj323h","ll","53","f","{""name"":""Chrome"",""chrome"":true,""version"":""106.0"",""blink"":true,""windows"":true,""osname"":""Windows"",""osversion"":""10"",""a"":true}","9:24:2","1","3","Test_2","70","j","0","1078.8999999985099","1536 x 864","1536 x 864","true","1","0","","","","",""
"null","<p style=""font-size: 80px;"">+ 10 points</p>","null","html-keyboard-response","103","526097","0.0-11.0-2.102","5bc5f36b8d83e10001724601","oj323h","ll","53","f","{""name"":""Chrome"",""chrome"":true,""version"":""106.0"",""blink"":true,""windows"":true,""osname"":""Windows"",""osversion"":""10"",""a"":true}","9:24:2","1","3","Test_3","70","f","1","1148.5999999977648","1536 x 864","1536 x 864","true","1","10","","","","",""
"null","<p style=""font-size: 80px;"">+ 10 points</p>","null","html-keyboard-response","104","528749","0.0-11.0-2.103","5bc5f36b8d83e10001724601","oj323h","ll","53","f","{""name"":""Chrome"",""chrome"":true,""version"":""106.0"",""blink"":true,""windows"":true,""osname"":""Windows"",""osversion"":""10"",""a"":true}","9:24:2","1","3","Test_4","74","j","1","623.1000000014901","1536 x 864","1536 x 864","true","1","10","","","","",""
"null","<p style=""font-size: 80px;"">+ 10 points</p>","null","html-keyboard-response","105","531621","0.0-11.0-2.104","5bc5f36b8d83e10001724601","oj323h","ll","53","f","{""name"":""Chrome"",""chrome"":true,""version"":""106.0"",""blink"":true,""windows"":true,""osname"":""Windows"",""osversion"":""10"",""a"":true}","9:24:2","1","3","Test_1","70","f","1","848.5999999977648","1536 x 864","1536 x 864","true","1","10","","","","",""
"null","<p style=""font-size: 80px;"">+ 10 points</p>","null","html-keyboard-response","106","534173","0.0-11.0-2.105","5bc5f36b8d83e10001724601","oj323h","ll","53","f","{""name"":""Chrome"",""chrome"":true,""version"":""106.0"",""blink"":true,""windows"":true,""osname"":""Windows"",""osversion"":""10"",""a"":true}","9:24:2","1","3","Test_2","74","j","1","532.6999999992549","1536 x 864","1536 x 864","true","1","10","","","","",""
"null","<p style=""font-size: 80px;"">+ 10 points</p>","null","html-keyboard-response","107","537160","0.0-11.0-2.106","5bc5f36b8d83e10001724601","oj323h","ll","53","f","{""name"":""Chrome"",""chrome"":true,""version"":""106.0"",""blink"":true,""windows"":true,""osname"":""Windows"",""osversion"":""10"",""a"":true}","9:24:2","1","3","Test_2","74","j","1","959.3999999985099","1536 x 864","1536 x 864","true","1","10","","","","",""
"null","<p style=""font-size: 80px;"">+ 10 points</p>","null","html-keyboard-response","108","539738","0.0-11.0-2.107","5bc5f36b8d83e10001724601","oj323h","ll","53","f","{""name"":""Chrome"",""chrome"":true,""version"":""106.0"",""blink"":true,""windows"":true,""osname"":""Windows"",""osversion"":""10"",""a"":true}","9:24:2","1","3","Test_2","74","j","1","563.4000000022352","1536 x 864","1536 x 864","true","1","10","","","","",""
"null","<p style=""font-size: 80px;"">+ 0 points</p>","null","html-keyboard-response","109","542243","0.0-11.0-2.108","5bc5f36b8d83e10001724601","oj323h","ll","53","f","{""name"":""Chrome"",""chrome"":true,""version"":""106.0"",""blink"":true,""windows"":true,""osname"":""Windows"",""osversion"":""10"",""a"":true}","9:24:2","1","3","Test_3","74","f","0","484.0999999977648","1536 x 864","1536 x 864","true","1","0","","","","",""
"null","<p style=""font-size: 80px;"">+ 0 points</p>","null","html-keyboard-response","110","549166","0.0-11.0-2.109","5bc5f36b8d83e10001724601","oj323h","ll","53","f","{""name"":""Chrome"",""chrome"":true,""version"":""106.0"",""blink"":true,""windows"":true,""osname"":""Windows"",""osversion"":""10"",""a"":true}","9:24:2","1","3","Test_1","74","f","0","826.3999999985099","1536 x 864","1536 x 864","true","1","0","","","","",""
"null","<p style=""font-size: 80px;"">+ 0 points</p>","null","html-keyboard-response","111","551997","0.0-11.0-2.110","5bc5f36b8d83e10001724601","oj323h","ll","53","f","{""name"":""Chrome"",""chrome"":true,""version"":""106.0"",""blink"":true,""windows"":true,""osname"":""Windows"",""osversion"":""10"",""a"":true}","9:24:2","1","3","Test_3","74","f","0","806.5","1536 x 864","1536 x 864","true","1","0","","","","",""
"null","<p style=""font-size: 80px;"">+ 10 points</p>","null","html-keyboard-response","112","554873","0.0-11.0-2.111","5bc5f36b8d83e10001724601","oj323h","ll","53","f","{""name"":""Chrome"",""chrome"":true,""version"":""106.0"",""blink"":true,""windows"":true,""osname"":""Windows"",""osversion"":""10"",""a"":true}","9:24:2","1","3","Test_3","70","f","1","848.3999999985099","1536 x 864","1536 x 864","true","1","10","","","","",""
"null","<p style=""font-size: 80px;"">+ 0 points</p>","null","html-keyboard-response","113","557229","0.0-11.0-2.112","5bc5f36b8d83e10001724601","oj323h","ll","53","f","{""name"":""Chrome"",""chrome"":true,""version"":""106.0"",""blink"":true,""windows"":true,""osname"":""Windows"",""osversion"":""10"",""a"":true}","9:24:2","1","3","Test_2","70","j","0","333.5","1536 x 864","1536 x 864","true","1","0","","","","",""
"null","<p style=""font-size: 80px;"">+ 0 points</p>","null","html-keyboard-response","114","560744","0.0-11.0-2.113","5bc5f36b8d83e10001724601","oj323h","ll","53","f","{""name"":""Chrome"",""chrome"":true,""version"":""106.0"",""blink"":true,""windows"":true,""osname"":""Windows"",""osversion"":""10"",""a"":true}","9:24:2","1","3","Test_1","74","f","0","1492","1536 x 864","1536 x 864","true","1","0","","","","",""
"null","<p style=""font-size: 80px;"">+ 10 points</p>","null","html-keyboard-response","115","564458","0.0-11.0-2.114","5bc5f36b8d83e10001724601","oj323h","ll","53","f","{""name"":""Chrome"",""chrome"":true,""version"":""106.0"",""blink"":true,""windows"":true,""osname"":""Windows"",""osversion"":""10"",""a"":true}","9:24:2","1","3","Test_3","70","f","1","1684.300000000745","1536 x 864","1536 x 864","true","1","10","","","","",""
"null","<p style=""font-size: 80px;"">+ 10 points</p>","null","html-keyboard-response","116","568166","0.0-11.0-2.115","5bc5f36b8d83e10001724601","oj323h","ll","53","f","{""name"":""Chrome"",""chrome"":true,""version"":""106.0"",""blink"":true,""windows"":true,""osname"":""Windows"",""osversion"":""10"",""a"":true}","9:24:2","1","3","Test_1","70","f","1","1676.1000000014901","1536 x 864","1536 x 864","true","1","10","","","","",""
"null","<p style=""font-size: 80px;"">+ 10 points</p>","null","html-keyboard-response","117","571427","0.0-11.0-2.116","5bc5f36b8d83e10001724601","oj323h","ll","53","f","{""name"":""Chrome"",""chrome"":true,""version"":""106.0"",""blink"":true,""windows"":true,""osname"":""Windows"",""osversion"":""10"",""a"":true}","9:24:2","1","3","Test_4","74","j","1","1238.800000000745","1536 x 864","1536 x 864","true","1","10","","","","",""
"null","<p style=""font-size: 80px;"">+ 10 points</p>","null","html-keyboard-response","118","574091","0.0-11.0-2.117","5bc5f36b8d83e10001724601","oj323h","ll","53","f","{""name"":""Chrome"",""chrome"":true,""version"":""106.0"",""blink"":true,""windows"":true,""osname"":""Windows"",""osversion"":""10"",""a"":true}","9:24:2","1","3","Test_4","74","j","1","633","1536 x 864","1536 x 864","true","1","10","","","","",""
"null","<p style=""font-size: 80px;"">+ 10 points</p>","null","html-keyboard-response","119","576626","0.0-11.0-2.118","5bc5f36b8d83e10001724601","oj323h","ll","53","f","{""name"":""Chrome"",""chrome"":true,""version"":""106.0"",""blink"":true,""windows"":true,""osname"":""Windows"",""osversion"":""10"",""a"":true}","9:24:2","1","3","Test_4","74","j","1","514.3999999985099","1536 x 864","1536 x 864","true","1","10","","","","",""
"null","<p style=""font-size: 80px;"">+ 10 points</p>","null","html-keyboard-response","120","579269","0.0-11.0-2.119","5bc5f36b8d83e10001724601","oj323h","ll","53","f","{""name"":""Chrome"",""chrome"":true,""version"":""106.0"",""blink"":true,""windows"":true,""osname"":""Windows"",""osversion"":""10"",""a"":true}","9:24:2","1","3","Test_4","74","j","1","620.6000000014901","1536 x 864","1536 x 864","true","1","10","","","","",""
"null","<p style=""font-size: 80px;"">+ 10 points</p>","null","html-keyboard-response","121","581767","0.0-11.0-2.120","5bc5f36b8d83e10001724601","oj323h","ll","53","f","{""name"":""Chrome"",""chrome"":true,""version"":""106.0"",""blink"":true,""windows"":true,""osname"":""Windows"",""osversion"":""10"",""a"":true}","9:24:2","1","3","Test_4","74","j","1","485","1536 x 864","1536 x 864","true","1","10","","","","",""
"null","<p style=""font-size: 80px;"">+ 10 points</p>","null","html-keyboard-response","122","584463","0.0-11.0-2.121","5bc5f36b8d83e10001724601","oj323h","ll","53","f","{""name"":""Chrome"",""chrome"":true,""version"":""106.0"",""blink"":true,""windows"":true,""osname"":""Windows"",""osversion"":""10"",""a"":true}","9:24:2","1","3","Test_3","70","f","1","669.3999999985099","1536 x 864","1536 x 864","true","1","10","","","","",""
"null","<p style=""font-size: 80px;"">+ 10 points</p>","null","html-keyboard-response","123","587486","0.0-11.0-2.122","5bc5f36b8d83e10001724601","oj323h","ll","53","f","{""name"":""Chrome"",""chrome"":true,""version"":""106.0"",""blink"":true,""windows"":true,""osname"":""Windows"",""osversion"":""10"",""a"":true}","9:24:2","1","3","Test_1","70","f","1","995","1536 x 864","1536 x 864","true","1","10","","","","",""
"null","<p style=""font-size: 80px;"">+ 10 points</p>","null","html-keyboard-response","124","590198","0.0-11.0-2.123","5bc5f36b8d83e10001724601","oj323h","ll","53","f","{""name"":""Chrome"",""chrome"":true,""version"":""106.0"",""blink"":true,""windows"":true,""osname"":""Windows"",""osversion"":""10"",""a"":true}","9:24:2","1","3","Test_2","74","j","1","700.4000000022352","1536 x 864","1536 x 864","true","1","10","","","","",""
"null","<p style=""font-size: 80px;"">+ 0 points</p>","null","html-keyboard-response","125","592834","0.0-11.0-2.124","5bc5f36b8d83e10001724601","oj323h","ll","53","f","{""name"":""Chrome"",""chrome"":true,""version"":""106.0"",""blink"":true,""windows"":true,""osname"":""Windows"",""osversion"":""10"",""a"":true}","9:24:2","1","4","Test_2","74","f","0","617.8999999985099","1536 x 864","1536 x 864","true","1","0","","","","",""
"null","<p style=""font-size: 80px;"">+ 0 points</p>","null","html-keyboard-response","126","595652","0.0-11.0-2.125","5bc5f36b8d83e10001724601","oj323h","ll","53","f","{""name"":""Chrome"",""chrome"":true,""version"":""106.0"",""blink"":true,""windows"":true,""osname"":""Windows"",""osversion"":""10"",""a"":true}","9:24:2","1","4","Test_2","74","f","0","798.4000000022352","1536 x 864","1536 x 864","true","1","0","","","","",""
"null","<p style=""font-size: 80px;"">+ 10 points</p>","null","html-keyboard-response","127","598713","0.0-11.0-2.126","5bc5f36b8d83e10001724601","oj323h","ll","53","f","{""name"":""Chrome"",""chrome"":true,""version"":""106.0"",""blink"":true,""windows"":true,""osname"":""Windows"",""osversion"":""10"",""a"":true}","9:24:2","1","4","Test_4","70","f","1","1028.9000000022352","1536 x 864","1536 x 864","true","1","10","","","","",""
"null","<p style=""font-size: 80px;"">+ 10 points</p>","null","html-keyboard-response","128","601633","0.0-11.0-2.127","5bc5f36b8d83e10001724601","oj323h","ll","53","f","{""name"":""Chrome"",""chrome"":true,""version"":""106.0"",""blink"":true,""windows"":true,""osname"":""Windows"",""osversion"":""10"",""a"":true}","9:24:2","1","4","Test_2","70","f","1","902","1536 x 864","1536 x 864","true","1","10","","","","",""
"null","<p style=""font-size: 80px;"">+ 10 points</p>","null","html-keyboard-response","129","604262","0.0-11.0-2.128","5bc5f36b8d83e10001724601","oj323h","ll","53","f","{""name"":""Chrome"",""chrome"":true,""version"":""106.0"",""blink"":true,""windows"":true,""osname"":""Windows"",""osversion"":""10"",""a"":true}","9:24:2","1","4","Test_2","70","f","1","603.3000000007451","1536 x 864","1536 x 864","true","1","10","","","","",""
"null","<p style=""font-size: 80px;"">+ 10 points</p>","null","html-keyboard-response","130","606856","0.0-11.0-2.129","5bc5f36b8d83e10001724601","oj323h","ll","53","f","{""name"":""Chrome"",""chrome"":true,""version"":""106.0"",""blink"":true,""windows"":true,""osname"":""Windows"",""osversion"":""10"",""a"":true}","9:24:2","1","4","Test_3","74","j","1","570.6999999992549","1536 x 864","1536 x 864","true","1","10","","","","",""
"null","<p style=""font-size: 80px;"">+ 10 points</p>","null","html-keyboard-response","131","609427","0.0-11.0-2.130","5bc5f36b8d83e10001724601","oj323h","ll","53","f","{""name"":""Chrome"",""chrome"":true,""version"":""106.0"",""blink"":true,""windows"":true,""osname"":""Windows"",""osversion"":""10"",""a"":true}","9:24:2","1","4","Test_2","70","f","1","545.3000000007451","1536 x 864","1536 x 864","true","1","10","","","","",""
"null","<p style=""font-size: 80px;"">+ 10 points</p>","null","html-keyboard-response","132","612444","0.0-11.0-2.131","5bc5f36b8d83e10001724601","oj323h","ll","53","f","{""name"":""Chrome"",""chrome"":true,""version"":""106.0"",""blink"":true,""windows"":true,""osname"":""Windows"",""osversion"":""10"",""a"":true}","9:24:2","1","4","Test_1","74","j","1","994.0999999977648","1536 x 864","1536 x 864","true","1","10","","","","",""
"null","<p style=""font-size: 80px;"">+ 10 points</p>","null","html-keyboard-response","133","615150","0.0-11.0-2.132","5bc5f36b8d83e10001724601","oj323h","ll","53","f","{""name"":""Chrome"",""chrome"":true,""version"":""106.0"",""blink"":true,""windows"":true,""osname"":""Windows"",""osversion"":""10"",""a"":true}","9:24:2","1","4","Test_1","74","j","1","677.5","1536 x 864","1536 x 864","true","1","10","","","","",""
"null","<p style=""font-size: 80px;"">+ 0 points</p>","null","html-keyboard-response","134","618029","0.0-11.0-2.133","5bc5f36b8d83e10001724601","oj323h","ll","53","f","{""name"":""Chrome"",""chrome"":true,""version"":""106.0"",""blink"":true,""windows"":true,""osname"":""Windows"",""osversion"":""10"",""a"":true}","9:24:2","1","4","Test_3","70","j","0","849.5999999977648","1536 x 864","1536 x 864","true","1","0","","","","",""
"null","<p style=""font-size: 80px;"">+ 10 points</p>","null","html-keyboard-response","135","620706","0.0-11.0-2.134","5bc5f36b8d83e10001724601","oj323h","ll","53","f","{""name"":""Chrome"",""chrome"":true,""version"":""106.0"",""blink"":true,""windows"":true,""osname"":""Windows"",""osversion"":""10"",""a"":true}","9:24:2","1","4","Test_3","74","j","1","650.9000000022352","1536 x 864","1536 x 864","true","1","10","","","","",""
"null","<p style=""font-size: 80px;"">+ 10 points</p>","null","html-keyboard-response","136","624450","0.0-11.0-2.135","5bc5f36b8d83e10001724601","oj323h","ll","53","f","{""name"":""Chrome"",""chrome"":true,""version"":""106.0"",""blink"":true,""windows"":true,""osname"":""Windows"",""osversion"":""10"",""a"":true}","9:24:2","1","4","Test_1","74","j","1","1708.5","1536 x 864","1536 x 864","true","1","10","","","","",""
"null","<p style=""font-size: 80px;"">+ 10 points</p>","null","html-keyboard-response","137","627256","0.0-11.0-2.136","5bc5f36b8d83e10001724601","oj323h","ll","53","f","{""name"":""Chrome"",""chrome"":true,""version"":""106.0"",""blink"":true,""windows"":true,""osname"":""Windows"",""osversion"":""10"",""a"":true}","9:24:2","1","4","Test_4","70","f","1","778.6999999992549","1536 x 864","1536 x 864","true","1","10","","","","",""
"null","<p style=""font-size: 80px;"">+ 10 points</p>","null","html-keyboard-response","138","629927","0.0-11.0-2.137","5bc5f36b8d83e10001724601","oj323h","ll","53","f","{""name"":""Chrome"",""chrome"":true,""version"":""106.0"",""blink"":true,""windows"":true,""osname"":""Windows"",""osversion"":""10"",""a"":true}","9:24:2","1","4","Test_3","74","j","1","653.5","1536 x 864","1536 x 864","true","1","10","","","","",""
"null","<p style=""font-size: 80px;"">+ 10 points</p>","null","html-keyboard-response","139","632799","0.0-11.0-2.138","5bc5f36b8d83e10001724601","oj323h","ll","53","f","{""name"":""Chrome"",""chrome"":true,""version"":""106.0"",""blink"":true,""windows"":true,""osname"":""Windows"",""osversion"":""10"",""a"":true}","9:24:2","1","4","Test_1","74","j","1","849.3999999985099","1536 x 864","1536 x 864","true","1","10","","","","",""
"null","<p style=""font-size: 80px;"">+ 10 points</p>","null","html-keyboard-response","140","635629","0.0-11.0-2.139","5bc5f36b8d83e10001724601","oj323h","ll","53","f","{""name"":""Chrome"",""chrome"":true,""version"":""106.0"",""blink"":true,""windows"":true,""osname"":""Windows"",""osversion"":""10"",""a"":true}","9:24:2","1","4","Test_4","70","f","1","809.6000000014901","1536 x 864","1536 x 864","true","1","10","","","","",""
"null","<p style=""font-size: 80px;"">+ 10 points</p>","null","html-keyboard-response","141","638328","0.0-11.0-2.140","5bc5f36b8d83e10001724601","oj323h","ll","53","f","{""name"":""Chrome"",""chrome"":true,""version"":""106.0"",""blink"":true,""windows"":true,""osname"":""Windows"",""osversion"":""10"",""a"":true}","9:24:2","1","4","Test_4","70","f","1","664.8999999985099","1536 x 864","1536 x 864","true","1","10","","","","",""
"null","<p style=""font-size: 80px;"">+ 10 points</p>","null","html-keyboard-response","142","641111","0.0-11.0-2.141","5bc5f36b8d83e10001724601","oj323h","ll","53","f","{""name"":""Chrome"",""chrome"":true,""version"":""106.0"",""blink"":true,""windows"":true,""osname"":""Windows"",""osversion"":""10"",""a"":true}","9:24:2","1","4","Test_3","74","j","1","758.1000000014901","1536 x 864","1536 x 864","true","1","10","","","","",""
"null","<p style=""font-size: 80px;"">+ 0 points</p>","null","html-keyboard-response","143","644039","0.0-11.0-2.142","5bc5f36b8d83e10001724601","oj323h","ll","53","f","{""name"":""Chrome"",""chrome"":true,""version"":""106.0"",""blink"":true,""windows"":true,""osname"":""Windows"",""osversion"":""10"",""a"":true}","9:24:2","1","4","Test_1","70","j","0","916.2000000029802","1536 x 864","1536 x 864","true","1","0","","","","",""
"null","<p style=""font-size: 80px;"">+ 10 points</p>","null","html-keyboard-response","144","646752","0.0-11.0-2.143","5bc5f36b8d83e10001724601","oj323h","ll","53","f","{""name"":""Chrome"",""chrome"":true,""version"":""106.0"",""blink"":true,""windows"":true,""osname"":""Windows"",""osversion"":""10"",""a"":true}","9:24:2","1","4","Test_4","70","f","1","686.6000000014901","1536 x 864","1536 x 864","true","1","10","","","","",""
"null","<p style=""font-size: 80px;"">+ 0 points</p>","null","html-keyboard-response","145","649580","0.0-11.0-2.144","5bc5f36b8d83e10001724601","oj323h","ll","53","f","{""name"":""Chrome"",""chrome"":true,""version"":""106.0"",""blink"":true,""windows"":true,""osname"":""Windows"",""osversion"":""10"",""a"":true}","9:24:2","1","3","Test_1","74","f","0","806.6999999992549","1536 x 864","1536 x 864","true","1","0","","","","",""
"null","<p style=""font-size: 80px;"">+ 10 points</p>","null","html-keyboard-response","146","653308","0.0-11.0-2.145","5bc5f36b8d83e10001724601","oj323h","ll","53","f","{""name"":""Chrome"",""chrome"":true,""version"":""106.0"",""blink"":true,""windows"":true,""osname"":""Windows"",""osversion"":""10"",""a"":true}","9:24:2","1","3","Test_1","70","f","1","1709.5","1536 x 864","1536 x 864","true","1","10","","","","",""
"null","<p style=""font-size: 80px;"">+ 10 points</p>","null","html-keyboard-response","147","655874","0.0-11.0-2.146","5bc5f36b8d83e10001724601","oj323h","ll","53","f","{""name"":""Chrome"",""chrome"":true,""version"":""106.0"",""blink"":true,""windows"":true,""osname"":""Windows"",""osversion"":""10"",""a"":true}","9:24:2","1","3","Test_4","74","j","1","540.3999999985099","1536 x 864","1536 x 864","true","1","10","","","","",""
"null","<p style=""font-size: 80px;"">+ 10 points</p>","null","html-keyboard-response","148","658508","0.0-11.0-2.147","5bc5f36b8d83e10001724601","oj323h","ll","53","f","{""name"":""Chrome"",""chrome"":true,""version"":""106.0"",""blink"":true,""windows"":true,""osname"":""Windows"",""osversion"":""10"",""a"":true}","9:24:2","1","3","Test_2","74","j","1","609.3000000007451","1536 x 864","1536 x 864","true","1","10","","","","",""
"null","<p style=""font-size: 80px;"">+ 10 points</p>","null","html-keyboard-response","149","661086","0.0-11.0-2.148","5bc5f36b8d83e10001724601","oj323h","ll","53","f","{""name"":""Chrome"",""chrome"":true,""version"":""106.0"",""blink"":true,""windows"":true,""osname"":""Windows"",""osversion"":""10"",""a"":true}","9:24:2","1","3","Test_3","70","f","1","553.5999999977648","1536 x 864","1536 x 864","true","1","10","","","","",""
"null","<p style=""font-size: 80px;"">+ 10 points</p>","null","html-keyboard-response","150","663682","0.0-11.0-2.149","5bc5f36b8d83e10001724601","oj323h","ll","53","f","{""name"":""Chrome"",""chrome"":true,""version"":""106.0"",""blink"":true,""windows"":true,""osname"":""Windows"",""osversion"":""10"",""a"":true}","9:24:2","1","3","Test_2","74","j","1","574.3000000007451","1536 x 864","1536 x 864","true","1","10","","","","",""
"null","<p style=""font-size: 80px;"">+ 10 points</p>","null","html-keyboard-response","151","666327","0.0-11.0-2.150","5bc5f36b8d83e10001724601","oj323h","ll","53","f","{""name"":""Chrome"",""chrome"":true,""version"":""106.0"",""blink"":true,""windows"":true,""osname"":""Windows"",""osversion"":""10"",""a"":true}","9:24:2","1","3","Test_3","70","f","1","609.9000000022352","1536 x 864","1536 x 864","true","1","10","","","","",""
"null","<p style=""font-size: 80px;"">+ 10 points</p>","null","html-keyboard-response","152","669682","0.0-11.0-2.151","5bc5f36b8d83e10001724601","oj323h","ll","53","f","{""name"":""Chrome"",""chrome"":true,""version"":""106.0"",""blink"":true,""windows"":true,""osname"":""Windows"",""osversion"":""10"",""a"":true}","9:24:2","1","3","Test_1","70","f","1","1338","1536 x 864","1536 x 864","true","1","10","","","","",""
"null","<p style=""font-size: 80px;"">+ 0 points</p>","null","html-keyboard-response","153","672796","0.0-11.0-2.152","5bc5f36b8d83e10001724601","oj323h","ll","53","f","{""name"":""Chrome"",""chrome"":true,""version"":""106.0"",""blink"":true,""windows"":true,""osname"":""Windows"",""osversion"":""10"",""a"":true}","9:24:2","1","3","Test_4","70","j","0","1093.699999999255","1536 x 864","1536 x 864","true","1","0","","","","",""
"null","<p style=""font-size: 80px;"">+ 10 points</p>","null","html-keyboard-response","154","675609","0.0-11.0-2.153","5bc5f36b8d83e10001724601","oj323h","ll","53","f","{""name"":""Chrome"",""chrome"":true,""version"":""106.0"",""blink"":true,""windows"":true,""osname"":""Windows"",""osversion"":""10"",""a"":true}","9:24:2","1","3","Test_3","70","f","1","791.8000000007451","1536 x 864","1536 x 864","true","1","10","","","","",""
"null","<p style=""font-size: 80px;"">+ 10 points</p>","null","html-keyboard-response","155","678165","0.0-11.0-2.154","5bc5f36b8d83e10001724601","oj323h","ll","53","f","{""name"":""Chrome"",""chrome"":true,""version"":""106.0"",""blink"":true,""windows"":true,""osname"":""Windows"",""osversion"":""10"",""a"":true}","9:24:2","1","3","Test_4","74","j","1","527.2999999970198","1536 x 864","1536 x 864","true","1","10","","","","",""
"null","<p style=""font-size: 80px;"">+ 10 points</p>","null","html-keyboard-response","156","681075","0.0-11.0-2.155","5bc5f36b8d83e10001724601","oj323h","ll","53","f","{""name"":""Chrome"",""chrome"":true,""version"":""106.0"",""blink"":true,""windows"":true,""osname"":""Windows"",""osversion"":""10"",""a"":true}","9:24:2","1","3","Test_2","74","j","1","894.5","1536 x 864","1536 x 864","true","1","10","","","","",""
"null","<p style=""font-size: 80px;"">+ 10 points</p>","null","html-keyboard-response","157","683845","0.0-11.0-2.156","5bc5f36b8d83e10001724601","oj323h","ll","53","f","{""name"":""Chrome"",""chrome"":true,""version"":""106.0"",""blink"":true,""windows"":true,""osname"":""Windows"",""osversion"":""10"",""a"":true}","9:24:2","1","3","Test_3","70","f","1","748.3999999985099","1536 x 864","1536 x 864","true","1","10","","","","",""
"null","<p style=""font-size: 80px;"">+ 10 points</p>","null","html-keyboard-response","158","686552","0.0-11.0-2.157","5bc5f36b8d83e10001724601","oj323h","ll","53","f","{""name"":""Chrome"",""chrome"":true,""version"":""106.0"",""blink"":true,""windows"":true,""osname"":""Windows"",""osversion"":""10"",""a"":true}","9:24:2","1","3","Test_1","70","f","1","678","1536 x 864","1536 x 864","true","1","10","","","","",""
"null","<p style=""font-size: 80px;"">+ 10 points</p>","null","html-keyboard-response","159","689191","0.0-11.0-2.158","5bc5f36b8d83e10001724601","oj323h","ll","53","f","{""name"":""Chrome"",""chrome"":true,""version"":""106.0"",""blink"":true,""windows"":true,""osname"":""Windows"",""osversion"":""10"",""a"":true}","9:24:2","1","3","Test_4","74","j","1","592.3000000007451","1536 x 864","1536 x 864","true","1","10","","","","",""
"null","<p style=""font-size: 80px;"">+ 10 points</p>","null","html-keyboard-response","160","691984","0.0-11.0-2.159","5bc5f36b8d83e10001724601","oj323h","ll","53","f","{""name"":""Chrome"",""chrome"":true,""version"":""106.0"",""blink"":true,""windows"":true,""osname"":""Windows"",""osversion"":""10"",""a"":true}","9:24:2","1","3","Test_1","70","f","1","760.1000000014901","1536 x 864","1536 x 864","true","1","10","","","","",""
"null","<p style=""font-size: 80px;"">+ 10 points</p>","null","html-keyboard-response","161","694759","0.0-11.0-2.160","5bc5f36b8d83e10001724601","oj323h","ll","53","f","{""name"":""Chrome"",""chrome"":true,""version"":""106.0"",""blink"":true,""windows"":true,""osname"":""Windows"",""osversion"":""10"",""a"":true}","9:24:2","1","3","Test_2","74","j","1","767.8999999985099","1536 x 864","1536 x 864","true","1","10","","","","",""
"null","<p style=""font-size: 80px;"">+ 10 points</p>","null","html-keyboard-response","162","697317","0.0-11.0-2.161","5bc5f36b8d83e10001724601","oj323h","ll","53","f","{""name"":""Chrome"",""chrome"":true,""version"":""106.0"",""blink"":true,""windows"":true,""osname"":""Windows"",""osversion"":""10"",""a"":true}","9:24:2","1","3","Test_2","74","j","1","534.6999999992549","1536 x 864","1536 x 864","true","1","10","","","","",""
"null","<p style=""font-size: 80px;"">+ 10 points</p>","null","html-keyboard-response","163","699944","0.0-11.0-2.162","5bc5f36b8d83e10001724601","oj323h","ll","53","f","{""name"":""Chrome"",""chrome"":true,""version"":""106.0"",""blink"":true,""windows"":true,""osname"":""Windows"",""osversion"":""10"",""a"":true}","9:24:2","1","3","Test_3","70","f","1","598.0999999977648","1536 x 864","1536 x 864","true","1","10","","","","",""
"null","<p style=""font-size: 80px;"">+ 10 points</p>","null","html-keyboard-response","164","702846","0.0-11.0-2.163","5bc5f36b8d83e10001724601","oj323h","ll","53","f","{""name"":""Chrome"",""chrome"":true,""version"":""106.0"",""blink"":true,""windows"":true,""osname"":""Windows"",""osversion"":""10"",""a"":true}","9:24:2","1","3","Test_1","70","f","1","878.1000000014901","1536 x 864","1536 x 864","true","1","10","","","","",""
"null","<p style=""font-size: 80px;"">+ 10 points</p>","null","html-keyboard-response","165","705607","0.0-11.0-2.164","5bc5f36b8d83e10001724601","oj323h","ll","53","f","{""name"":""Chrome"",""chrome"":true,""version"":""106.0"",""blink"":true,""windows"":true,""osname"":""Windows"",""osversion"":""10"",""a"":true}","9:24:2","1","3","Test_2","74","j","1","741.8000000007451","1536 x 864","1536 x 864","true","1","10","","","","",""
"null","<p style=""font-size: 80px;"">+ 10 points</p>","null","html-keyboard-response","166","708335","0.0-11.0-2.165","5bc5f36b8d83e10001724601","oj323h","ll","53","f","{""name"":""Chrome"",""chrome"":true,""version"":""106.0"",""blink"":true,""windows"":true,""osname"":""Windows"",""osversion"":""10"",""a"":true}","9:24:2","1","3","Test_3","70","f","1","708.7999999970198","1536 x 864","1536 x 864","true","1","10","","","","",""
"null","<p style=""font-size: 80px;"">+ 0 points</p>","null","html-keyboard-response","167","711117","0.0-11.0-2.166","5bc5f36b8d83e10001724601","oj323h","ll","53","f","{""name"":""Chrome"",""chrome"":true,""version"":""106.0"",""blink"":true,""windows"":true,""osname"":""Windows"",""osversion"":""10"",""a"":true}","9:24:2","1","4","Test_2","74","f","0","762.0999999977648","1536 x 864","1536 x 864","true","1","0","","","","",""
"null","<p style=""font-size: 80px;"">+ 10 points</p>","null","html-keyboard-response","168","713750","0.0-11.0-2.167","5bc5f36b8d83e10001724601","oj323h","ll","53","f","{""name"":""Chrome"",""chrome"":true,""version"":""106.0"",""blink"":true,""windows"":true,""osname"":""Windows"",""osversion"":""10"",""a"":true}","9:24:2","1","4","Test_3","74","j","1","611.8000000007451","1536 x 864","1536 x 864","true","1","10","","","","",""
"null","<p style=""font-size: 80px;"">+ 10 points</p>","null","html-keyboard-response","169","716464","0.0-11.0-2.168","5bc5f36b8d83e10001724601","oj323h","ll","53","f","{""name"":""Chrome"",""chrome"":true,""version"":""106.0"",""blink"":true,""windows"":true,""osname"":""Windows"",""osversion"":""10"",""a"":true}","9:24:2","1","4","Test_3","74","j","1","686.5","1536 x 864","1536 x 864","true","1","10","","","","",""
"null","<p style=""font-size: 80px;"">+ 0 points</p>","null","html-keyboard-response","170","719845","0.0-11.0-2.169","5bc5f36b8d83e10001724601","oj323h","ll","53","f","{""name"":""Chrome"",""chrome"":true,""version"":""106.0"",""blink"":true,""windows"":true,""osname"":""Windows"",""osversion"":""10"",""a"":true}","9:24:2","1","4","Test_2","74","f","0","1369.3999999985099","1536 x 864","1536 x 864","true","1","0","","","","",""
"null","<p style=""font-size: 80px;"">+ 10 points</p>","null","html-keyboard-response","171","722440","0.0-11.0-2.170","5bc5f36b8d83e10001724601","oj323h","ll","53","f","{""name"":""Chrome"",""chrome"":true,""version"":""106.0"",""blink"":true,""windows"":true,""osname"":""Windows"",""osversion"":""10"",""a"":true}","9:24:2","1","4","Test_3","74","j","1","574.7000000029802","1536 x 864","1536 x 864","true","1","10","","","","",""
"null","<p style=""font-size: 80px;"">+ 10 points</p>","null","html-keyboard-response","172","727254","0.0-11.0-2.171","5bc5f36b8d83e10001724601","oj323h","ll","53","f","{""name"":""Chrome"",""chrome"":true,""version"":""106.0"",""blink"":true,""windows"":true,""osname"":""Windows"",""osversion"":""10"",""a"":true}","9:24:2","1","4","Test_1","74","j","1","2786.599999997765","1536 x 864","1536 x 864","true","1","10","","","","",""
"null","<p style=""font-size: 80px;"">+ 10 points</p>","null","html-keyboard-response","173","729829","0.0-11.0-2.172","5bc5f36b8d83e10001724601","oj323h","ll","53","f","{""name"":""Chrome"",""chrome"":true,""version"":""106.0"",""blink"":true,""windows"":true,""osname"":""Windows"",""osversion"":""10"",""a"":true}","9:24:2","1","4","Test_4","70","f","1","556.0999999977648","1536 x 864","1536 x 864","true","1","10","","","","",""
"null","<p style=""font-size: 80px;"">+ 10 points</p>","null","html-keyboard-response","174","732458","0.0-11.0-2.173","5bc5f36b8d83e10001724601","oj323h","ll","53","f","{""name"":""Chrome"",""chrome"":true,""version"":""106.0"",""blink"":true,""windows"":true,""osname"":""Windows"",""osversion"":""10"",""a"":true}","9:24:2","1","4","Test_3","74","j","1","620","1536 x 864","1536 x 864","true","1","10","","","","",""
"null","<p style=""font-size: 80px;"">+ 10 points</p>","null","html-keyboard-response","175","735181","0.0-11.0-2.174","5bc5f36b8d83e10001724601","oj323h","ll","53","f","{""name"":""Chrome"",""chrome"":true,""version"":""106.0"",""blink"":true,""windows"":true,""osname"":""Windows"",""osversion"":""10"",""a"":true}","9:24:2","1","4","Test_4","70","f","1","702","1536 x 864","1536 x 864","true","1","10","","","","",""
"null","<p style=""font-size: 80px;"">+ 10 points</p>","null","html-keyboard-response","176","737986","0.0-11.0-2.175","5bc5f36b8d83e10001724601","oj323h","ll","53","f","{""name"":""Chrome"",""chrome"":true,""version"":""106.0"",""blink"":true,""windows"":true,""osname"":""Windows"",""osversion"":""10"",""a"":true}","9:24:2","1","4","Test_4","70","f","1","771.3000000007451","1536 x 864","1536 x 864","true","1","10","","","","",""
"null","<p style=""font-size: 80px;"">+ 0 points</p>","null","html-keyboard-response","177","740718","0.0-11.0-2.176","5bc5f36b8d83e10001724601","oj323h","ll","53","f","{""name"":""Chrome"",""chrome"":true,""version"":""106.0"",""blink"":true,""windows"":true,""osname"":""Windows"",""osversion"":""10"",""a"":true}","9:24:2","1","4","Test_1","70","j","0","721.6999999992549","1536 x 864","1536 x 864","true","1","0","","","","",""
"null","<p style=""font-size: 80px;"">+ 10 points</p>","null","html-keyboard-response","178","743252","0.0-11.0-2.177","5bc5f36b8d83e10001724601","oj323h","ll","53","f","{""name"":""Chrome"",""chrome"":true,""version"":""106.0"",""blink"":true,""windows"":true,""osname"":""Windows"",""osversion"":""10"",""a"":true}","9:24:2","1","4","Test_1","74","j","1","503.5","1536 x 864","1536 x 864","true","1","10","","","","",""
"null","<p style=""font-size: 80px;"">+ 10 points</p>","null","html-keyboard-response","179","745998","0.0-11.0-2.178","5bc5f36b8d83e10001724601","oj323h","ll","53","f","{""name"":""Chrome"",""chrome"":true,""version"":""106.0"",""blink"":true,""windows"":true,""osname"":""Windows"",""osversion"":""10"",""a"":true}","9:24:2","1","4","Test_2","70","f","1","727.6999999992549","1536 x 864","1536 x 864","true","1","10","","","","",""
"null","<p style=""font-size: 80px;"">+ 10 points</p>","null","html-keyboard-response","180","748560","0.0-11.0-2.179","5bc5f36b8d83e10001724601","oj323h","ll","53","f","{""name"":""Chrome"",""chrome"":true,""version"":""106.0"",""blink"":true,""windows"":true,""osname"":""Windows"",""osversion"":""10"",""a"":true}","9:24:2","1","4","Test_2","70","f","1","548.8999999985099","1536 x 864","1536 x 864","true","1","10","","","","",""
"null","<p style=""font-size: 80px;"">+ 10 points</p>","null","html-keyboard-response","181","751201","0.0-11.0-2.180","5bc5f36b8d83e10001724601","oj323h","ll","53","f","{""name"":""Chrome"",""chrome"":true,""version"":""106.0"",""blink"":true,""windows"":true,""osname"":""Windows"",""osversion"":""10"",""a"":true}","9:24:2","1","4","Test_4","70","f","1","616.2000000029802","1536 x 864","1536 x 864","true","1","10","","","","",""
"null","<p style=""font-size: 80px;"">+ 10 points</p>","null","html-keyboard-response","182","754693","0.0-11.0-2.181","5bc5f36b8d83e10001724601","oj323h","ll","53","f","{""name"":""Chrome"",""chrome"":true,""version"":""106.0"",""blink"":true,""windows"":true,""osname"":""Windows"",""osversion"":""10"",""a"":true}","9:24:2","1","4","Test_1","74","j","1","1472.5","1536 x 864","1536 x 864","true","1","10","","","","",""
"null","<p style=""font-size: 80px;"">+ 0 points</p>","null","html-keyboard-response","183","757278","0.0-11.0-2.182","5bc5f36b8d83e10001724601","oj323h","ll","53","f","{""name"":""Chrome"",""chrome"":true,""version"":""106.0"",""blink"":true,""windows"":true,""osname"":""Windows"",""osversion"":""10"",""a"":true}","9:24:2","1","3","Test_2","70","j","0","572.3999999985099","1536 x 864","1536 x 864","true","1","0","","","","",""
"null","<p style=""font-size: 80px;"">+ 10 points</p>","null","html-keyboard-response","184","759860","0.0-11.0-2.183","5bc5f36b8d83e10001724601","oj323h","ll","53","f","{""name"":""Chrome"",""chrome"":true,""version"":""106.0"",""blink"":true,""windows"":true,""osname"":""Windows"",""osversion"":""10"",""a"":true}","9:24:2","1","3","Test_2","74","j","1","561.0999999977648","1536 x 864","1536 x 864","true","1","10","","","","",""
"null","<p style=""font-size: 80px;"">+ 10 points</p>","null","html-keyboard-response","185","763221","0.0-11.0-2.184","5bc5f36b8d83e10001724601","oj323h","ll","53","f","{""name"":""Chrome"",""chrome"":true,""version"":""106.0"",""blink"":true,""windows"":true,""osname"":""Windows"",""osversion"":""10"",""a"":true}","9:24:2","1","3","Test_1","70","f","1","1341.300000000745","1536 x 864","1536 x 864","true","1","10","","","","",""
"null","<p style=""font-size: 80px;"">+ 10 points</p>","null","html-keyboard-response","186","765833","0.0-11.0-2.185","5bc5f36b8d83e10001724601","oj323h","ll","53","f","{""name"":""Chrome"",""chrome"":true,""version"":""106.0"",""blink"":true,""windows"":true,""osname"":""Windows"",""osversion"":""10"",""a"":true}","9:24:2","1","3","Test_2","74","j","1","586.8000000007451","1536 x 864","1536 x 864","true","1","10","","","","",""
"null","<p style=""font-size: 80px;"">+ 10 points</p>","null","html-keyboard-response","187","768412","0.0-11.0-2.186","5bc5f36b8d83e10001724601","oj323h","ll","53","f","{""name"":""Chrome"",""chrome"":true,""version"":""106.0"",""blink"":true,""windows"":true,""osname"":""Windows"",""osversion"":""10"",""a"":true}","9:24:2","1","3","Test_3","70","f","1","561.1999999992549","1536 x 864","1536 x 864","true","1","10","","","","",""
"null","<p style=""font-size: 80px;"">+ 10 points</p>","null","html-keyboard-response","188","771167","0.0-11.0-2.187","5bc5f36b8d83e10001724601","oj323h","ll","53","f","{""name"":""Chrome"",""chrome"":true,""version"":""106.0"",""blink"":true,""windows"":true,""osname"":""Windows"",""osversion"":""10"",""a"":true}","9:24:2","1","3","Test_3","70","f","1","725.8999999985099","1536 x 864","1536 x 864","true","1","10","","","","",""
"null","<p style=""font-size: 80px;"">+ 10 points</p>","null","html-keyboard-response","189","773707","0.0-11.0-2.188","5bc5f36b8d83e10001724601","oj323h","ll","53","f","{""name"":""Chrome"",""chrome"":true,""version"":""106.0"",""blink"":true,""windows"":true,""osname"":""Windows"",""osversion"":""10"",""a"":true}","9:24:2","1","3","Test_3","70","f","1","518.6999999992549","1536 x 864","1536 x 864","true","1","10","","","","",""
"null","<p style=""font-size: 80px;"">+ 10 points</p>","null","html-keyboard-response","190","776109","0.0-11.0-2.189","5bc5f36b8d83e10001724601","oj323h","ll","53","f","{""name"":""Chrome"",""chrome"":true,""version"":""106.0"",""blink"":true,""windows"":true,""osname"":""Windows"",""osversion"":""10"",""a"":true}","9:24:2","1","3","Test_3","70","f","1","383.80000000074506","1536 x 864","1536 x 864","true","1","10","","","","",""
