"rt","stimulus","key_press","trial_type","trial_index","time_elapsed","internal_node_id","Prolific_ID","random_ID","initials","age","gender","pc_info","start_time","Phase","Rule","Stimulus","Response","CorrResp","Accuracy","ResponseTime","screen_resolution","window_resolution","focus","relevant","Points","responses","question_order","rev_check","butterfly_check","passed_practice"
"null","<p style=""font-size: 80px;"">+ 10 points</p>","null","html-keyboard-response","1","92932","0.0-7.0-2.0","5c4613f2b05faa0001d62023","hobuoy","KM","37","F","{""name"":""Chrome"",""chrome"":true,""version"":""106.0"",""blink"":true,""windows"":true,""osname"":""Windows"",""osversion"":""10"",""a"":true}","9:17:19","0","1","Practice_2","74","j","1","1580.2000000001863","1920 x 1080","1920 x 1080","true","1","10","","","","",""
"null","<p style=""font-size: 80px;"">+ 10 points</p>","null","html-keyboard-response","2","96691","0.0-7.0-2.1","5c4613f2b05faa0001d62023","hobuoy","KM","37","F","{""name"":""Chrome"",""chrome"":true,""version"":""106.0"",""blink"":true,""windows"":true,""osname"":""Windows"",""osversion"":""10"",""a"":true}","9:17:19","0","1","Practice_4","74","j","1","1754.3000000002794","1920 x 1080","1920 x 1080","true","1","10","","","","",""
"null","<p style=""font-size: 80px;"">+ 10 points</p>","null","html-keyboard-response","3","100226","0.0-7.0-2.2","5c4613f2b05faa0001d62023","hobuoy","KM","37","F","{""name"":""Chrome"",""chrome"":true,""version"":""106.0"",""blink"":true,""windows"":true,""osname"":""Windows"",""osversion"":""10"",""a"":true}","9:17:19","0","1","Practice_1","70","f","1","1532.6000000000931","1920 x 1080","1920 x 1080","true","1","10","","","","",""
"null","<p style=""font-size: 80px;"">+ 10 points</p>","null","html-keyboard-response","4","103523","0.0-7.0-2.3","5c4613f2b05faa0001d62023","hobuoy","KM","37","F","{""name"":""Chrome"",""chrome"":true,""version"":""106.0"",""blink"":true,""windows"":true,""osname"":""Windows"",""osversion"":""10"",""a"":true}","9:17:19","0","1","Practice_4","74","j","1","1292.1000000000931","1920 x 1080","1920 x 1080","true","1","10","","","","",""
"null","<p style=""font-size: 80px;"">+ 10 points</p>","null","html-keyboard-response","5","106348","0.0-7.0-2.4","5c4613f2b05faa0001d62023","hobuoy","KM","37","F","{""name"":""Chrome"",""chrome"":true,""version"":""106.0"",""blink"":true,""windows"":true,""osname"":""Windows"",""osversion"":""10"",""a"":true}","9:17:19","0","1","Practice_4","74","j","1","820","1920 x 1080","1920 x 1080","true","1","10","","","","",""
"null","<p style=""font-size: 80px;"">+ 10 points</p>","null","html-keyboard-response","6","109003","0.0-7.0-2.5","5c4613f2b05faa0001d62023","hobuoy","KM","37","F","{""name"":""Chrome"",""chrome"":true,""version"":""106.0"",""blink"":true,""windows"":true,""osname"":""Windows"",""osversion"":""10"",""a"":true}","9:17:19","0","1","Practice_1","70","f","1","651.1000000000931","1920 x 1080","1920 x 1080","true","1","10","","","","",""
"null","<p style=""font-size: 80px;"">+ 10 points</p>","null","html-keyboard-response","7","112291","0.0-7.0-2.6","5c4613f2b05faa0001d62023","hobuoy","KM","37","F","{""name"":""Chrome"",""chrome"":true,""version"":""106.0"",""blink"":true,""windows"":true,""osname"":""Windows"",""osversion"":""10"",""a"":true}","9:17:19","0","1","Practice_3","70","f","1","1283.8999999999069","1920 x 1080","1920 x 1080","true","1","10","","","","",""
"null","<p style=""font-size: 80px;"">+ 10 points</p>","null","html-keyboard-response","8","115115","0.0-7.0-2.7","5c4613f2b05faa0001d62023","hobuoy","KM","37","F","{""name"":""Chrome"",""chrome"":true,""version"":""106.0"",""blink"":true,""windows"":true,""osname"":""Windows"",""osversion"":""10"",""a"":true}","9:17:19","0","1","Practice_2","74","j","1","820.1000000000931","1920 x 1080","1920 x 1080","true","1","10","","","","",""
"null","<p style=""font-size: 80px;"">+ 10 points</p>","null","html-keyboard-response","9","117842","0.0-7.0-2.8","5c4613f2b05faa0001d62023","hobuoy","KM","37","F","{""name"":""Chrome"",""chrome"":true,""version"":""106.0"",""blink"":true,""windows"":true,""osname"":""Windows"",""osversion"":""10"",""a"":true}","9:17:19","0","1","Practice_1","70","f","1","723","1920 x 1080","1920 x 1080","true","1","10","","","","",""
"null","<p style=""font-size: 80px;"">+ 10 points</p>","null","html-keyboard-response","10","120753","0.0-7.0-2.9","5c4613f2b05faa0001d62023","hobuoy","KM","37","F","{""name"":""Chrome"",""chrome"":true,""version"":""106.0"",""blink"":true,""windows"":true,""osname"":""Windows"",""osversion"":""10"",""a"":true}","9:17:19","0","1","Practice_4","74","j","1","908.0999999996275","1920 x 1080","1920 x 1080","true","1","10","","","","",""
"null","<p style=""font-size: 80px;"">+ 10 points</p>","null","html-keyboard-response","11","123866","0.0-7.0-2.10","5c4613f2b05faa0001d62023","hobuoy","KM","37","F","{""name"":""Chrome"",""chrome"":true,""version"":""106.0"",""blink"":true,""windows"":true,""osname"":""Windows"",""osversion"":""10"",""a"":true}","9:17:19","0","1","Practice_2","74","j","1","1108.3999999999069","1920 x 1080","1920 x 1080","true","1","10","","","","",""
"null","<p style=""font-size: 80px;"">+ 10 points</p>","null","html-keyboard-response","12","126426","0.0-7.0-2.11","5c4613f2b05faa0001d62023","hobuoy","KM","37","F","{""name"":""Chrome"",""chrome"":true,""version"":""106.0"",""blink"":true,""windows"":true,""osname"":""Windows"",""osversion"":""10"",""a"":true}","9:17:19","0","1","Practice_2","74","j","1","555.8000000002794","1920 x 1080","1920 x 1080","true","1","10","","","","",""
"null","<p style=""font-size: 80px;"">+ 10 points</p>","null","html-keyboard-response","13","129386","0.0-7.0-2.12","5c4613f2b05faa0001d62023","hobuoy","KM","37","F","{""name"":""Chrome"",""chrome"":true,""version"":""106.0"",""blink"":true,""windows"":true,""osname"":""Windows"",""osversion"":""10"",""a"":true}","9:17:19","0","1","Practice_4","74","j","1","955","1920 x 1080","1920 x 1080","true","1","10","","","","",""
"null","<p style=""font-size: 80px;"">+ 0 points</p>","null","html-keyboard-response","14","132281","0.0-7.0-2.13","5c4613f2b05faa0001d62023","hobuoy","KM","37","F","{""name"":""Chrome"",""chrome"":true,""version"":""106.0"",""blink"":true,""windows"":true,""osname"":""Windows"",""osversion"":""10"",""a"":true}","9:17:19","0","1","Practice_3","74","f","0","890.1999999997206","1920 x 1080","1920 x 1080","true","1","0","","","","",""
"null","<p style=""font-size: 80px;"">+ 10 points</p>","null","html-keyboard-response","15","135017","0.0-7.0-2.14","5c4613f2b05faa0001d62023","hobuoy","KM","37","F","{""name"":""Chrome"",""chrome"":true,""version"":""106.0"",""blink"":true,""windows"":true,""osname"":""Windows"",""osversion"":""10"",""a"":true}","9:17:19","0","1","Practice_3","70","f","1","732.1999999997206","1920 x 1080","1920 x 1080","true","1","10","","","","",""
"null","<p style=""font-size: 80px;"">+ 10 points</p>","null","html-keyboard-response","16","137913","0.0-7.0-2.15","5c4613f2b05faa0001d62023","hobuoy","KM","37","F","{""name"":""Chrome"",""chrome"":true,""version"":""106.0"",""blink"":true,""windows"":true,""osname"":""Windows"",""osversion"":""10"",""a"":true}","9:17:19","0","1","Practice_2","74","j","1","892.0999999996275","1920 x 1080","1920 x 1080","true","1","10","","","","",""
"null","<p style=""font-size: 80px;"">+ 10 points</p>","null","html-keyboard-response","17","141258","0.0-7.0-2.16","5c4613f2b05faa0001d62023","hobuoy","KM","37","F","{""name"":""Chrome"",""chrome"":true,""version"":""106.0"",""blink"":true,""windows"":true,""osname"":""Windows"",""osversion"":""10"",""a"":true}","9:17:19","0","1","Practice_3","70","f","1","1339.5","1920 x 1080","1920 x 1080","true","1","10","","","","",""
"null","<p style=""font-size: 80px;"">+ 10 points</p>","null","html-keyboard-response","18","144224","0.0-7.0-2.17","5c4613f2b05faa0001d62023","hobuoy","KM","37","F","{""name"":""Chrome"",""chrome"":true,""version"":""106.0"",""blink"":true,""windows"":true,""osname"":""Windows"",""osversion"":""10"",""a"":true}","9:17:19","0","1","Practice_1","70","f","1","963.2000000001863","1920 x 1080","1920 x 1080","true","1","10","","","","",""
"null","<p style=""font-size: 80px;"">+ 10 points</p>","null","html-keyboard-response","19","146977","0.0-7.0-2.18","5c4613f2b05faa0001d62023","hobuoy","KM","37","F","{""name"":""Chrome"",""chrome"":true,""version"":""106.0"",""blink"":true,""windows"":true,""osname"":""Windows"",""osversion"":""10"",""a"":true}","9:17:19","0","1","Practice_1","70","f","1","747.8999999999069","1920 x 1080","1920 x 1080","true","1","10","","","","",""
"null","<p style=""font-size: 80px;"">+ 10 points</p>","null","html-keyboard-response","20","149896","0.0-7.0-2.19","5c4613f2b05faa0001d62023","hobuoy","KM","37","F","{""name"":""Chrome"",""chrome"":true,""version"":""106.0"",""blink"":true,""windows"":true,""osname"":""Windows"",""osversion"":""10"",""a"":true}","9:17:19","0","1","Practice_3","70","f","1","915.8999999999069","1920 x 1080","1920 x 1080","true","1","10","","","","",""
"null","<p style=""font-size: 80px;"">+ 0 points</p>","null","html-keyboard-response","21","152400","0.0-7.0-2.20","5c4613f2b05faa0001d62023","hobuoy","KM","37","F","{""name"":""Chrome"",""chrome"":true,""version"":""106.0"",""blink"":true,""windows"":true,""osname"":""Windows"",""osversion"":""10"",""a"":true}","9:17:19","0","2","Practice_4","74","f","0","500.60000000009313","1920 x 1080","1920 x 1080","true","1","0","","","","",""
"null","<p style=""font-size: 80px;"">+ 10 points</p>","null","html-keyboard-response","22","156048","0.0-7.0-2.21","5c4613f2b05faa0001d62023","hobuoy","KM","37","F","{""name"":""Chrome"",""chrome"":true,""version"":""106.0"",""blink"":true,""windows"":true,""osname"":""Windows"",""osversion"":""10"",""a"":true}","9:17:19","0","2","Practice_2","70","f","1","1644.3999999999069","1920 x 1080","1920 x 1080","true","1","10","","","","",""
"null","<p style=""font-size: 80px;"">+ 10 points</p>","null","html-keyboard-response","23","158776","0.0-7.0-2.22","5c4613f2b05faa0001d62023","hobuoy","KM","37","F","{""name"":""Chrome"",""chrome"":true,""version"":""106.0"",""blink"":true,""windows"":true,""osname"":""Windows"",""osversion"":""10"",""a"":true}","9:17:19","0","2","Practice_2","70","f","1","724.3000000002794","1920 x 1080","1920 x 1080","true","1","10","","","","",""
"null","<p style=""font-size: 80px;"">+ 10 points</p>","null","html-keyboard-response","24","161609","0.0-7.0-2.23","5c4613f2b05faa0001d62023","hobuoy","KM","37","F","{""name"":""Chrome"",""chrome"":true,""version"":""106.0"",""blink"":true,""windows"":true,""osname"":""Windows"",""osversion"":""10"",""a"":true}","9:17:19","0","2","Practice_3","74","j","1","828.2999999998137","1920 x 1080","1920 x 1080","true","1","10","","","","",""
"null","<p style=""font-size: 80px;"">+ 10 points</p>","null","html-keyboard-response","25","164696","0.0-7.0-2.24","5c4613f2b05faa0001d62023","hobuoy","KM","37","F","{""name"":""Chrome"",""chrome"":true,""version"":""106.0"",""blink"":true,""windows"":true,""osname"":""Windows"",""osversion"":""10"",""a"":true}","9:17:19","0","2","Practice_1","74","j","1","1083.3000000002794","1920 x 1080","1920 x 1080","true","1","10","","","","",""
"null","<p style=""font-size: 80px;"">+ 10 points</p>","null","html-keyboard-response","26","168136","0.0-7.0-2.25","5c4613f2b05faa0001d62023","hobuoy","KM","37","F","{""name"":""Chrome"",""chrome"":true,""version"":""106.0"",""blink"":true,""windows"":true,""osname"":""Windows"",""osversion"":""10"",""a"":true}","9:17:19","0","2","Practice_3","74","j","1","1435.3999999999069","1920 x 1080","1920 x 1080","true","1","10","","","","",""
"null","<p style=""font-size: 80px;"">+ 10 points</p>","null","html-keyboard-response","27","171223","0.0-7.0-2.26","5c4613f2b05faa0001d62023","hobuoy","KM","37","F","{""name"":""Chrome"",""chrome"":true,""version"":""106.0"",""blink"":true,""windows"":true,""osname"":""Windows"",""osversion"":""10"",""a"":true}","9:17:19","0","2","Practice_1","74","j","1","1083.7000000001863","1920 x 1080","1920 x 1080","true","1","10","","","","",""
"null","<p style=""font-size: 80px;"">+ 10 points</p>","null","html-keyboard-response","28","174584","0.0-7.0-2.27","5c4613f2b05faa0001d62023","hobuoy","KM","37","F","{""name"":""Chrome"",""chrome"":true,""version"":""106.0"",""blink"":true,""windows"":true,""osname"":""Windows"",""osversion"":""10"",""a"":true}","9:17:19","0","2","Practice_3","74","j","1","1355.5","1920 x 1080","1920 x 1080","true","1","10","","","","",""
"null","<p style=""font-size: 80px;"">+ 10 points</p>","null","html-keyboard-response","29","177839","0.0-7.0-2.28","5c4613f2b05faa0001d62023","hobuoy","KM","37","F","{""name"":""Chrome"",""chrome"":true,""version"":""106.0"",""blink"":true,""windows"":true,""osname"":""Windows"",""osversion"":""10"",""a"":true}","9:17:19","0","2","Practice_4","70","f","1","1251.2000000001863","1920 x 1080","1920 x 1080","true","1","10","","","","",""
"null","<p style=""font-size: 80px;"">+ 10 points</p>","null","html-keyboard-response","30","181687","0.0-7.0-2.29","5c4613f2b05faa0001d62023","hobuoy","KM","37","F","{""name"":""Chrome"",""chrome"":true,""version"":""106.0"",""blink"":true,""windows"":true,""osname"":""Windows"",""osversion"":""10"",""a"":true}","9:17:19","0","2","Practice_4","70","f","1","1844.1999999997206","1920 x 1080","1920 x 1080","true","1","10","","","","",""
"null","<p style=""font-size: 80px;"">+ 10 points</p>","null","html-keyboard-response","31","184983","0.0-7.0-2.30","5c4613f2b05faa0001d62023","hobuoy","KM","37","F","{""name"":""Chrome"",""chrome"":true,""version"":""106.0"",""blink"":true,""windows"":true,""osname"":""Windows"",""osversion"":""10"",""a"":true}","9:17:19","0","2","Practice_2","70","f","1","1292.5","1920 x 1080","1920 x 1080","true","1","10","","","","",""
"null","<p style=""font-size: 80px;"">+ 10 points</p>","null","html-keyboard-response","32","188063","0.0-7.0-2.31","5c4613f2b05faa0001d62023","hobuoy","KM","37","F","{""name"":""Chrome"",""chrome"":true,""version"":""106.0"",""blink"":true,""windows"":true,""osname"":""Windows"",""osversion"":""10"",""a"":true}","9:17:19","0","2","Practice_1","74","j","1","1076.0999999996275","1920 x 1080","1920 x 1080","true","1","10","","","","",""
"null","<p style=""font-size: 80px;"">+ 10 points</p>","null","html-keyboard-response","33","190791","0.0-7.0-2.32","5c4613f2b05faa0001d62023","hobuoy","KM","37","F","{""name"":""Chrome"",""chrome"":true,""version"":""106.0"",""blink"":true,""windows"":true,""osname"":""Windows"",""osversion"":""10"",""a"":true}","9:17:19","0","2","Practice_1","74","j","1","724.3999999999069","1920 x 1080","1920 x 1080","true","1","10","","","","",""
"null","<p style=""font-size: 80px;"">+ 10 points</p>","null","html-keyboard-response","34","193663","0.0-7.0-2.33","5c4613f2b05faa0001d62023","hobuoy","KM","37","F","{""name"":""Chrome"",""chrome"":true,""version"":""106.0"",""blink"":true,""windows"":true,""osname"":""Windows"",""osversion"":""10"",""a"":true}","9:17:19","0","2","Practice_2","70","f","1","868.2000000001863","1920 x 1080","1920 x 1080","true","1","10","","","","",""
"null","<p style=""font-size: 80px;"">+ 10 points</p>","null","html-keyboard-response","35","196727","0.0-7.0-2.34","5c4613f2b05faa0001d62023","hobuoy","KM","37","F","{""name"":""Chrome"",""chrome"":true,""version"":""106.0"",""blink"":true,""windows"":true,""osname"":""Windows"",""osversion"":""10"",""a"":true}","9:17:19","0","2","Practice_1","74","j","1","1059.8999999999069","1920 x 1080","1920 x 1080","true","1","10","","","","",""
"null","<p style=""font-size: 80px;"">+ 10 points</p>","null","html-keyboard-response","36","199575","0.0-7.0-2.35","5c4613f2b05faa0001d62023","hobuoy","KM","37","F","{""name"":""Chrome"",""chrome"":true,""version"":""106.0"",""blink"":true,""windows"":true,""osname"":""Windows"",""osversion"":""10"",""a"":true}","9:17:19","0","2","Practice_4","70","f","1","844.1000000000931","1920 x 1080","1920 x 1080","true","1","10","","","","",""
"null","<p style=""font-size: 80px;"">+ 10 points</p>","null","html-keyboard-response","37","202447","0.0-7.0-2.36","5c4613f2b05faa0001d62023","hobuoy","KM","37","F","{""name"":""Chrome"",""chrome"":true,""version"":""106.0"",""blink"":true,""windows"":true,""osname"":""Windows"",""osversion"":""10"",""a"":true}","9:17:19","0","2","Practice_3","74","j","1","866.7999999998137","1920 x 1080","1920 x 1080","true","1","10","","","","",""
"null","<p style=""font-size: 80px;"">+ 10 points</p>","null","html-keyboard-response","38","205078","0.0-7.0-2.37","5c4613f2b05faa0001d62023","hobuoy","KM","37","F","{""name"":""Chrome"",""chrome"":true,""version"":""106.0"",""blink"":true,""windows"":true,""osname"":""Windows"",""osversion"":""10"",""a"":true}","9:17:19","0","2","Practice_3","74","j","1","627.2999999998137","1920 x 1080","1920 x 1080","true","1","10","","","","",""
"null","<p style=""font-size: 80px;"">+ 0 points</p>","null","html-keyboard-response","39","208239","0.0-7.0-2.38","5c4613f2b05faa0001d62023","hobuoy","KM","37","F","{""name"":""Chrome"",""chrome"":true,""version"":""106.0"",""blink"":true,""windows"":true,""osname"":""Windows"",""osversion"":""10"",""a"":true}","9:17:19","0","2","Practice_2","74","f","0","1156.3999999999069","1920 x 1080","1920 x 1080","true","1","0","","","","",""
"null","<p style=""font-size: 80px;"">+ 10 points</p>","null","html-keyboard-response","40","211823","0.0-7.0-2.39","5c4613f2b05faa0001d62023","hobuoy","KM","37","F","{""name"":""Chrome"",""chrome"":true,""version"":""106.0"",""blink"":true,""windows"":true,""osname"":""Windows"",""osversion"":""10"",""a"":true}","9:17:19","0","2","Practice_4","70","f","1","1580.1000000000931","1920 x 1080","1920 x 1080","true","1","10","","","","",""
"11235","","","survey-multi-choice","127","223060","0.0-8.0","5c4613f2b05faa0001d62023","hobuoy","KM","37","F","{""name"":""Chrome"",""chrome"":true,""version"":""106.0"",""blink"":true,""windows"":true,""osname"":""Windows"",""osversion"":""10"",""a"":true}","9:17:19","","","","","","","","","","","1","","{""Q0"":""The red one"",""Q1"":""1""}","[0,1]","1","The red one","2"
"null","<p style=""font-size: 80px;"">+ 10 points</p>","null","html-keyboard-response","1","232862","0.0-11.0-2.0","5c4613f2b05faa0001d62023","hobuoy","KM","37","F","{""name"":""Chrome"",""chrome"":true,""version"":""106.0"",""blink"":true,""windows"":true,""osname"":""Windows"",""osversion"":""10"",""a"":true}","9:17:19","1","3","Test_2","74","j","1","1452.3999999999069","1920 x 1080","1920 x 1080","true","1","10","","","","",""
"null","<p style=""font-size: 80px;"">+ 0 points</p>","null","html-keyboard-response","2","235910","0.0-11.0-2.1","5c4613f2b05faa0001d62023","hobuoy","KM","37","F","{""name"":""Chrome"",""chrome"":true,""version"":""106.0"",""blink"":true,""windows"":true,""osname"":""Windows"",""osversion"":""10"",""a"":true}","9:17:19","1","3","Test_4","70","j","0","1043.5","1920 x 1080","1920 x 1080","true","1","0","","","","",""
"null","<p style=""font-size: 80px;"">+ 10 points</p>","null","html-keyboard-response","3","240735","0.0-11.0-2.2","5c4613f2b05faa0001d62023","hobuoy","KM","37","F","{""name"":""Chrome"",""chrome"":true,""version"":""106.0"",""blink"":true,""windows"":true,""osname"":""Windows"",""osversion"":""10"",""a"":true}","9:17:19","1","3","Test_1","70","f","1","2818","1920 x 1080","1920 x 1080","true","1","10","","","","",""
"null","<p style=""font-size: 80px;"">+ 10 points</p>","null","html-keyboard-response","4","243550","0.0-11.0-2.3","5c4613f2b05faa0001d62023","hobuoy","KM","37","F","{""name"":""Chrome"",""chrome"":true,""version"":""106.0"",""blink"":true,""windows"":true,""osname"":""Windows"",""osversion"":""10"",""a"":true}","9:17:19","1","3","Test_4","74","j","1","811.6000000000931","1920 x 1080","1920 x 1080","true","1","10","","","","",""
"null","<p style=""font-size: 80px;"">+ 10 points</p>","null","html-keyboard-response","5","246494","0.0-11.0-2.4","5c4613f2b05faa0001d62023","hobuoy","KM","37","F","{""name"":""Chrome"",""chrome"":true,""version"":""106.0"",""blink"":true,""windows"":true,""osname"":""Windows"",""osversion"":""10"",""a"":true}","9:17:19","1","3","Test_2","74","j","1","939.8999999999069","1920 x 1080","1920 x 1080","true","1","10","","","","",""
"null","<p style=""font-size: 80px;"">+ 10 points</p>","null","html-keyboard-response","6","250645","0.0-11.0-2.5","5c4613f2b05faa0001d62023","hobuoy","KM","37","F","{""name"":""Chrome"",""chrome"":true,""version"":""106.0"",""blink"":true,""windows"":true,""osname"":""Windows"",""osversion"":""10"",""a"":true}","9:17:19","1","3","Test_4","74","j","1","2147.2999999998137","1920 x 1080","1920 x 1080","true","1","10","","","","",""
"null","<p style=""font-size: 80px;"">+ 10 points</p>","null","html-keyboard-response","7","253678","0.0-11.0-2.6","5c4613f2b05faa0001d62023","hobuoy","KM","37","F","{""name"":""Chrome"",""chrome"":true,""version"":""106.0"",""blink"":true,""windows"":true,""osname"":""Windows"",""osversion"":""10"",""a"":true}","9:17:19","1","3","Test_2","74","j","1","1028.1000000000931","1920 x 1080","1920 x 1080","true","1","10","","","","",""
"null","<p style=""font-size: 80px;"">+ 10 points</p>","null","html-keyboard-response","8","256933","0.0-11.0-2.7","5c4613f2b05faa0001d62023","hobuoy","KM","37","F","{""name"":""Chrome"",""chrome"":true,""version"":""106.0"",""blink"":true,""windows"":true,""osname"":""Windows"",""osversion"":""10"",""a"":true}","9:17:19","1","3","Test_3","70","f","1","1251.1000000000931","1920 x 1080","1920 x 1080","true","1","10","","","","",""
"null","<p style=""font-size: 80px;"">+ 10 points</p>","null","html-keyboard-response","9","260157","0.0-11.0-2.8","5c4613f2b05faa0001d62023","hobuoy","KM","37","F","{""name"":""Chrome"",""chrome"":true,""version"":""106.0"",""blink"":true,""windows"":true,""osname"":""Windows"",""osversion"":""10"",""a"":true}","9:17:19","1","3","Test_2","74","j","1","1219.7000000001863","1920 x 1080","1920 x 1080","true","1","10","","","","",""
"null","<p style=""font-size: 80px;"">+ 0 points</p>","null","html-keyboard-response","10","262773","0.0-11.0-2.9","5c4613f2b05faa0001d62023","hobuoy","KM","37","F","{""name"":""Chrome"",""chrome"":true,""version"":""106.0"",""blink"":true,""windows"":true,""osname"":""Windows"",""osversion"":""10"",""a"":true}","9:17:19","1","3","Test_1","74","f","0","611.8999999999069","1920 x 1080","1920 x 1080","true","1","0","","","","",""
"null","<p style=""font-size: 80px;"">+ 10 points</p>","null","html-keyboard-response","11","265702","0.0-11.0-2.10","5c4613f2b05faa0001d62023","hobuoy","KM","37","F","{""name"":""Chrome"",""chrome"":true,""version"":""106.0"",""blink"":true,""windows"":true,""osname"":""Windows"",""osversion"":""10"",""a"":true}","9:17:19","1","3","Test_3","70","f","1","924.7999999998137","1920 x 1080","1920 x 1080","true","1","10","","","","",""
"null","<p style=""font-size: 80px;"">+ 10 points</p>","null","html-keyboard-response","12","268709","0.0-11.0-2.11","5c4613f2b05faa0001d62023","hobuoy","KM","37","F","{""name"":""Chrome"",""chrome"":true,""version"":""106.0"",""blink"":true,""windows"":true,""osname"":""Windows"",""osversion"":""10"",""a"":true}","9:17:19","1","3","Test_3","70","f","1","1002.8999999999069","1920 x 1080","1920 x 1080","true","1","10","","","","",""
"null","<p style=""font-size: 80px;"">+ 10 points</p>","null","html-keyboard-response","13","271333","0.0-11.0-2.12","5c4613f2b05faa0001d62023","hobuoy","KM","37","F","{""name"":""Chrome"",""chrome"":true,""version"":""106.0"",""blink"":true,""windows"":true,""osname"":""Windows"",""osversion"":""10"",""a"":true}","9:17:19","1","3","Test_3","70","f","1","618.3999999999069","1920 x 1080","1920 x 1080","true","1","10","","","","",""
"null","<p style=""font-size: 80px;"">+ 10 points</p>","null","html-keyboard-response","14","274444","0.0-11.0-2.13","5c4613f2b05faa0001d62023","hobuoy","KM","37","F","{""name"":""Chrome"",""chrome"":true,""version"":""106.0"",""blink"":true,""windows"":true,""osname"":""Windows"",""osversion"":""10"",""a"":true}","9:17:19","1","3","Test_4","74","j","1","1107.1000000000931","1920 x 1080","1920 x 1080","true","1","10","","","","",""
"null","<p style=""font-size: 80px;"">+ 10 points</p>","null","html-keyboard-response","15","277326","0.0-11.0-2.14","5c4613f2b05faa0001d62023","hobuoy","KM","37","F","{""name"":""Chrome"",""chrome"":true,""version"":""106.0"",""blink"":true,""windows"":true,""osname"":""Windows"",""osversion"":""10"",""a"":true}","9:17:19","1","3","Test_1","70","f","1","876","1920 x 1080","1920 x 1080","true","1","10","","","","",""
"null","<p style=""font-size: 80px;"">+ 10 points</p>","null","html-keyboard-response","16","280109","0.0-11.0-2.15","5c4613f2b05faa0001d62023","hobuoy","KM","37","F","{""name"":""Chrome"",""chrome"":true,""version"":""106.0"",""blink"":true,""windows"":true,""osname"":""Windows"",""osversion"":""10"",""a"":true}","9:17:19","1","3","Test_1","70","f","1","778.3000000002794","1920 x 1080","1920 x 1080","true","1","10","","","","",""
"null","<p style=""font-size: 80px;"">+ 0 points</p>","null","html-keyboard-response","17","282748","0.0-11.0-2.16","5c4613f2b05faa0001d62023","hobuoy","KM","37","F","{""name"":""Chrome"",""chrome"":true,""version"":""106.0"",""blink"":true,""windows"":true,""osname"":""Windows"",""osversion"":""10"",""a"":true}","9:17:19","1","4","Test_1","70","j","0","635","1920 x 1080","1920 x 1080","true","1","0","","","","",""
"null","<p style=""font-size: 80px;"">+ 0 points</p>","null","html-keyboard-response","18","285749","0.0-11.0-2.17","5c4613f2b05faa0001d62023","hobuoy","KM","37","F","{""name"":""Chrome"",""chrome"":true,""version"":""106.0"",""blink"":true,""windows"":true,""osname"":""Windows"",""osversion"":""10"",""a"":true}","9:17:19","1","4","Test_2","74","f","0","996","1920 x 1080","1920 x 1080","true","1","0","","","","",""
"null","<p style=""font-size: 80px;"">+ 10 points</p>","null","html-keyboard-response","19","288580","0.0-11.0-2.18","5c4613f2b05faa0001d62023","hobuoy","KM","37","F","{""name"":""Chrome"",""chrome"":true,""version"":""106.0"",""blink"":true,""windows"":true,""osname"":""Windows"",""osversion"":""10"",""a"":true}","9:17:19","1","4","Test_3","74","j","1","827.3999999999069","1920 x 1080","1920 x 1080","true","1","10","","","","",""
"null","<p style=""font-size: 80px;"">+ 10 points</p>","null","html-keyboard-response","20","291645","0.0-11.0-2.19","5c4613f2b05faa0001d62023","hobuoy","KM","37","F","{""name"":""Chrome"",""chrome"":true,""version"":""106.0"",""blink"":true,""windows"":true,""osname"":""Windows"",""osversion"":""10"",""a"":true}","9:17:19","1","4","Test_1","74","j","1","1060.7999999998137","1920 x 1080","1920 x 1080","true","1","10","","","","",""
"null","<p style=""font-size: 80px;"">+ 10 points</p>","null","html-keyboard-response","21","294292","0.0-11.0-2.20","5c4613f2b05faa0001d62023","hobuoy","KM","37","F","{""name"":""Chrome"",""chrome"":true,""version"":""106.0"",""blink"":true,""windows"":true,""osname"":""Windows"",""osversion"":""10"",""a"":true}","9:17:19","1","4","Test_3","74","j","1","643.3999999999069","1920 x 1080","1920 x 1080","true","1","10","","","","",""
"null","<p style=""font-size: 80px;"">+ 10 points</p>","null","html-keyboard-response","22","297452","0.0-11.0-2.21","5c4613f2b05faa0001d62023","hobuoy","KM","37","F","{""name"":""Chrome"",""chrome"":true,""version"":""106.0"",""blink"":true,""windows"":true,""osname"":""Windows"",""osversion"":""10"",""a"":true}","9:17:19","1","4","Test_2","70","f","1","1156","1920 x 1080","1920 x 1080","true","1","10","","","","",""
"null","<p style=""font-size: 80px;"">+ 10 points</p>","null","html-keyboard-response","23","301356","0.0-11.0-2.22","5c4613f2b05faa0001d62023","hobuoy","KM","37","F","{""name"":""Chrome"",""chrome"":true,""version"":""106.0"",""blink"":true,""windows"":true,""osname"":""Windows"",""osversion"":""10"",""a"":true}","9:17:19","1","4","Test_4","70","f","1","1899.1000000000931","1920 x 1080","1920 x 1080","true","1","10","","","","",""
"null","<p style=""font-size: 80px;"">+ 10 points</p>","null","html-keyboard-response","24","304427","0.0-11.0-2.23","5c4613f2b05faa0001d62023","hobuoy","KM","37","F","{""name"":""Chrome"",""chrome"":true,""version"":""106.0"",""blink"":true,""windows"":true,""osname"":""Windows"",""osversion"":""10"",""a"":true}","9:17:19","1","4","Test_3","74","j","1","1066.7999999998137","1920 x 1080","1920 x 1080","true","1","10","","","","",""
"null","<p style=""font-size: 80px;"">+ 10 points</p>","null","html-keyboard-response","25","307876","0.0-11.0-2.24","5c4613f2b05faa0001d62023","hobuoy","KM","37","F","{""name"":""Chrome"",""chrome"":true,""version"":""106.0"",""blink"":true,""windows"":true,""osname"":""Windows"",""osversion"":""10"",""a"":true}","9:17:19","1","4","Test_3","74","j","1","1445","1920 x 1080","1920 x 1080","true","1","10","","","","",""
"null","<p style=""font-size: 80px;"">+ 10 points</p>","null","html-keyboard-response","26","310707","0.0-11.0-2.25","5c4613f2b05faa0001d62023","hobuoy","KM","37","F","{""name"":""Chrome"",""chrome"":true,""version"":""106.0"",""blink"":true,""windows"":true,""osname"":""Windows"",""osversion"":""10"",""a"":true}","9:17:19","1","4","Test_4","70","f","1","827.2000000001863","1920 x 1080","1920 x 1080","true","1","10","","","","",""
"null","<p style=""font-size: 80px;"">+ 10 points</p>","null","html-keyboard-response","27","313916","0.0-11.0-2.26","5c4613f2b05faa0001d62023","hobuoy","KM","37","F","{""name"":""Chrome"",""chrome"":true,""version"":""106.0"",""blink"":true,""windows"":true,""osname"":""Windows"",""osversion"":""10"",""a"":true}","9:17:19","1","4","Test_3","74","j","1","1203.7000000001863","1920 x 1080","1920 x 1080","true","1","10","","","","",""
"null","<p style=""font-size: 80px;"">+ 10 points</p>","null","html-keyboard-response","28","317172","0.0-11.0-2.27","5c4613f2b05faa0001d62023","hobuoy","KM","37","F","{""name"":""Chrome"",""chrome"":true,""version"":""106.0"",""blink"":true,""windows"":true,""osname"":""Windows"",""osversion"":""10"",""a"":true}","9:17:19","1","4","Test_2","70","f","1","1250.6000000000931","1920 x 1080","1920 x 1080","true","1","10","","","","",""
"null","<p style=""font-size: 80px;"">+ 10 points</p>","null","html-keyboard-response","29","320923","0.0-11.0-2.28","5c4613f2b05faa0001d62023","hobuoy","KM","37","F","{""name"":""Chrome"",""chrome"":true,""version"":""106.0"",""blink"":true,""windows"":true,""osname"":""Windows"",""osversion"":""10"",""a"":true}","9:17:19","1","4","Test_4","70","f","1","1747.2999999998137","1920 x 1080","1920 x 1080","true","1","10","","","","",""
"null","<p style=""font-size: 80px;"">+ 10 points</p>","null","html-keyboard-response","30","323500","0.0-11.0-2.29","5c4613f2b05faa0001d62023","hobuoy","KM","37","F","{""name"":""Chrome"",""chrome"":true,""version"":""106.0"",""blink"":true,""windows"":true,""osname"":""Windows"",""osversion"":""10"",""a"":true}","9:17:19","1","4","Test_4","70","f","1","572.1000000000931","1920 x 1080","1920 x 1080","true","1","10","","","","",""
"null","<p style=""font-size: 80px;"">+ 10 points</p>","null","html-keyboard-response","31","326500","0.0-11.0-2.30","5c4613f2b05faa0001d62023","hobuoy","KM","37","F","{""name"":""Chrome"",""chrome"":true,""version"":""106.0"",""blink"":true,""windows"":true,""osname"":""Windows"",""osversion"":""10"",""a"":true}","9:17:19","1","4","Test_1","74","j","1","994.1999999997206","1920 x 1080","1920 x 1080","true","1","10","","","","",""
"null","<p style=""font-size: 80px;"">+ 10 points</p>","null","html-keyboard-response","32","329780","0.0-11.0-2.31","5c4613f2b05faa0001d62023","hobuoy","KM","37","F","{""name"":""Chrome"",""chrome"":true,""version"":""106.0"",""blink"":true,""windows"":true,""osname"":""Windows"",""osversion"":""10"",""a"":true}","9:17:19","1","4","Test_2","70","f","1","1274.5","1920 x 1080","1920 x 1080","true","1","10","","","","",""
"null","<p style=""font-size: 80px;"">+ 10 points</p>","null","html-keyboard-response","33","334204","0.0-11.0-2.32","5c4613f2b05faa0001d62023","hobuoy","KM","37","F","{""name"":""Chrome"",""chrome"":true,""version"":""106.0"",""blink"":true,""windows"":true,""osname"":""Windows"",""osversion"":""10"",""a"":true}","9:17:19","1","4","Test_4","70","f","1","2417.7999999998137","1920 x 1080","1920 x 1080","true","1","10","","","","",""
"null","<p style=""font-size: 80px;"">+ 10 points</p>","null","html-keyboard-response","34","336906","0.0-11.0-2.33","5c4613f2b05faa0001d62023","hobuoy","KM","37","F","{""name"":""Chrome"",""chrome"":true,""version"":""106.0"",""blink"":true,""windows"":true,""osname"":""Windows"",""osversion"":""10"",""a"":true}","9:17:19","1","4","Test_1","74","j","1","699.1999999997206","1920 x 1080","1920 x 1080","true","1","10","","","","",""
"null","<p style=""font-size: 80px;"">+ 10 points</p>","null","html-keyboard-response","35","339586","0.0-11.0-2.34","5c4613f2b05faa0001d62023","hobuoy","KM","37","F","{""name"":""Chrome"",""chrome"":true,""version"":""106.0"",""blink"":true,""windows"":true,""osname"":""Windows"",""osversion"":""10"",""a"":true}","9:17:19","1","4","Test_1","74","j","1","676.3999999999069","1920 x 1080","1920 x 1080","true","1","10","","","","",""
"null","<p style=""font-size: 80px;"">+ 10 points</p>","null","html-keyboard-response","36","342995","0.0-11.0-2.35","5c4613f2b05faa0001d62023","hobuoy","KM","37","F","{""name"":""Chrome"",""chrome"":true,""version"":""106.0"",""blink"":true,""windows"":true,""osname"":""Windows"",""osversion"":""10"",""a"":true}","9:17:19","1","4","Test_3","74","j","1","1403.8000000002794","1920 x 1080","1920 x 1080","true","1","10","","","","",""
"null","<p style=""font-size: 80px;"">+ 10 points</p>","null","html-keyboard-response","37","346337","0.0-11.0-2.36","5c4613f2b05faa0001d62023","hobuoy","KM","37","F","{""name"":""Chrome"",""chrome"":true,""version"":""106.0"",""blink"":true,""windows"":true,""osname"":""Windows"",""osversion"":""10"",""a"":true}","9:17:19","1","4","Test_4","70","f","1","1338.7999999998137","1920 x 1080","1920 x 1080","true","1","10","","","","",""
"null","<p style=""font-size: 80px;"">+ 10 points</p>","null","html-keyboard-response","38","348987","0.0-11.0-2.37","5c4613f2b05faa0001d62023","hobuoy","KM","37","F","{""name"":""Chrome"",""chrome"":true,""version"":""106.0"",""blink"":true,""windows"":true,""osname"":""Windows"",""osversion"":""10"",""a"":true}","9:17:19","1","4","Test_1","74","j","1","644.8999999999069","1920 x 1080","1920 x 1080","true","1","10","","","","",""
"null","<p style=""font-size: 80px;"">+ 10 points</p>","null","html-keyboard-response","39","351826","0.0-11.0-2.38","5c4613f2b05faa0001d62023","hobuoy","KM","37","F","{""name"":""Chrome"",""chrome"":true,""version"":""106.0"",""blink"":true,""windows"":true,""osname"":""Windows"",""osversion"":""10"",""a"":true}","9:17:19","1","4","Test_2","70","f","1","834.3999999999069","1920 x 1080","1920 x 1080","true","1","10","","","","",""
"null","<p style=""font-size: 80px;"">+ 10 points</p>","null","html-keyboard-response","40","354595","0.0-11.0-2.39","5c4613f2b05faa0001d62023","hobuoy","KM","37","F","{""name"":""Chrome"",""chrome"":true,""version"":""106.0"",""blink"":true,""windows"":true,""osname"":""Windows"",""osversion"":""10"",""a"":true}","9:17:19","1","4","Test_2","70","f","1","763.4000000003725","1920 x 1080","1920 x 1080","true","1","10","","","","",""
"null","<p style=""font-size: 80px;"">+ 10 points</p>","null","html-keyboard-response","41","357738","0.0-11.0-2.40","5c4613f2b05faa0001d62023","hobuoy","KM","37","F","{""name"":""Chrome"",""chrome"":true,""version"":""106.0"",""blink"":true,""windows"":true,""osname"":""Windows"",""osversion"":""10"",""a"":true}","9:17:19","1","3","Test_4","74","j","1","1139.1000000000931","1920 x 1080","1920 x 1080","true","1","10","","","","",""
"null","<p style=""font-size: 80px;"">+ 10 points</p>","null","html-keyboard-response","42","360970","0.0-11.0-2.41","5c4613f2b05faa0001d62023","hobuoy","KM","37","F","{""name"":""Chrome"",""chrome"":true,""version"":""106.0"",""blink"":true,""windows"":true,""osname"":""Windows"",""osversion"":""10"",""a"":true}","9:17:19","1","3","Test_1","70","f","1","1227.1999999997206","1920 x 1080","1920 x 1080","true","1","10","","","","",""
"null","<p style=""font-size: 80px;"">+ 10 points</p>","null","html-keyboard-response","43","363850","0.0-11.0-2.42","5c4613f2b05faa0001d62023","hobuoy","KM","37","F","{""name"":""Chrome"",""chrome"":true,""version"":""106.0"",""blink"":true,""windows"":true,""osname"":""Windows"",""osversion"":""10"",""a"":true}","9:17:19","1","3","Test_4","74","j","1","875.4000000003725","1920 x 1080","1920 x 1080","true","1","10","","","","",""
"null","<p style=""font-size: 80px;"">+ 0 points</p>","null","html-keyboard-response","44","367722","0.0-11.0-2.43","5c4613f2b05faa0001d62023","hobuoy","KM","37","F","{""name"":""Chrome"",""chrome"":true,""version"":""106.0"",""blink"":true,""windows"":true,""osname"":""Windows"",""osversion"":""10"",""a"":true}","9:17:19","1","3","Test_1","74","f","0","1867.6000000000931","1920 x 1080","1920 x 1080","true","1","0","","","","",""
"null","<p style=""font-size: 80px;"">+ 10 points</p>","null","html-keyboard-response","45","370882","0.0-11.0-2.44","5c4613f2b05faa0001d62023","hobuoy","KM","37","F","{""name"":""Chrome"",""chrome"":true,""version"":""106.0"",""blink"":true,""windows"":true,""osname"":""Windows"",""osversion"":""10"",""a"":true}","9:17:19","1","3","Test_3","70","f","1","1154.7000000001863","1920 x 1080","1920 x 1080","true","1","10","","","","",""
"null","<p style=""font-size: 80px;"">+ 10 points</p>","null","html-keyboard-response","46","373754","0.0-11.0-2.45","5c4613f2b05faa0001d62023","hobuoy","KM","37","F","{""name"":""Chrome"",""chrome"":true,""version"":""106.0"",""blink"":true,""windows"":true,""osname"":""Windows"",""osversion"":""10"",""a"":true}","9:17:19","1","3","Test_2","74","j","1","867.6000000000931","1920 x 1080","1920 x 1080","true","1","10","","","","",""
"null","<p style=""font-size: 80px;"">+ 10 points</p>","null","html-keyboard-response","47","376433","0.0-11.0-2.46","5c4613f2b05faa0001d62023","hobuoy","KM","37","F","{""name"":""Chrome"",""chrome"":true,""version"":""106.0"",""blink"":true,""windows"":true,""osname"":""Windows"",""osversion"":""10"",""a"":true}","9:17:19","1","3","Test_3","70","f","1","675.1000000000931","1920 x 1080","1920 x 1080","true","1","10","","","","",""
"null","<p style=""font-size: 80px;"">+ 10 points</p>","null","html-keyboard-response","48","379938","0.0-11.0-2.47","5c4613f2b05faa0001d62023","hobuoy","KM","37","F","{""name"":""Chrome"",""chrome"":true,""version"":""106.0"",""blink"":true,""windows"":true,""osname"":""Windows"",""osversion"":""10"",""a"":true}","9:17:19","1","3","Test_2","74","j","1","1500.1999999997206","1920 x 1080","1920 x 1080","true","1","10","","","","",""
"null","<p style=""font-size: 80px;"">+ 10 points</p>","null","html-keyboard-response","49","382530","0.0-11.0-2.48","5c4613f2b05faa0001d62023","hobuoy","KM","37","F","{""name"":""Chrome"",""chrome"":true,""version"":""106.0"",""blink"":true,""windows"":true,""osname"":""Windows"",""osversion"":""10"",""a"":true}","9:17:19","1","3","Test_2","74","j","1","586.6000000000931","1920 x 1080","1920 x 1080","true","1","10","","","","",""
"null","<p style=""font-size: 80px;"">+ 10 points</p>","null","html-keyboard-response","50","385906","0.0-11.0-2.49","5c4613f2b05faa0001d62023","hobuoy","KM","37","F","{""name"":""Chrome"",""chrome"":true,""version"":""106.0"",""blink"":true,""windows"":true,""osname"":""Windows"",""osversion"":""10"",""a"":true}","9:17:19","1","3","Test_4","74","j","1","1371.6999999997206","1920 x 1080","1920 x 1080","true","1","10","","","","",""
"null","<p style=""font-size: 80px;"">+ 10 points</p>","null","html-keyboard-response","51","388769","0.0-11.0-2.50","5c4613f2b05faa0001d62023","hobuoy","KM","37","F","{""name"":""Chrome"",""chrome"":true,""version"":""106.0"",""blink"":true,""windows"":true,""osname"":""Windows"",""osversion"":""10"",""a"":true}","9:17:19","1","3","Test_1","70","f","1","858.6000000000931","1920 x 1080","1920 x 1080","true","1","10","","","","",""
"null","<p style=""font-size: 80px;"">+ 10 points</p>","null","html-keyboard-response","52","391569","0.0-11.0-2.51","5c4613f2b05faa0001d62023","hobuoy","KM","37","F","{""name"":""Chrome"",""chrome"":true,""version"":""106.0"",""blink"":true,""windows"":true,""osname"":""Windows"",""osversion"":""10"",""a"":true}","9:17:19","1","3","Test_3","70","f","1","795.3999999999069","1920 x 1080","1920 x 1080","true","1","10","","","","",""
"null","<p style=""font-size: 80px;"">+ 10 points</p>","null","html-keyboard-response","53","394745","0.0-11.0-2.52","5c4613f2b05faa0001d62023","hobuoy","KM","37","F","{""name"":""Chrome"",""chrome"":true,""version"":""106.0"",""blink"":true,""windows"":true,""osname"":""Windows"",""osversion"":""10"",""a"":true}","9:17:19","1","3","Test_4","74","j","1","1170.3999999999069","1920 x 1080","1920 x 1080","true","1","10","","","","",""
"null","<p style=""font-size: 80px;"">+ 10 points</p>","null","html-keyboard-response","54","397761","0.0-11.0-2.53","5c4613f2b05faa0001d62023","hobuoy","KM","37","F","{""name"":""Chrome"",""chrome"":true,""version"":""106.0"",""blink"":true,""windows"":true,""osname"":""Windows"",""osversion"":""10"",""a"":true}","9:17:19","1","3","Test_3","70","f","1","1011.3999999999069","1920 x 1080","1920 x 1080","true","1","10","","","","",""
"null","<p style=""font-size: 80px;"">+ 10 points</p>","null","html-keyboard-response","55","400344","0.0-11.0-2.54","5c4613f2b05faa0001d62023","hobuoy","KM","37","F","{""name"":""Chrome"",""chrome"":true,""version"":""106.0"",""blink"":true,""windows"":true,""osname"":""Windows"",""osversion"":""10"",""a"":true}","9:17:19","1","3","Test_3","70","f","1","579","1920 x 1080","1920 x 1080","true","1","10","","","","",""
"null","<p style=""font-size: 80px;"">+ 10 points</p>","null","html-keyboard-response","56","402873","0.0-11.0-2.55","5c4613f2b05faa0001d62023","hobuoy","KM","37","F","{""name"":""Chrome"",""chrome"":true,""version"":""106.0"",""blink"":true,""windows"":true,""osname"":""Windows"",""osversion"":""10"",""a"":true}","9:17:19","1","3","Test_2","74","j","1","523.7000000001863","1920 x 1080","1920 x 1080","true","1","10","","","","",""
"null","<p style=""font-size: 80px;"">+ 10 points</p>","null","html-keyboard-response","57","405904","0.0-11.0-2.56","5c4613f2b05faa0001d62023","hobuoy","KM","37","F","{""name"":""Chrome"",""chrome"":true,""version"":""106.0"",""blink"":true,""windows"":true,""osname"":""Windows"",""osversion"":""10"",""a"":true}","9:17:19","1","3","Test_1","70","f","1","1026.5","1920 x 1080","1920 x 1080","true","1","10","","","","",""
"null","<p style=""font-size: 80px;"">+ 0 points</p>","null","html-keyboard-response","58","408737","0.0-11.0-2.57","5c4613f2b05faa0001d62023","hobuoy","KM","37","F","{""name"":""Chrome"",""chrome"":true,""version"":""106.0"",""blink"":true,""windows"":true,""osname"":""Windows"",""osversion"":""10"",""a"":true}","9:17:19","1","4","Test_1","70","j","0","828.3999999999069","1920 x 1080","1920 x 1080","true","1","0","","","","",""
"null","<p style=""font-size: 80px;"">+ 10 points</p>","null","html-keyboard-response","59","412008","0.0-11.0-2.58","5c4613f2b05faa0001d62023","hobuoy","KM","37","F","{""name"":""Chrome"",""chrome"":true,""version"":""106.0"",""blink"":true,""windows"":true,""osname"":""Windows"",""osversion"":""10"",""a"":true}","9:17:19","1","4","Test_1","74","j","1","1266.6000000000931","1920 x 1080","1920 x 1080","true","1","10","","","","",""
"null","<p style=""font-size: 80px;"">+ 10 points</p>","null","html-keyboard-response","60","415424","0.0-11.0-2.59","5c4613f2b05faa0001d62023","hobuoy","KM","37","F","{""name"":""Chrome"",""chrome"":true,""version"":""106.0"",""blink"":true,""windows"":true,""osname"":""Windows"",""osversion"":""10"",""a"":true}","9:17:19","1","4","Test_3","74","j","1","1411.8999999999069","1920 x 1080","1920 x 1080","true","1","10","","","","",""
"null","<p style=""font-size: 80px;"">+ 10 points</p>","null","html-keyboard-response","61","418160","0.0-11.0-2.60","5c4613f2b05faa0001d62023","hobuoy","KM","37","F","{""name"":""Chrome"",""chrome"":true,""version"":""106.0"",""blink"":true,""windows"":true,""osname"":""Windows"",""osversion"":""10"",""a"":true}","9:17:19","1","4","Test_4","70","f","1","731.7999999998137","1920 x 1080","1920 x 1080","true","1","10","","","","",""
"null","<p style=""font-size: 80px;"">+ 10 points</p>","null","html-keyboard-response","62","421576","0.0-11.0-2.61","5c4613f2b05faa0001d62023","hobuoy","KM","37","F","{""name"":""Chrome"",""chrome"":true,""version"":""106.0"",""blink"":true,""windows"":true,""osname"":""Windows"",""osversion"":""10"",""a"":true}","9:17:19","1","4","Test_2","70","f","1","1411.8999999999069","1920 x 1080","1920 x 1080","true","1","10","","","","",""
"null","<p style=""font-size: 80px;"">+ 10 points</p>","null","html-keyboard-response","63","424400","0.0-11.0-2.62","5c4613f2b05faa0001d62023","hobuoy","KM","37","F","{""name"":""Chrome"",""chrome"":true,""version"":""106.0"",""blink"":true,""windows"":true,""osname"":""Windows"",""osversion"":""10"",""a"":true}","9:17:19","1","4","Test_2","70","f","1","819.1000000000931","1920 x 1080","1920 x 1080","true","1","10","","","","",""
"null","<p style=""font-size: 80px;"">+ 10 points</p>","null","html-keyboard-response","64","427112","0.0-11.0-2.63","5c4613f2b05faa0001d62023","hobuoy","KM","37","F","{""name"":""Chrome"",""chrome"":true,""version"":""106.0"",""blink"":true,""windows"":true,""osname"":""Windows"",""osversion"":""10"",""a"":true}","9:17:19","1","4","Test_1","74","j","1","707","1920 x 1080","1920 x 1080","true","1","10","","","","",""
"null","<p style=""font-size: 80px;"">+ 0 points</p>","null","html-keyboard-response","65","430215","0.0-11.0-2.64","5c4613f2b05faa0001d62023","hobuoy","KM","37","F","{""name"":""Chrome"",""chrome"":true,""version"":""106.0"",""blink"":true,""windows"":true,""osname"":""Windows"",""osversion"":""10"",""a"":true}","9:17:19","1","4","Test_3","70","j","0","1098.8999999999069","1920 x 1080","1920 x 1080","true","1","0","","","","",""
"null","<p style=""font-size: 80px;"">+ 10 points</p>","null","html-keyboard-response","66","433215","0.0-11.0-2.65","5c4613f2b05faa0001d62023","hobuoy","KM","37","F","{""name"":""Chrome"",""chrome"":true,""version"":""106.0"",""blink"":true,""windows"":true,""osname"":""Windows"",""osversion"":""10"",""a"":true}","9:17:19","1","4","Test_3","74","j","1","995","1920 x 1080","1920 x 1080","true","1","10","","","","",""
"null","<p style=""font-size: 80px;"">+ 10 points</p>","null","html-keyboard-response","67","436120","0.0-11.0-2.66","5c4613f2b05faa0001d62023","hobuoy","KM","37","F","{""name"":""Chrome"",""chrome"":true,""version"":""106.0"",""blink"":true,""windows"":true,""osname"":""Windows"",""osversion"":""10"",""a"":true}","9:17:19","1","4","Test_1","74","j","1","899.6999999997206","1920 x 1080","1920 x 1080","true","1","10","","","","",""
"null","<p style=""font-size: 80px;"">+ 10 points</p>","null","html-keyboard-response","68","440071","0.0-11.0-2.67","5c4613f2b05faa0001d62023","hobuoy","KM","37","F","{""name"":""Chrome"",""chrome"":true,""version"":""106.0"",""blink"":true,""windows"":true,""osname"":""Windows"",""osversion"":""10"",""a"":true}","9:17:19","1","4","Test_3","74","j","1","1947.6000000000931","1920 x 1080","1920 x 1080","true","1","10","","","","",""
"null","<p style=""font-size: 80px;"">+ 10 points</p>","null","html-keyboard-response","69","443487","0.0-11.0-2.68","5c4613f2b05faa0001d62023","hobuoy","KM","37","F","{""name"":""Chrome"",""chrome"":true,""version"":""106.0"",""blink"":true,""windows"":true,""osname"":""Windows"",""osversion"":""10"",""a"":true}","9:17:19","1","4","Test_2","70","f","1","1411.5","1920 x 1080","1920 x 1080","true","1","10","","","","",""
"null","<p style=""font-size: 80px;"">+ 10 points</p>","null","html-keyboard-response","70","446126","0.0-11.0-2.69","5c4613f2b05faa0001d62023","hobuoy","KM","37","F","{""name"":""Chrome"",""chrome"":true,""version"":""106.0"",""blink"":true,""windows"":true,""osname"":""Windows"",""osversion"":""10"",""a"":true}","9:17:19","1","4","Test_2","70","f","1","635.5","1920 x 1080","1920 x 1080","true","1","10","","","","",""
"null","<p style=""font-size: 80px;"">+ 10 points</p>","null","html-keyboard-response","71","448920","0.0-11.0-2.70","5c4613f2b05faa0001d62023","hobuoy","KM","37","F","{""name"":""Chrome"",""chrome"":true,""version"":""106.0"",""blink"":true,""windows"":true,""osname"":""Windows"",""osversion"":""10"",""a"":true}","9:17:19","1","4","Test_1","74","j","1","788","1920 x 1080","1920 x 1080","true","1","10","","","","",""
"null","<p style=""font-size: 80px;"">+ 10 points</p>","null","html-keyboard-response","72","451816","0.0-11.0-2.71","5c4613f2b05faa0001d62023","hobuoy","KM","37","F","{""name"":""Chrome"",""chrome"":true,""version"":""106.0"",""blink"":true,""windows"":true,""osname"":""Windows"",""osversion"":""10"",""a"":true}","9:17:19","1","4","Test_4","70","f","1","890.2000000001863","1920 x 1080","1920 x 1080","true","1","10","","","","",""
"null","<p style=""font-size: 80px;"">+ 10 points</p>","null","html-keyboard-response","73","454480","0.0-11.0-2.72","5c4613f2b05faa0001d62023","hobuoy","KM","37","F","{""name"":""Chrome"",""chrome"":true,""version"":""106.0"",""blink"":true,""windows"":true,""osname"":""Windows"",""osversion"":""10"",""a"":true}","9:17:19","1","4","Test_4","70","f","1","659","1920 x 1080","1920 x 1080","true","1","10","","","","",""
"null","<p style=""font-size: 80px;"">+ 10 points</p>","null","html-keyboard-response","74","457158","0.0-11.0-2.73","5c4613f2b05faa0001d62023","hobuoy","KM","37","F","{""name"":""Chrome"",""chrome"":true,""version"":""106.0"",""blink"":true,""windows"":true,""osname"":""Windows"",""osversion"":""10"",""a"":true}","9:17:19","1","4","Test_1","74","j","1","674.1000000000931","1920 x 1080","1920 x 1080","true","1","10","","","","",""
"null","<p style=""font-size: 80px;"">+ 10 points</p>","null","html-keyboard-response","75","459831","0.0-11.0-2.74","5c4613f2b05faa0001d62023","hobuoy","KM","37","F","{""name"":""Chrome"",""chrome"":true,""version"":""106.0"",""blink"":true,""windows"":true,""osname"":""Windows"",""osversion"":""10"",""a"":true}","9:17:19","1","4","Test_4","70","f","1","667.3999999999069","1920 x 1080","1920 x 1080","true","1","10","","","","",""
"null","<p style=""font-size: 80px;"">+ 10 points</p>","null","html-keyboard-response","76","463023","0.0-11.0-2.75","5c4613f2b05faa0001d62023","hobuoy","KM","37","F","{""name"":""Chrome"",""chrome"":true,""version"":""106.0"",""blink"":true,""windows"":true,""osname"":""Windows"",""osversion"":""10"",""a"":true}","9:17:19","1","4","Test_2","70","f","1","1187.2999999998137","1920 x 1080","1920 x 1080","true","1","10","","","","",""
"null","<p style=""font-size: 80px;"">+ 10 points</p>","null","html-keyboard-response","77","465926","0.0-11.0-2.76","5c4613f2b05faa0001d62023","hobuoy","KM","37","F","{""name"":""Chrome"",""chrome"":true,""version"":""106.0"",""blink"":true,""windows"":true,""osname"":""Windows"",""osversion"":""10"",""a"":true}","9:17:19","1","4","Test_4","70","f","1","898.7000000001863","1920 x 1080","1920 x 1080","true","1","10","","","","",""
"null","<p style=""font-size: 80px;"">+ 10 points</p>","null","html-keyboard-response","78","469110","0.0-11.0-2.77","5c4613f2b05faa0001d62023","hobuoy","KM","37","F","{""name"":""Chrome"",""chrome"":true,""version"":""106.0"",""blink"":true,""windows"":true,""osname"":""Windows"",""osversion"":""10"",""a"":true}","9:17:19","1","4","Test_3","74","j","1","1179.5","1920 x 1080","1920 x 1080","true","1","10","","","","",""
"null","<p style=""font-size: 80px;"">+ 10 points</p>","null","html-keyboard-response","79","472318","0.0-11.0-2.78","5c4613f2b05faa0001d62023","hobuoy","KM","37","F","{""name"":""Chrome"",""chrome"":true,""version"":""106.0"",""blink"":true,""windows"":true,""osname"":""Windows"",""osversion"":""10"",""a"":true}","9:17:19","1","4","Test_4","70","f","1","1202.8999999999069","1920 x 1080","1920 x 1080","true","1","10","","","","",""
"null","<p style=""font-size: 80px;"">+ 10 points</p>","null","html-keyboard-response","80","475558","0.0-11.0-2.79","5c4613f2b05faa0001d62023","hobuoy","KM","37","F","{""name"":""Chrome"",""chrome"":true,""version"":""106.0"",""blink"":true,""windows"":true,""osname"":""Windows"",""osversion"":""10"",""a"":true}","9:17:19","1","4","Test_2","70","f","1","1235.5","1920 x 1080","1920 x 1080","true","1","10","","","","",""
"null","<p style=""font-size: 80px;"">+ 10 points</p>","null","html-keyboard-response","81","478262","0.0-11.0-2.80","5c4613f2b05faa0001d62023","hobuoy","KM","37","F","{""name"":""Chrome"",""chrome"":true,""version"":""106.0"",""blink"":true,""windows"":true,""osname"":""Windows"",""osversion"":""10"",""a"":true}","9:17:19","1","4","Test_3","74","j","1","700.1999999997206","1920 x 1080","1920 x 1080","true","1","10","","","","",""
"null","<p style=""font-size: 80px;"">+ 0 points</p>","null","html-keyboard-response","82","480902","0.0-11.0-2.81","5c4613f2b05faa0001d62023","hobuoy","KM","37","F","{""name"":""Chrome"",""chrome"":true,""version"":""106.0"",""blink"":true,""windows"":true,""osname"":""Windows"",""osversion"":""10"",""a"":true}","9:17:19","1","3","Test_2","70","j","0","635.6000000000931","1920 x 1080","1920 x 1080","true","1","0","","","","",""
"null","<p style=""font-size: 80px;"">+ 10 points</p>","null","html-keyboard-response","83","484021","0.0-11.0-2.82","5c4613f2b05faa0001d62023","hobuoy","KM","37","F","{""name"":""Chrome"",""chrome"":true,""version"":""106.0"",""blink"":true,""windows"":true,""osname"":""Windows"",""osversion"":""10"",""a"":true}","9:17:19","1","3","Test_4","74","j","1","1114.7000000001863","1920 x 1080","1920 x 1080","true","1","10","","","","",""
"null","<p style=""font-size: 80px;"">+ 10 points</p>","null","html-keyboard-response","84","487108","0.0-11.0-2.83","5c4613f2b05faa0001d62023","hobuoy","KM","37","F","{""name"":""Chrome"",""chrome"":true,""version"":""106.0"",""blink"":true,""windows"":true,""osname"":""Windows"",""osversion"":""10"",""a"":true}","9:17:19","1","3","Test_4","74","j","1","1083.7000000001863","1920 x 1080","1920 x 1080","true","1","10","","","","",""
"null","<p style=""font-size: 80px;"">+ 10 points</p>","null","html-keyboard-response","85","490501","0.0-11.0-2.84","5c4613f2b05faa0001d62023","hobuoy","KM","37","F","{""name"":""Chrome"",""chrome"":true,""version"":""106.0"",""blink"":true,""windows"":true,""osname"":""Windows"",""osversion"":""10"",""a"":true}","9:17:19","1","3","Test_1","70","f","1","1387.5","1920 x 1080","1920 x 1080","true","1","10","","","","",""
"null","<p style=""font-size: 80px;"">+ 10 points</p>","null","html-keyboard-response","86","493380","0.0-11.0-2.85","5c4613f2b05faa0001d62023","hobuoy","KM","37","F","{""name"":""Chrome"",""chrome"":true,""version"":""106.0"",""blink"":true,""windows"":true,""osname"":""Windows"",""osversion"":""10"",""a"":true}","9:17:19","1","3","Test_2","74","j","1","875.2999999998137","1920 x 1080","1920 x 1080","true","1","10","","","","",""
"null","<p style=""font-size: 80px;"">+ 10 points</p>","null","html-keyboard-response","87","496205","0.0-11.0-2.86","5c4613f2b05faa0001d62023","hobuoy","KM","37","F","{""name"":""Chrome"",""chrome"":true,""version"":""106.0"",""blink"":true,""windows"":true,""osname"":""Windows"",""osversion"":""10"",""a"":true}","9:17:19","1","3","Test_1","70","f","1","820.6999999997206","1920 x 1080","1920 x 1080","true","1","10","","","","",""
"null","<p style=""font-size: 80px;"">+ 10 points</p>","null","html-keyboard-response","88","499149","0.0-11.0-2.87","5c4613f2b05faa0001d62023","hobuoy","KM","37","F","{""name"":""Chrome"",""chrome"":true,""version"":""106.0"",""blink"":true,""windows"":true,""osname"":""Windows"",""osversion"":""10"",""a"":true}","9:17:19","1","3","Test_3","70","f","1","939.0999999996275","1920 x 1080","1920 x 1080","true","1","10","","","","",""
"null","<p style=""font-size: 80px;"">+ 10 points</p>","null","html-keyboard-response","89","502422","0.0-11.0-2.88","5c4613f2b05faa0001d62023","hobuoy","KM","37","F","{""name"":""Chrome"",""chrome"":true,""version"":""106.0"",""blink"":true,""windows"":true,""osname"":""Windows"",""osversion"":""10"",""a"":true}","9:17:19","1","3","Test_4","74","j","1","1268.2999999998137","1920 x 1080","1920 x 1080","true","1","10","","","","",""
"null","<p style=""font-size: 80px;"">+ 10 points</p>","null","html-keyboard-response","90","505884","0.0-11.0-2.89","5c4613f2b05faa0001d62023","hobuoy","KM","37","F","{""name"":""Chrome"",""chrome"":true,""version"":""106.0"",""blink"":true,""windows"":true,""osname"":""Windows"",""osversion"":""10"",""a"":true}","9:17:19","1","3","Test_1","70","f","1","1457.5999999996275","1920 x 1080","1920 x 1080","true","1","10","","","","",""
"null","<p style=""font-size: 80px;"">+ 10 points</p>","null","html-keyboard-response","91","508637","0.0-11.0-2.90","5c4613f2b05faa0001d62023","hobuoy","KM","37","F","{""name"":""Chrome"",""chrome"":true,""version"":""106.0"",""blink"":true,""windows"":true,""osname"":""Windows"",""osversion"":""10"",""a"":true}","9:17:19","1","3","Test_1","70","f","1","747.9000000003725","1920 x 1080","1920 x 1080","true","1","10","","","","",""
"null","<p style=""font-size: 80px;"">+ 10 points</p>","null","html-keyboard-response","92","511565","0.0-11.0-2.91","5c4613f2b05faa0001d62023","hobuoy","KM","37","F","{""name"":""Chrome"",""chrome"":true,""version"":""106.0"",""blink"":true,""windows"":true,""osname"":""Windows"",""osversion"":""10"",""a"":true}","9:17:19","1","3","Test_4","74","j","1","922","1920 x 1080","1920 x 1080","true","1","10","","","","",""
"null","<p style=""font-size: 80px;"">+ 10 points</p>","null","html-keyboard-response","93","514413","0.0-11.0-2.92","5c4613f2b05faa0001d62023","hobuoy","KM","37","F","{""name"":""Chrome"",""chrome"":true,""version"":""106.0"",""blink"":true,""windows"":true,""osname"":""Windows"",""osversion"":""10"",""a"":true}","9:17:19","1","3","Test_1","70","f","1","842.6000000000931","1920 x 1080","1920 x 1080","true","1","10","","","","",""
"null","<p style=""font-size: 80px;"">+ 10 points</p>","null","html-keyboard-response","94","517091","0.0-11.0-2.93","5c4613f2b05faa0001d62023","hobuoy","KM","37","F","{""name"":""Chrome"",""chrome"":true,""version"":""106.0"",""blink"":true,""windows"":true,""osname"":""Windows"",""osversion"":""10"",""a"":true}","9:17:19","1","3","Test_2","74","j","1","674.7000000001863","1920 x 1080","1920 x 1080","true","1","10","","","","",""
"null","<p style=""font-size: 80px;"">+ 10 points</p>","null","html-keyboard-response","95","519804","0.0-11.0-2.94","5c4613f2b05faa0001d62023","hobuoy","KM","37","F","{""name"":""Chrome"",""chrome"":true,""version"":""106.0"",""blink"":true,""windows"":true,""osname"":""Windows"",""osversion"":""10"",""a"":true}","9:17:19","1","3","Test_2","74","j","1","708.8999999999069","1920 x 1080","1920 x 1080","true","1","10","","","","",""
"null","<p style=""font-size: 80px;"">+ 10 points</p>","null","html-keyboard-response","96","522468","0.0-11.0-2.95","5c4613f2b05faa0001d62023","hobuoy","KM","37","F","{""name"":""Chrome"",""chrome"":true,""version"":""106.0"",""blink"":true,""windows"":true,""osname"":""Windows"",""osversion"":""10"",""a"":true}","9:17:19","1","3","Test_3","70","f","1","659","1920 x 1080","1920 x 1080","true","1","10","","","","",""
"null","<p style=""font-size: 80px;"">+ 10 points</p>","null","html-keyboard-response","97","525059","0.0-11.0-2.96","5c4613f2b05faa0001d62023","hobuoy","KM","37","F","{""name"":""Chrome"",""chrome"":true,""version"":""106.0"",""blink"":true,""windows"":true,""osname"":""Windows"",""osversion"":""10"",""a"":true}","9:17:19","1","3","Test_3","70","f","1","587.1999999997206","1920 x 1080","1920 x 1080","true","1","10","","","","",""
"null","<p style=""font-size: 80px;"">+ 10 points</p>","null","html-keyboard-response","98","527924","0.0-11.0-2.97","5c4613f2b05faa0001d62023","hobuoy","KM","37","F","{""name"":""Chrome"",""chrome"":true,""version"":""106.0"",""blink"":true,""windows"":true,""osname"":""Windows"",""osversion"":""10"",""a"":true}","9:17:19","1","3","Test_4","74","j","1","858.5","1920 x 1080","1920 x 1080","true","1","10","","","","",""
"null","<p style=""font-size: 80px;"">+ 10 points</p>","null","html-keyboard-response","99","530603","0.0-11.0-2.98","5c4613f2b05faa0001d62023","hobuoy","KM","37","F","{""name"":""Chrome"",""chrome"":true,""version"":""106.0"",""blink"":true,""windows"":true,""osname"":""Windows"",""osversion"":""10"",""a"":true}","9:17:19","1","3","Test_3","70","f","1","674.7999999998137","1920 x 1080","1920 x 1080","true","1","10","","","","",""
"null","<p style=""font-size: 80px;"">+ 10 points</p>","null","html-keyboard-response","100","533636","0.0-11.0-2.99","5c4613f2b05faa0001d62023","hobuoy","KM","37","F","{""name"":""Chrome"",""chrome"":true,""version"":""106.0"",""blink"":true,""windows"":true,""osname"":""Windows"",""osversion"":""10"",""a"":true}","9:17:19","1","3","Test_2","74","j","1","1027.6000000000931","1920 x 1080","1920 x 1080","true","1","10","","","","",""
"null","<p style=""font-size: 80px;"">+ 0 points</p>","null","html-keyboard-response","101","536219","0.0-11.0-2.100","5c4613f2b05faa0001d62023","hobuoy","KM","37","F","{""name"":""Chrome"",""chrome"":true,""version"":""106.0"",""blink"":true,""windows"":true,""osname"":""Windows"",""osversion"":""10"",""a"":true}","9:17:19","1","4","Test_3","70","j","0","579","1920 x 1080","1920 x 1080","true","1","0","","","","",""
"null","<p style=""font-size: 80px;"">+ 10 points</p>","null","html-keyboard-response","102","538828","0.0-11.0-2.101","5c4613f2b05faa0001d62023","hobuoy","KM","37","F","{""name"":""Chrome"",""chrome"":true,""version"":""106.0"",""blink"":true,""windows"":true,""osname"":""Windows"",""osversion"":""10"",""a"":true}","9:17:19","1","4","Test_2","70","f","1","603.3000000002794","1920 x 1080","1920 x 1080","true","1","10","","","","",""
"null","<p style=""font-size: 80px;"">+ 10 points</p>","null","html-keyboard-response","103","542635","0.0-11.0-2.102","5c4613f2b05faa0001d62023","hobuoy","KM","37","F","{""name"":""Chrome"",""chrome"":true,""version"":""106.0"",""blink"":true,""windows"":true,""osname"":""Windows"",""osversion"":""10"",""a"":true}","9:17:19","1","4","Test_4","70","f","1","1802.7000000001863","1920 x 1080","1920 x 1080","true","1","10","","","","",""
"null","<p style=""font-size: 80px;"">+ 10 points</p>","null","html-keyboard-response","104","545284","0.0-11.0-2.103","5c4613f2b05faa0001d62023","hobuoy","KM","37","F","{""name"":""Chrome"",""chrome"":true,""version"":""106.0"",""blink"":true,""windows"":true,""osname"":""Windows"",""osversion"":""10"",""a"":true}","9:17:19","1","4","Test_3","74","j","1","643.7999999998137","1920 x 1080","1920 x 1080","true","1","10","","","","",""
"null","<p style=""font-size: 80px;"">+ 10 points</p>","null","html-keyboard-response","105","547900","0.0-11.0-2.104","5c4613f2b05faa0001d62023","hobuoy","KM","37","F","{""name"":""Chrome"",""chrome"":true,""version"":""106.0"",""blink"":true,""windows"":true,""osname"":""Windows"",""osversion"":""10"",""a"":true}","9:17:19","1","4","Test_3","74","j","1","611.2000000001863","1920 x 1080","1920 x 1080","true","1","10","","","","",""
"null","<p style=""font-size: 80px;"">+ 10 points</p>","null","html-keyboard-response","106","550795","0.0-11.0-2.105","5c4613f2b05faa0001d62023","hobuoy","KM","37","F","{""name"":""Chrome"",""chrome"":true,""version"":""106.0"",""blink"":true,""windows"":true,""osname"":""Windows"",""osversion"":""10"",""a"":true}","9:17:19","1","4","Test_1","74","j","1","891.8000000002794","1920 x 1080","1920 x 1080","true","1","10","","","","",""
"null","<p style=""font-size: 80px;"">+ 10 points</p>","null","html-keyboard-response","107","553427","0.0-11.0-2.106","5c4613f2b05faa0001d62023","hobuoy","KM","37","F","{""name"":""Chrome"",""chrome"":true,""version"":""106.0"",""blink"":true,""windows"":true,""osname"":""Windows"",""osversion"":""10"",""a"":true}","9:17:19","1","4","Test_3","74","j","1","628.4000000003725","1920 x 1080","1920 x 1080","true","1","10","","","","",""
"null","<p style=""font-size: 80px;"">+ 10 points</p>","null","html-keyboard-response","108","557427","0.0-11.0-2.107","5c4613f2b05faa0001d62023","hobuoy","KM","37","F","{""name"":""Chrome"",""chrome"":true,""version"":""106.0"",""blink"":true,""windows"":true,""osname"":""Windows"",""osversion"":""10"",""a"":true}","9:17:19","1","4","Test_1","74","j","1","1995.5","1920 x 1080","1920 x 1080","true","1","10","","","","",""
"null","<p style=""font-size: 80px;"">+ 10 points</p>","null","html-keyboard-response","109","560283","0.0-11.0-2.108","5c4613f2b05faa0001d62023","hobuoy","KM","37","F","{""name"":""Chrome"",""chrome"":true,""version"":""106.0"",""blink"":true,""windows"":true,""osname"":""Windows"",""osversion"":""10"",""a"":true}","9:17:19","1","4","Test_2","70","f","1","851.2000000001863","1920 x 1080","1920 x 1080","true","1","10","","","","",""
"null","<p style=""font-size: 80px;"">+ 10 points</p>","null","html-keyboard-response","110","578858","0.0-11.0-2.109","5c4613f2b05faa0001d62023","hobuoy","KM","37","F","{""name"":""Chrome"",""chrome"":true,""version"":""106.0"",""blink"":true,""windows"":true,""osname"":""Windows"",""osversion"":""10"",""a"":true}","9:17:19","1","4","Test_1","74","j","1","2377.1999999997206","1920 x 1080","1920 x 1080","true","1","10","","","","",""
"null","<p style=""font-size: 80px;"">+ 10 points</p>","null","html-keyboard-response","111","581475","0.0-11.0-2.110","5c4613f2b05faa0001d62023","hobuoy","KM","37","F","{""name"":""Chrome"",""chrome"":true,""version"":""106.0"",""blink"":true,""windows"":true,""osname"":""Windows"",""osversion"":""10"",""a"":true}","9:17:19","1","4","Test_2","70","f","1","612.2999999998137","1920 x 1080","1920 x 1080","true","1","10","","","","",""
"null","<p style=""font-size: 80px;"">+ 10 points</p>","null","html-keyboard-response","112","584427","0.0-11.0-2.111","5c4613f2b05faa0001d62023","hobuoy","KM","37","F","{""name"":""Chrome"",""chrome"":true,""version"":""106.0"",""blink"":true,""windows"":true,""osname"":""Windows"",""osversion"":""10"",""a"":true}","9:17:19","1","4","Test_2","70","f","1","946.3000000002794","1920 x 1080","1920 x 1080","true","1","10","","","","",""
"null","<p style=""font-size: 80px;"">+ 0 points</p>","null","html-keyboard-response","113","587146","0.0-11.0-2.112","5c4613f2b05faa0001d62023","hobuoy","KM","37","F","{""name"":""Chrome"",""chrome"":true,""version"":""106.0"",""blink"":true,""windows"":true,""osname"":""Windows"",""osversion"":""10"",""a"":true}","9:17:19","1","4","Test_4","74","f","0","714.2999999998137","1920 x 1080","1920 x 1080","true","1","0","","","","",""
"null","<p style=""font-size: 80px;"">+ 10 points</p>","null","html-keyboard-response","114","590306","0.0-11.0-2.113","5c4613f2b05faa0001d62023","hobuoy","KM","37","F","{""name"":""Chrome"",""chrome"":true,""version"":""106.0"",""blink"":true,""windows"":true,""osname"":""Windows"",""osversion"":""10"",""a"":true}","9:17:19","1","4","Test_4","70","f","1","1155.6000000000931","1920 x 1080","1920 x 1080","true","1","10","","","","",""
"null","<p style=""font-size: 80px;"">+ 10 points</p>","null","html-keyboard-response","115","593354","0.0-11.0-2.114","5c4613f2b05faa0001d62023","hobuoy","KM","37","F","{""name"":""Chrome"",""chrome"":true,""version"":""106.0"",""blink"":true,""windows"":true,""osname"":""Windows"",""osversion"":""10"",""a"":true}","9:17:19","1","4","Test_4","70","f","1","1043.1000000000931","1920 x 1080","1920 x 1080","true","1","10","","","","",""
"null","<p style=""font-size: 80px;"">+ 10 points</p>","null","html-keyboard-response","116","595986","0.0-11.0-2.115","5c4613f2b05faa0001d62023","hobuoy","KM","37","F","{""name"":""Chrome"",""chrome"":true,""version"":""106.0"",""blink"":true,""windows"":true,""osname"":""Windows"",""osversion"":""10"",""a"":true}","9:17:19","1","4","Test_4","70","f","1","627.1000000000931","1920 x 1080","1920 x 1080","true","1","10","","","","",""
"null","<p style=""font-size: 80px;"">+ 10 points</p>","null","html-keyboard-response","117","598730","0.0-11.0-2.116","5c4613f2b05faa0001d62023","hobuoy","KM","37","F","{""name"":""Chrome"",""chrome"":true,""version"":""106.0"",""blink"":true,""windows"":true,""osname"":""Windows"",""osversion"":""10"",""a"":true}","9:17:19","1","4","Test_2","70","f","1","739.3000000002794","1920 x 1080","1920 x 1080","true","1","10","","","","",""
"null","<p style=""font-size: 80px;"">+ 10 points</p>","null","html-keyboard-response","118","601425","0.0-11.0-2.117","5c4613f2b05faa0001d62023","hobuoy","KM","37","F","{""name"":""Chrome"",""chrome"":true,""version"":""106.0"",""blink"":true,""windows"":true,""osname"":""Windows"",""osversion"":""10"",""a"":true}","9:17:19","1","4","Test_3","74","j","1","690.7999999998137","1920 x 1080","1920 x 1080","true","1","10","","","","",""
"null","<p style=""font-size: 80px;"">+ 10 points</p>","null","html-keyboard-response","119","604969","0.0-11.0-2.118","5c4613f2b05faa0001d62023","hobuoy","KM","37","F","{""name"":""Chrome"",""chrome"":true,""version"":""106.0"",""blink"":true,""windows"":true,""osname"":""Windows"",""osversion"":""10"",""a"":true}","9:17:19","1","4","Test_1","74","j","1","1540.7999999998137","1920 x 1080","1920 x 1080","true","1","10","","","","",""
"null","<p style=""font-size: 80px;"">+ 0 points</p>","null","html-keyboard-response","120","607640","0.0-11.0-2.119","5c4613f2b05faa0001d62023","hobuoy","KM","37","F","{""name"":""Chrome"",""chrome"":true,""version"":""106.0"",""blink"":true,""windows"":true,""osname"":""Windows"",""osversion"":""10"",""a"":true}","9:17:19","1","3","Test_1","74","f","0","667.5999999996275","1920 x 1080","1920 x 1080","true","1","0","","","","",""
"null","<p style=""font-size: 80px;"">+ 10 points</p>","null","html-keyboard-response","121","610960","0.0-11.0-2.120","5c4613f2b05faa0001d62023","hobuoy","KM","37","F","{""name"":""Chrome"",""chrome"":true,""version"":""106.0"",""blink"":true,""windows"":true,""osname"":""Windows"",""osversion"":""10"",""a"":true}","9:17:19","1","3","Test_4","74","j","1","1315.0999999996275","1920 x 1080","1920 x 1080","true","1","10","","","","",""
"null","<p style=""font-size: 80px;"">+ 10 points</p>","null","html-keyboard-response","122","614305","0.0-11.0-2.121","5c4613f2b05faa0001d62023","hobuoy","KM","37","F","{""name"":""Chrome"",""chrome"":true,""version"":""106.0"",""blink"":true,""windows"":true,""osname"":""Windows"",""osversion"":""10"",""a"":true}","9:17:19","1","3","Test_3","70","f","1","1339.3000000002794","1920 x 1080","1920 x 1080","true","1","10","","","","",""
"null","<p style=""font-size: 80px;"">+ 10 points</p>","null","html-keyboard-response","123","617104","0.0-11.0-2.122","5c4613f2b05faa0001d62023","hobuoy","KM","37","F","{""name"":""Chrome"",""chrome"":true,""version"":""106.0"",""blink"":true,""windows"":true,""osname"":""Windows"",""osversion"":""10"",""a"":true}","9:17:19","1","3","Test_3","70","f","1","795.2000000001863","1920 x 1080","1920 x 1080","true","1","10","","","","",""
"null","<p style=""font-size: 80px;"">+ 10 points</p>","null","html-keyboard-response","124","620032","0.0-11.0-2.123","5c4613f2b05faa0001d62023","hobuoy","KM","37","F","{""name"":""Chrome"",""chrome"":true,""version"":""106.0"",""blink"":true,""windows"":true,""osname"":""Windows"",""osversion"":""10"",""a"":true}","9:17:19","1","3","Test_2","74","j","1","924.3999999999069","1920 x 1080","1920 x 1080","true","1","10","","","","",""
"null","<p style=""font-size: 80px;"">+ 10 points</p>","null","html-keyboard-response","125","623009","0.0-11.0-2.124","5c4613f2b05faa0001d62023","hobuoy","KM","37","F","{""name"":""Chrome"",""chrome"":true,""version"":""106.0"",""blink"":true,""windows"":true,""osname"":""Windows"",""osversion"":""10"",""a"":true}","9:17:19","1","3","Test_3","70","f","1","971.2999999998137","1920 x 1080","1920 x 1080","true","1","10","","","","",""
"null","<p style=""font-size: 80px;"">+ 10 points</p>","null","html-keyboard-response","126","626232","0.0-11.0-2.125","5c4613f2b05faa0001d62023","hobuoy","KM","37","F","{""name"":""Chrome"",""chrome"":true,""version"":""106.0"",""blink"":true,""windows"":true,""osname"":""Windows"",""osversion"":""10"",""a"":true}","9:17:19","1","3","Test_4","74","j","1","1218.2000000001863","1920 x 1080","1920 x 1080","true","1","10","","","","",""
"null","<p style=""font-size: 80px;"">+ 10 points</p>","null","html-keyboard-response","127","629888","0.0-11.0-2.126","5c4613f2b05faa0001d62023","hobuoy","KM","37","F","{""name"":""Chrome"",""chrome"":true,""version"":""106.0"",""blink"":true,""windows"":true,""osname"":""Windows"",""osversion"":""10"",""a"":true}","9:17:19","1","3","Test_4","74","j","1","1651.8000000002794","1920 x 1080","1920 x 1080","true","1","10","","","","",""
"null","<p style=""font-size: 80px;"">+ 10 points</p>","null","html-keyboard-response","128","632825","0.0-11.0-2.127","5c4613f2b05faa0001d62023","hobuoy","KM","37","F","{""name"":""Chrome"",""chrome"":true,""version"":""106.0"",""blink"":true,""windows"":true,""osname"":""Windows"",""osversion"":""10"",""a"":true}","9:17:19","1","3","Test_2","74","j","1","931.7999999998137","1920 x 1080","1920 x 1080","true","1","10","","","","",""
"null","<p style=""font-size: 80px;"">+ 10 points</p>","null","html-keyboard-response","129","636528","0.0-11.0-2.128","5c4613f2b05faa0001d62023","hobuoy","KM","37","F","{""name"":""Chrome"",""chrome"":true,""version"":""106.0"",""blink"":true,""windows"":true,""osname"":""Windows"",""osversion"":""10"",""a"":true}","9:17:19","1","3","Test_3","70","f","1","1699","1920 x 1080","1920 x 1080","true","1","10","","","","",""
"null","<p style=""font-size: 80px;"">+ 10 points</p>","null","html-keyboard-response","130","639592","0.0-11.0-2.129","5c4613f2b05faa0001d62023","hobuoy","KM","37","F","{""name"":""Chrome"",""chrome"":true,""version"":""106.0"",""blink"":true,""windows"":true,""osname"":""Windows"",""osversion"":""10"",""a"":true}","9:17:19","1","3","Test_1","70","f","1","1059.4000000003725","1920 x 1080","1920 x 1080","true","1","10","","","","",""
"null","<p style=""font-size: 80px;"">+ 10 points</p>","null","html-keyboard-response","131","642448","0.0-11.0-2.130","5c4613f2b05faa0001d62023","hobuoy","KM","37","F","{""name"":""Chrome"",""chrome"":true,""version"":""106.0"",""blink"":true,""windows"":true,""osname"":""Windows"",""osversion"":""10"",""a"":true}","9:17:19","1","3","Test_4","74","j","1","851.2000000001863","1920 x 1080","1920 x 1080","true","1","10","","","","",""
"null","<p style=""font-size: 80px;"">+ 10 points</p>","null","html-keyboard-response","132","645264","0.0-11.0-2.131","5c4613f2b05faa0001d62023","hobuoy","KM","37","F","{""name"":""Chrome"",""chrome"":true,""version"":""106.0"",""blink"":true,""windows"":true,""osname"":""Windows"",""osversion"":""10"",""a"":true}","9:17:19","1","3","Test_4","74","j","1","811.1000000000931","1920 x 1080","1920 x 1080","true","1","10","","","","",""
"null","<p style=""font-size: 80px;"">+ 10 points</p>","null","html-keyboard-response","133","648329","0.0-11.0-2.132","5c4613f2b05faa0001d62023","hobuoy","KM","37","F","{""name"":""Chrome"",""chrome"":true,""version"":""106.0"",""blink"":true,""windows"":true,""osname"":""Windows"",""osversion"":""10"",""a"":true}","9:17:19","1","3","Test_3","70","f","1","1057.7999999998137","1920 x 1080","1920 x 1080","true","1","10","","","","",""
"null","<p style=""font-size: 80px;"">+ 10 points</p>","null","html-keyboard-response","134","651040","0.0-11.0-2.133","5c4613f2b05faa0001d62023","hobuoy","KM","37","F","{""name"":""Chrome"",""chrome"":true,""version"":""106.0"",""blink"":true,""windows"":true,""osname"":""Windows"",""osversion"":""10"",""a"":true}","9:17:19","1","3","Test_1","70","f","1","706.7999999998137","1920 x 1080","1920 x 1080","true","1","10","","","","",""
"null","<p style=""font-size: 80px;"">+ 10 points</p>","null","html-keyboard-response","135","653976","0.0-11.0-2.134","5c4613f2b05faa0001d62023","hobuoy","KM","37","F","{""name"":""Chrome"",""chrome"":true,""version"":""106.0"",""blink"":true,""windows"":true,""osname"":""Windows"",""osversion"":""10"",""a"":true}","9:17:19","1","3","Test_2","74","j","1","932","1920 x 1080","1920 x 1080","true","1","10","","","","",""
"null","<p style=""font-size: 80px;"">+ 10 points</p>","null","html-keyboard-response","136","656728","0.0-11.0-2.135","5c4613f2b05faa0001d62023","hobuoy","KM","37","F","{""name"":""Chrome"",""chrome"":true,""version"":""106.0"",""blink"":true,""windows"":true,""osname"":""Windows"",""osversion"":""10"",""a"":true}","9:17:19","1","3","Test_2","74","j","1","747.1999999997206","1920 x 1080","1920 x 1080","true","1","10","","","","",""
"null","<p style=""font-size: 80px;"">+ 10 points</p>","null","html-keyboard-response","137","659535","0.0-11.0-2.136","5c4613f2b05faa0001d62023","hobuoy","KM","37","F","{""name"":""Chrome"",""chrome"":true,""version"":""106.0"",""blink"":true,""windows"":true,""osname"":""Windows"",""osversion"":""10"",""a"":true}","9:17:19","1","3","Test_2","74","j","1","802.6000000000931","1920 x 1080","1920 x 1080","true","1","10","","","","",""
"null","<p style=""font-size: 80px;"">+ 10 points</p>","null","html-keyboard-response","138","662200","0.0-11.0-2.137","5c4613f2b05faa0001d62023","hobuoy","KM","37","F","{""name"":""Chrome"",""chrome"":true,""version"":""106.0"",""blink"":true,""windows"":true,""osname"":""Windows"",""osversion"":""10"",""a"":true}","9:17:19","1","3","Test_1","70","f","1","659.3999999999069","1920 x 1080","1920 x 1080","true","1","10","","","","",""
"null","<p style=""font-size: 80px;"">+ 0 points</p>","null","html-keyboard-response","139","665135","0.0-11.0-2.138","5c4613f2b05faa0001d62023","hobuoy","KM","37","F","{""name"":""Chrome"",""chrome"":true,""version"":""106.0"",""blink"":true,""windows"":true,""osname"":""Windows"",""osversion"":""10"",""a"":true}","9:17:19","1","4","Test_3","70","j","0","930.5","1920 x 1080","1920 x 1080","true","1","0","","","","",""
"null","<p style=""font-size: 80px;"">+ 10 points</p>","null","html-keyboard-response","140","668071","0.0-11.0-2.139","5c4613f2b05faa0001d62023","hobuoy","KM","37","F","{""name"":""Chrome"",""chrome"":true,""version"":""106.0"",""blink"":true,""windows"":true,""osname"":""Windows"",""osversion"":""10"",""a"":true}","9:17:19","1","4","Test_4","70","f","1","931.6999999997206","1920 x 1080","1920 x 1080","true","1","10","","","","",""
"null","<p style=""font-size: 80px;"">+ 10 points</p>","null","html-keyboard-response","141","671271","0.0-11.0-2.140","5c4613f2b05faa0001d62023","hobuoy","KM","37","F","{""name"":""Chrome"",""chrome"":true,""version"":""106.0"",""blink"":true,""windows"":true,""osname"":""Windows"",""osversion"":""10"",""a"":true}","9:17:19","1","4","Test_4","70","f","1","1194.7000000001863","1920 x 1080","1920 x 1080","true","1","10","","","","",""
"null","<p style=""font-size: 80px;"">+ 10 points</p>","null","html-keyboard-response","142","673911","0.0-11.0-2.141","5c4613f2b05faa0001d62023","hobuoy","KM","37","F","{""name"":""Chrome"",""chrome"":true,""version"":""106.0"",""blink"":true,""windows"":true,""osname"":""Windows"",""osversion"":""10"",""a"":true}","9:17:19","1","4","Test_2","70","f","1","635.3999999999069","1920 x 1080","1920 x 1080","true","1","10","","","","",""
"null","<p style=""font-size: 80px;"">+ 10 points</p>","null","html-keyboard-response","143","677015","0.0-11.0-2.142","5c4613f2b05faa0001d62023","hobuoy","KM","37","F","{""name"":""Chrome"",""chrome"":true,""version"":""106.0"",""blink"":true,""windows"":true,""osname"":""Windows"",""osversion"":""10"",""a"":true}","9:17:19","1","4","Test_4","70","f","1","1099.5","1920 x 1080","1920 x 1080","true","1","10","","","","",""
"null","<p style=""font-size: 80px;"">+ 10 points</p>","null","html-keyboard-response","144","680047","0.0-11.0-2.143","5c4613f2b05faa0001d62023","hobuoy","KM","37","F","{""name"":""Chrome"",""chrome"":true,""version"":""106.0"",""blink"":true,""windows"":true,""osname"":""Windows"",""osversion"":""10"",""a"":true}","9:17:19","1","4","Test_1","74","j","1","1026.6000000000931","1920 x 1080","1920 x 1080","true","1","10","","","","",""
"null","<p style=""font-size: 80px;"">+ 10 points</p>","null","html-keyboard-response","145","683374","0.0-11.0-2.144","5c4613f2b05faa0001d62023","hobuoy","KM","37","F","{""name"":""Chrome"",""chrome"":true,""version"":""106.0"",""blink"":true,""windows"":true,""osname"":""Windows"",""osversion"":""10"",""a"":true}","9:17:19","1","4","Test_1","74","j","1","1323.2999999998137","1920 x 1080","1920 x 1080","true","1","10","","","","",""
"null","<p style=""font-size: 80px;"">+ 10 points</p>","null","html-keyboard-response","146","686279","0.0-11.0-2.145","5c4613f2b05faa0001d62023","hobuoy","KM","37","F","{""name"":""Chrome"",""chrome"":true,""version"":""106.0"",""blink"":true,""windows"":true,""osname"":""Windows"",""osversion"":""10"",""a"":true}","9:17:19","1","4","Test_3","74","j","1","898.6000000000931","1920 x 1080","1920 x 1080","true","1","10","","","","",""
"null","<p style=""font-size: 80px;"">+ 10 points</p>","null","html-keyboard-response","147","688942","0.0-11.0-2.146","5c4613f2b05faa0001d62023","hobuoy","KM","37","F","{""name"":""Chrome"",""chrome"":true,""version"":""106.0"",""blink"":true,""windows"":true,""osname"":""Windows"",""osversion"":""10"",""a"":true}","9:17:19","1","4","Test_3","74","j","1","656.8999999999069","1920 x 1080","1920 x 1080","true","1","10","","","","",""
"null","<p style=""font-size: 80px;"">+ 10 points</p>","null","html-keyboard-response","148","691638","0.0-11.0-2.147","5c4613f2b05faa0001d62023","hobuoy","KM","37","F","{""name"":""Chrome"",""chrome"":true,""version"":""106.0"",""blink"":true,""windows"":true,""osname"":""Windows"",""osversion"":""10"",""a"":true}","9:17:19","1","4","Test_2","70","f","1","691.5","1920 x 1080","1920 x 1080","true","1","10","","","","",""
"null","<p style=""font-size: 80px;"">+ 10 points</p>","null","html-keyboard-response","149","694198","0.0-11.0-2.148","5c4613f2b05faa0001d62023","hobuoy","KM","37","F","{""name"":""Chrome"",""chrome"":true,""version"":""106.0"",""blink"":true,""windows"":true,""osname"":""Windows"",""osversion"":""10"",""a"":true}","9:17:19","1","4","Test_2","70","f","1","555.1000000000931","1920 x 1080","1920 x 1080","true","1","10","","","","",""
"null","<p style=""font-size: 80px;"">+ 10 points</p>","null","html-keyboard-response","150","696870","0.0-11.0-2.149","5c4613f2b05faa0001d62023","hobuoy","KM","37","F","{""name"":""Chrome"",""chrome"":true,""version"":""106.0"",""blink"":true,""windows"":true,""osname"":""Windows"",""osversion"":""10"",""a"":true}","9:17:19","1","4","Test_3","74","j","1","667.3000000002794","1920 x 1080","1920 x 1080","true","1","10","","","","",""
"null","<p style=""font-size: 80px;"">+ 10 points</p>","null","html-keyboard-response","151","699934","0.0-11.0-2.150","5c4613f2b05faa0001d62023","hobuoy","KM","37","F","{""name"":""Chrome"",""chrome"":true,""version"":""106.0"",""blink"":true,""windows"":true,""osname"":""Windows"",""osversion"":""10"",""a"":true}","9:17:19","1","4","Test_1","74","j","1","1060.3999999999069","1920 x 1080","1920 x 1080","true","1","10","","","","",""
"null","<p style=""font-size: 80px;"">+ 10 points</p>","null","html-keyboard-response","152","703253","0.0-11.0-2.151","5c4613f2b05faa0001d62023","hobuoy","KM","37","F","{""name"":""Chrome"",""chrome"":true,""version"":""106.0"",""blink"":true,""windows"":true,""osname"":""Windows"",""osversion"":""10"",""a"":true}","9:17:19","1","4","Test_1","74","j","1","1315.2999999998137","1920 x 1080","1920 x 1080","true","1","10","","","","",""
"null","<p style=""font-size: 80px;"">+ 10 points</p>","null","html-keyboard-response","153","706254","0.0-11.0-2.152","5c4613f2b05faa0001d62023","hobuoy","KM","37","F","{""name"":""Chrome"",""chrome"":true,""version"":""106.0"",""blink"":true,""windows"":true,""osname"":""Windows"",""osversion"":""10"",""a"":true}","9:17:19","1","4","Test_1","74","j","1","996.6000000000931","1920 x 1080","1920 x 1080","true","1","10","","","","",""
"null","<p style=""font-size: 80px;"">+ 10 points</p>","null","html-keyboard-response","154","709100","0.0-11.0-2.153","5c4613f2b05faa0001d62023","hobuoy","KM","37","F","{""name"":""Chrome"",""chrome"":true,""version"":""106.0"",""blink"":true,""windows"":true,""osname"":""Windows"",""osversion"":""10"",""a"":true}","9:17:19","1","4","Test_4","70","f","1","843.0999999996275","1920 x 1080","1920 x 1080","true","1","10","","","","",""
"null","<p style=""font-size: 80px;"">+ 10 points</p>","null","html-keyboard-response","155","711949","0.0-11.0-2.154","5c4613f2b05faa0001d62023","hobuoy","KM","37","F","{""name"":""Chrome"",""chrome"":true,""version"":""106.0"",""blink"":true,""windows"":true,""osname"":""Windows"",""osversion"":""10"",""a"":true}","9:17:19","1","4","Test_1","74","j","1","844","1920 x 1080","1920 x 1080","true","1","10","","","","",""
"null","<p style=""font-size: 80px;"">+ 10 points</p>","null","html-keyboard-response","156","715068","0.0-11.0-2.155","5c4613f2b05faa0001d62023","hobuoy","KM","37","F","{""name"":""Chrome"",""chrome"":true,""version"":""106.0"",""blink"":true,""windows"":true,""osname"":""Windows"",""osversion"":""10"",""a"":true}","9:17:19","1","4","Test_2","70","f","1","1116.4000000003725","1920 x 1080","1920 x 1080","true","1","10","","","","",""
"null","<p style=""font-size: 80px;"">+ 10 points</p>","null","html-keyboard-response","157","718173","0.0-11.0-2.156","5c4613f2b05faa0001d62023","hobuoy","KM","37","F","{""name"":""Chrome"",""chrome"":true,""version"":""106.0"",""blink"":true,""windows"":true,""osname"":""Windows"",""osversion"":""10"",""a"":true}","9:17:19","1","4","Test_2","70","f","1","1100.2999999998137","1920 x 1080","1920 x 1080","true","1","10","","","","",""
"null","<p style=""font-size: 80px;"">+ 10 points</p>","null","html-keyboard-response","158","720957","0.0-11.0-2.157","5c4613f2b05faa0001d62023","hobuoy","KM","37","F","{""name"":""Chrome"",""chrome"":true,""version"":""106.0"",""blink"":true,""windows"":true,""osname"":""Windows"",""osversion"":""10"",""a"":true}","9:17:19","1","4","Test_3","74","j","1","779.0999999996275","1920 x 1080","1920 x 1080","true","1","10","","","","",""
"null","<p style=""font-size: 80px;"">+ 10 points</p>","null","html-keyboard-response","159","723869","0.0-11.0-2.158","5c4613f2b05faa0001d62023","hobuoy","KM","37","F","{""name"":""Chrome"",""chrome"":true,""version"":""106.0"",""blink"":true,""windows"":true,""osname"":""Windows"",""osversion"":""10"",""a"":true}","9:17:19","1","4","Test_3","74","j","1","908","1920 x 1080","1920 x 1080","true","1","10","","","","",""
"null","<p style=""font-size: 80px;"">+ 10 points</p>","null","html-keyboard-response","160","726742","0.0-11.0-2.159","5c4613f2b05faa0001d62023","hobuoy","KM","37","F","{""name"":""Chrome"",""chrome"":true,""version"":""106.0"",""blink"":true,""windows"":true,""osname"":""Windows"",""osversion"":""10"",""a"":true}","9:17:19","1","4","Test_4","70","f","1","867.3000000002794","1920 x 1080","1920 x 1080","true","1","10","","","","",""
"null","<p style=""font-size: 80px;"">+ 10 points</p>","null","html-keyboard-response","161","729637","0.0-11.0-2.160","5c4613f2b05faa0001d62023","hobuoy","KM","37","F","{""name"":""Chrome"",""chrome"":true,""version"":""106.0"",""blink"":true,""windows"":true,""osname"":""Windows"",""osversion"":""10"",""a"":true}","9:17:19","1","4","Test_4","70","f","1","891.2000000001863","1920 x 1080","1920 x 1080","true","1","10","","","","",""
"null","<p style=""font-size: 80px;"">+ 0 points</p>","null","html-keyboard-response","162","732517","0.0-11.0-2.161","5c4613f2b05faa0001d62023","hobuoy","KM","37","F","{""name"":""Chrome"",""chrome"":true,""version"":""106.0"",""blink"":true,""windows"":true,""osname"":""Windows"",""osversion"":""10"",""a"":true}","9:17:19","1","3","Test_2","70","j","0","875.8000000002794","1920 x 1080","1920 x 1080","true","1","0","","","","",""
"null","<p style=""font-size: 80px;"">+ 10 points</p>","null","html-keyboard-response","163","735605","0.0-11.0-2.162","5c4613f2b05faa0001d62023","hobuoy","KM","37","F","{""name"":""Chrome"",""chrome"":true,""version"":""106.0"",""blink"":true,""windows"":true,""osname"":""Windows"",""osversion"":""10"",""a"":true}","9:17:19","1","3","Test_1","70","f","1","1083.6000000000931","1920 x 1080","1920 x 1080","true","1","10","","","","",""
"null","<p style=""font-size: 80px;"">+ 10 points</p>","null","html-keyboard-response","164","738588","0.0-11.0-2.163","5c4613f2b05faa0001d62023","hobuoy","KM","37","F","{""name"":""Chrome"",""chrome"":true,""version"":""106.0"",""blink"":true,""windows"":true,""osname"":""Windows"",""osversion"":""10"",""a"":true}","9:17:19","1","3","Test_1","70","f","1","980.2999999998137","1920 x 1080","1920 x 1080","true","1","10","","","","",""
"null","<p style=""font-size: 80px;"">+ 10 points</p>","null","html-keyboard-response","165","741244","0.0-11.0-2.164","5c4613f2b05faa0001d62023","hobuoy","KM","37","F","{""name"":""Chrome"",""chrome"":true,""version"":""106.0"",""blink"":true,""windows"":true,""osname"":""Windows"",""osversion"":""10"",""a"":true}","9:17:19","1","3","Test_1","70","f","1","652.1999999997206","1920 x 1080","1920 x 1080","true","1","10","","","","",""
"null","<p style=""font-size: 80px;"">+ 10 points</p>","null","html-keyboard-response","166","744132","0.0-11.0-2.165","5c4613f2b05faa0001d62023","hobuoy","KM","37","F","{""name"":""Chrome"",""chrome"":true,""version"":""106.0"",""blink"":true,""windows"":true,""osname"":""Windows"",""osversion"":""10"",""a"":true}","9:17:19","1","3","Test_3","70","f","1","883.6999999997206","1920 x 1080","1920 x 1080","true","1","10","","","","",""
"null","<p style=""font-size: 80px;"">+ 10 points</p>","null","html-keyboard-response","167","746596","0.0-11.0-2.166","5c4613f2b05faa0001d62023","hobuoy","KM","37","F","{""name"":""Chrome"",""chrome"":true,""version"":""106.0"",""blink"":true,""windows"":true,""osname"":""Windows"",""osversion"":""10"",""a"":true}","9:17:19","1","3","Test_3","70","f","1","460.10000000009313","1920 x 1080","1920 x 1080","true","1","10","","","","",""
"null","<p style=""font-size: 80px;"">+ 10 points</p>","null","html-keyboard-response","168","749252","0.0-11.0-2.167","5c4613f2b05faa0001d62023","hobuoy","KM","37","F","{""name"":""Chrome"",""chrome"":true,""version"":""106.0"",""blink"":true,""windows"":true,""osname"":""Windows"",""osversion"":""10"",""a"":true}","9:17:19","1","3","Test_4","74","j","1","651.2999999998137","1920 x 1080","1920 x 1080","true","1","10","","","","",""
"null","<p style=""font-size: 80px;"">+ 10 points</p>","null","html-keyboard-response","169","752981","0.0-11.0-2.168","5c4613f2b05faa0001d62023","hobuoy","KM","37","F","{""name"":""Chrome"",""chrome"":true,""version"":""106.0"",""blink"":true,""windows"":true,""osname"":""Windows"",""osversion"":""10"",""a"":true}","9:17:19","1","3","Test_2","74","j","1","1724","1920 x 1080","1920 x 1080","true","1","10","","","","",""
"null","<p style=""font-size: 80px;"">+ 10 points</p>","null","html-keyboard-response","170","755836","0.0-11.0-2.169","5c4613f2b05faa0001d62023","hobuoy","KM","37","F","{""name"":""Chrome"",""chrome"":true,""version"":""106.0"",""blink"":true,""windows"":true,""osname"":""Windows"",""osversion"":""10"",""a"":true}","9:17:19","1","3","Test_3","70","f","1","851.2000000001863","1920 x 1080","1920 x 1080","true","1","10","","","","",""
"null","<p style=""font-size: 80px;"">+ 10 points</p>","null","html-keyboard-response","171","759053","0.0-11.0-2.170","5c4613f2b05faa0001d62023","hobuoy","KM","37","F","{""name"":""Chrome"",""chrome"":true,""version"":""106.0"",""blink"":true,""windows"":true,""osname"":""Windows"",""osversion"":""10"",""a"":true}","9:17:19","1","3","Test_1","70","f","1","1212.2999999998137","1920 x 1080","1920 x 1080","true","1","10","","","","",""
"null","<p style=""font-size: 80px;"">+ 10 points</p>","null","html-keyboard-response","172","762092","0.0-11.0-2.171","5c4613f2b05faa0001d62023","hobuoy","KM","37","F","{""name"":""Chrome"",""chrome"":true,""version"":""106.0"",""blink"":true,""windows"":true,""osname"":""Windows"",""osversion"":""10"",""a"":true}","9:17:19","1","3","Test_2","74","j","1","1034.4000000003725","1920 x 1080","1920 x 1080","true","1","10","","","","",""
"null","<p style=""font-size: 80px;"">+ 10 points</p>","null","html-keyboard-response","173","765300","0.0-11.0-2.172","5c4613f2b05faa0001d62023","hobuoy","KM","37","F","{""name"":""Chrome"",""chrome"":true,""version"":""106.0"",""blink"":true,""windows"":true,""osname"":""Windows"",""osversion"":""10"",""a"":true}","9:17:19","1","3","Test_4","74","j","1","1203.8999999999069","1920 x 1080","1920 x 1080","true","1","10","","","","",""
"null","<p style=""font-size: 80px;"">+ 10 points</p>","null","html-keyboard-response","174","769676","0.0-11.0-2.173","5c4613f2b05faa0001d62023","hobuoy","KM","37","F","{""name"":""Chrome"",""chrome"":true,""version"":""106.0"",""blink"":true,""windows"":true,""osname"":""Windows"",""osversion"":""10"",""a"":true}","9:17:19","1","3","Test_1","70","f","1","2371.6999999997206","1920 x 1080","1920 x 1080","true","1","10","","","","",""
"null","<p style=""font-size: 80px;"">+ 10 points</p>","null","html-keyboard-response","175","773428","0.0-11.0-2.174","5c4613f2b05faa0001d62023","hobuoy","KM","37","F","{""name"":""Chrome"",""chrome"":true,""version"":""106.0"",""blink"":true,""windows"":true,""osname"":""Windows"",""osversion"":""10"",""a"":true}","9:17:19","1","3","Test_4","74","j","1","1746.3999999999069","1920 x 1080","1920 x 1080","true","1","10","","","","",""
"null","<p style=""font-size: 80px;"">+ 10 points</p>","null","html-keyboard-response","176","776220","0.0-11.0-2.175","5c4613f2b05faa0001d62023","hobuoy","KM","37","F","{""name"":""Chrome"",""chrome"":true,""version"":""106.0"",""blink"":true,""windows"":true,""osname"":""Windows"",""osversion"":""10"",""a"":true}","9:17:19","1","3","Test_3","70","f","1","787.6000000000931","1920 x 1080","1920 x 1080","true","1","10","","","","",""
"null","<p style=""font-size: 80px;"">+ 10 points</p>","null","html-keyboard-response","177","778970","0.0-11.0-2.176","5c4613f2b05faa0001d62023","hobuoy","KM","37","F","{""name"":""Chrome"",""chrome"":true,""version"":""106.0"",""blink"":true,""windows"":true,""osname"":""Windows"",""osversion"":""10"",""a"":true}","9:17:19","1","3","Test_4","74","j","1","747.6999999997206","1920 x 1080","1920 x 1080","true","1","10","","","","",""
"null","<p style=""font-size: 80px;"">+ 10 points</p>","null","html-keyboard-response","178","781531","0.0-11.0-2.177","5c4613f2b05faa0001d62023","hobuoy","KM","37","F","{""name"":""Chrome"",""chrome"":true,""version"":""106.0"",""blink"":true,""windows"":true,""osname"":""Windows"",""osversion"":""10"",""a"":true}","9:17:19","1","3","Test_3","70","f","1","556.5","1920 x 1080","1920 x 1080","true","1","10","","","","",""
"null","<p style=""font-size: 80px;"">+ 10 points</p>","null","html-keyboard-response","179","784348","0.0-11.0-2.178","5c4613f2b05faa0001d62023","hobuoy","KM","37","F","{""name"":""Chrome"",""chrome"":true,""version"":""106.0"",""blink"":true,""windows"":true,""osname"":""Windows"",""osversion"":""10"",""a"":true}","9:17:19","1","3","Test_2","74","j","1","812","1920 x 1080","1920 x 1080","true","1","10","","","","",""
"null","<p style=""font-size: 80px;"">+ 10 points</p>","null","html-keyboard-response","180","787028","0.0-11.0-2.179","5c4613f2b05faa0001d62023","hobuoy","KM","37","F","{""name"":""Chrome"",""chrome"":true,""version"":""106.0"",""blink"":true,""windows"":true,""osname"":""Windows"",""osversion"":""10"",""a"":true}","9:17:19","1","3","Test_2","74","j","1","674.6999999997206","1920 x 1080","1920 x 1080","true","1","10","","","","",""
"null","<p style=""font-size: 80px;"">+ 0 points</p>","null","html-keyboard-response","181","789851","0.0-11.0-2.180","5c4613f2b05faa0001d62023","hobuoy","KM","37","F","{""name"":""Chrome"",""chrome"":true,""version"":""106.0"",""blink"":true,""windows"":true,""osname"":""Windows"",""osversion"":""10"",""a"":true}","9:17:19","1","4","Test_4","74","f","0","818.3999999999069","1920 x 1080","1920 x 1080","true","1","0","","","","",""
"null","<p style=""font-size: 80px;"">+ 10 points</p>","null","html-keyboard-response","182","792650","0.0-11.0-2.181","5c4613f2b05faa0001d62023","hobuoy","KM","37","F","{""name"":""Chrome"",""chrome"":true,""version"":""106.0"",""blink"":true,""windows"":true,""osname"":""Windows"",""osversion"":""10"",""a"":true}","9:17:19","1","4","Test_3","74","j","1","795.3999999999069","1920 x 1080","1920 x 1080","true","1","10","","","","",""
"null","<p style=""font-size: 80px;"">+ 10 points</p>","null","html-keyboard-response","183","795274","0.0-11.0-2.182","5c4613f2b05faa0001d62023","hobuoy","KM","37","F","{""name"":""Chrome"",""chrome"":true,""version"":""106.0"",""blink"":true,""windows"":true,""osname"":""Windows"",""osversion"":""10"",""a"":true}","9:17:19","1","4","Test_4","70","f","1","619.7000000001863","1920 x 1080","1920 x 1080","true","1","10","","","","",""
"null","<p style=""font-size: 80px;"">+ 10 points</p>","null","html-keyboard-response","184","797795","0.0-11.0-2.183","5c4613f2b05faa0001d62023","hobuoy","KM","37","F","{""name"":""Chrome"",""chrome"":true,""version"":""106.0"",""blink"":true,""windows"":true,""osname"":""Windows"",""osversion"":""10"",""a"":true}","9:17:19","1","4","Test_3","74","j","1","516.6999999997206","1920 x 1080","1920 x 1080","true","1","10","","","","",""
"null","<p style=""font-size: 80px;"">+ 10 points</p>","null","html-keyboard-response","185","801867","0.0-11.0-2.184","5c4613f2b05faa0001d62023","hobuoy","KM","37","F","{""name"":""Chrome"",""chrome"":true,""version"":""106.0"",""blink"":true,""windows"":true,""osname"":""Windows"",""osversion"":""10"",""a"":true}","9:17:19","1","4","Test_4","70","f","1","2067.3000000002794","1920 x 1080","1920 x 1080","true","1","10","","","","",""
"null","<p style=""font-size: 80px;"">+ 10 points</p>","null","html-keyboard-response","186","804626","0.0-11.0-2.185","5c4613f2b05faa0001d62023","hobuoy","KM","37","F","{""name"":""Chrome"",""chrome"":true,""version"":""106.0"",""blink"":true,""windows"":true,""osname"":""Windows"",""osversion"":""10"",""a"":true}","9:17:19","1","4","Test_4","70","f","1","755.5","1920 x 1080","1920 x 1080","true","1","10","","","","",""
"null","<p style=""font-size: 80px;"">+ 10 points</p>","null","html-keyboard-response","187","807361","0.0-11.0-2.186","5c4613f2b05faa0001d62023","hobuoy","KM","37","F","{""name"":""Chrome"",""chrome"":true,""version"":""106.0"",""blink"":true,""windows"":true,""osname"":""Windows"",""osversion"":""10"",""a"":true}","9:17:19","1","4","Test_3","74","j","1","731.8000000002794","1920 x 1080","1920 x 1080","true","1","10","","","","",""
"null","<p style=""font-size: 80px;"">+ 10 points</p>","null","html-keyboard-response","188","810546","0.0-11.0-2.187","5c4613f2b05faa0001d62023","hobuoy","KM","37","F","{""name"":""Chrome"",""chrome"":true,""version"":""106.0"",""blink"":true,""windows"":true,""osname"":""Windows"",""osversion"":""10"",""a"":true}","9:17:19","1","4","Test_1","74","j","1","1180.3999999999069","1920 x 1080","1920 x 1080","true","1","10","","","","",""
