"rt","stimulus","key_press","trial_type","trial_index","time_elapsed","internal_node_id","Prolific_ID","random_ID","initials","age","gender","pc_info","start_time","Phase","Rule","Stimulus","Response","CorrResp","Accuracy","ResponseTime","screen_resolution","window_resolution","focus","relevant","Points","responses","question_order","rev_check","butterfly_check","passed_practice"
"null","<p style=""font-size: 80px;"">+ 10 points</p>","null","html-keyboard-response","1","123455","0.0-7.0-2.0","5f3ec6221b5af3158bc86acd","d1873j","MD","20","F","{""name"":""Chrome"",""chrome"":true,""version"":""106.0"",""blink"":true,""windows"":true,""osname"":""Windows"",""osversion"":""10"",""a"":true}","9:22:17","0","1","Practice_1","70","f","1","679.8999998569489","1536 x 864","1536 x 864","true","1","10","","","","",""
"null","<p style=""font-size: 80px;"">+ 0 points</p>","null","html-keyboard-response","2","126107","0.0-7.0-2.1","5f3ec6221b5af3158bc86acd","d1873j","MD","20","F","{""name"":""Chrome"",""chrome"":true,""version"":""106.0"",""blink"":true,""windows"":true,""osname"":""Windows"",""osversion"":""10"",""a"":true}","9:22:17","0","1","Practice_2","70","j","0","650.0999999046326","1536 x 864","1536 x 864","true","1","0","","","","",""
"null","<p style=""font-size: 80px;"">+ 10 points</p>","null","html-keyboard-response","3","129216","0.0-7.0-2.2","5f3ec6221b5af3158bc86acd","d1873j","MD","20","F","{""name"":""Chrome"",""chrome"":true,""version"":""106.0"",""blink"":true,""windows"":true,""osname"":""Windows"",""osversion"":""10"",""a"":true}","9:22:17","0","1","Practice_3","70","f","1","1102","1536 x 864","1536 x 864","true","1","10","","","","",""
"null","<p style=""font-size: 80px;"">+ 10 points</p>","null","html-keyboard-response","4","131709","0.0-7.0-2.3","5f3ec6221b5af3158bc86acd","d1873j","MD","20","F","{""name"":""Chrome"",""chrome"":true,""version"":""106.0"",""blink"":true,""windows"":true,""osname"":""Windows"",""osversion"":""10"",""a"":true}","9:22:17","0","1","Practice_3","70","f","1","489.69999980926514","1536 x 864","1536 x 864","true","1","10","","","","",""
"null","<p style=""font-size: 80px;"">+ 0 points</p>","null","html-keyboard-response","5","134484","0.0-7.0-2.4","5f3ec6221b5af3158bc86acd","d1873j","MD","20","F","{""name"":""Chrome"",""chrome"":true,""version"":""106.0"",""blink"":true,""windows"":true,""osname"":""Windows"",""osversion"":""10"",""a"":true}","9:22:17","0","1","Practice_2","70","j","0","771.3000001907349","1536 x 864","1536 x 864","true","1","0","","","","",""
"null","<p style=""font-size: 80px;"">+ 0 points</p>","null","html-keyboard-response","6","137079","0.0-7.0-2.5","5f3ec6221b5af3158bc86acd","d1873j","MD","20","F","{""name"":""Chrome"",""chrome"":true,""version"":""106.0"",""blink"":true,""windows"":true,""osname"":""Windows"",""osversion"":""10"",""a"":true}","9:22:17","0","1","Practice_3","74","f","0","581.5","1536 x 864","1536 x 864","true","1","0","","","","",""
"null","<p style=""font-size: 80px;"">+ 10 points</p>","null","html-keyboard-response","7","139947","0.0-7.0-2.6","5f3ec6221b5af3158bc86acd","d1873j","MD","20","F","{""name"":""Chrome"",""chrome"":true,""version"":""106.0"",""blink"":true,""windows"":true,""osname"":""Windows"",""osversion"":""10"",""a"":true}","9:22:17","0","1","Practice_4","74","j","1","850.2999999523163","1536 x 864","1536 x 864","true","1","10","","","","",""
"null","<p style=""font-size: 80px;"">+ 0 points</p>","null","html-keyboard-response","8","142715","0.0-7.0-2.7","5f3ec6221b5af3158bc86acd","d1873j","MD","20","F","{""name"":""Chrome"",""chrome"":true,""version"":""106.0"",""blink"":true,""windows"":true,""osname"":""Windows"",""osversion"":""10"",""a"":true}","9:22:17","0","1","Practice_4","70","j","0","763.5","1536 x 864","1536 x 864","true","1","0","","","","",""
"null","<p style=""font-size: 80px;"">+ 10 points</p>","null","html-keyboard-response","9","145266","0.0-7.0-2.8","5f3ec6221b5af3158bc86acd","d1873j","MD","20","F","{""name"":""Chrome"",""chrome"":true,""version"":""106.0"",""blink"":true,""windows"":true,""osname"":""Windows"",""osversion"":""10"",""a"":true}","9:22:17","0","1","Practice_1","70","f","1","540.4000000953674","1536 x 864","1536 x 864","true","1","10","","","","",""
"null","<p style=""font-size: 80px;"">+ 10 points</p>","null","html-keyboard-response","10","147872","0.0-7.0-2.9","5f3ec6221b5af3158bc86acd","d1873j","MD","20","F","{""name"":""Chrome"",""chrome"":true,""version"":""106.0"",""blink"":true,""windows"":true,""osname"":""Windows"",""osversion"":""10"",""a"":true}","9:22:17","0","1","Practice_2","74","j","1","596.2000000476837","1536 x 864","1536 x 864","true","1","10","","","","",""
"null","<p style=""font-size: 80px;"">+ 0 points</p>","null","html-keyboard-response","11","150523","0.0-7.0-2.10","5f3ec6221b5af3158bc86acd","d1873j","MD","20","F","{""name"":""Chrome"",""chrome"":true,""version"":""106.0"",""blink"":true,""windows"":true,""osname"":""Windows"",""osversion"":""10"",""a"":true}","9:22:17","0","1","Practice_4","70","j","0","641.7999999523163","1536 x 864","1536 x 864","true","1","0","","","","",""
"null","<p style=""font-size: 80px;"">+ 10 points</p>","null","html-keyboard-response","12","153100","0.0-7.0-2.11","5f3ec6221b5af3158bc86acd","d1873j","MD","20","F","{""name"":""Chrome"",""chrome"":true,""version"":""106.0"",""blink"":true,""windows"":true,""osname"":""Windows"",""osversion"":""10"",""a"":true}","9:22:17","0","1","Practice_4","74","j","1","573.7999999523163","1536 x 864","1536 x 864","true","1","10","","","","",""
"null","<p style=""font-size: 80px;"">+ 10 points</p>","null","html-keyboard-response","13","155576","0.0-7.0-2.12","5f3ec6221b5af3158bc86acd","d1873j","MD","20","F","{""name"":""Chrome"",""chrome"":true,""version"":""106.0"",""blink"":true,""windows"":true,""osname"":""Windows"",""osversion"":""10"",""a"":true}","9:22:17","0","1","Practice_4","74","j","1","472.7999999523163","1536 x 864","1536 x 864","true","1","10","","","","",""
"null","<p style=""font-size: 80px;"">+ 10 points</p>","null","html-keyboard-response","14","158013","0.0-7.0-2.13","5f3ec6221b5af3158bc86acd","d1873j","MD","20","F","{""name"":""Chrome"",""chrome"":true,""version"":""106.0"",""blink"":true,""windows"":true,""osname"":""Windows"",""osversion"":""10"",""a"":true}","9:22:17","0","1","Practice_1","70","f","1","421.7999999523163","1536 x 864","1536 x 864","true","1","10","","","","",""
"null","<p style=""font-size: 80px;"">+ 10 points</p>","null","html-keyboard-response","15","160395","0.0-7.0-2.14","5f3ec6221b5af3158bc86acd","d1873j","MD","20","F","{""name"":""Chrome"",""chrome"":true,""version"":""106.0"",""blink"":true,""windows"":true,""osname"":""Windows"",""osversion"":""10"",""a"":true}","9:22:17","0","1","Practice_1","70","f","1","371.09999990463257","1536 x 864","1536 x 864","true","1","10","","","","",""
"null","<p style=""font-size: 80px;"">+ 0 points</p>","null","html-keyboard-response","16","162770","0.0-7.0-2.15","5f3ec6221b5af3158bc86acd","d1873j","MD","20","F","{""name"":""Chrome"",""chrome"":true,""version"":""106.0"",""blink"":true,""windows"":true,""osname"":""Windows"",""osversion"":""10"",""a"":true}","9:22:17","0","1","Practice_3","74","f","0","364.60000014305115","1536 x 864","1536 x 864","true","1","0","","","","",""
"null","<p style=""font-size: 80px;"">+ 0 points</p>","null","html-keyboard-response","17","165321","0.0-7.0-2.16","5f3ec6221b5af3158bc86acd","d1873j","MD","20","F","{""name"":""Chrome"",""chrome"":true,""version"":""106.0"",""blink"":true,""windows"":true,""osname"":""Windows"",""osversion"":""10"",""a"":true}","9:22:17","0","1","Practice_2","70","j","0","546.9000000953674","1536 x 864","1536 x 864","true","1","0","","","","",""
"null","<p style=""font-size: 80px;"">+ 10 points</p>","null","html-keyboard-response","18","167879","0.0-7.0-2.17","5f3ec6221b5af3158bc86acd","d1873j","MD","20","F","{""name"":""Chrome"",""chrome"":true,""version"":""106.0"",""blink"":true,""windows"":true,""osname"":""Windows"",""osversion"":""10"",""a"":true}","9:22:17","0","1","Practice_1","70","f","1","556.4000000953674","1536 x 864","1536 x 864","true","1","10","","","","",""
"null","<p style=""font-size: 80px;"">+ 10 points</p>","null","html-keyboard-response","19","170529","0.0-7.0-2.18","5f3ec6221b5af3158bc86acd","d1873j","MD","20","F","{""name"":""Chrome"",""chrome"":true,""version"":""106.0"",""blink"":true,""windows"":true,""osname"":""Windows"",""osversion"":""10"",""a"":true}","9:22:17","0","1","Practice_2","74","j","1","643.5999999046326","1536 x 864","1536 x 864","true","1","10","","","","",""
"null","<p style=""font-size: 80px;"">+ 10 points</p>","null","html-keyboard-response","20","173285","0.0-7.0-2.19","5f3ec6221b5af3158bc86acd","d1873j","MD","20","F","{""name"":""Chrome"",""chrome"":true,""version"":""106.0"",""blink"":true,""windows"":true,""osname"":""Windows"",""osversion"":""10"",""a"":true}","9:22:17","0","1","Practice_3","70","f","1","749.7000000476837","1536 x 864","1536 x 864","true","1","10","","","","",""
"null","<p style=""font-size: 80px;"">+ 0 points</p>","null","html-keyboard-response","21","176043","0.0-7.0-2.20","5f3ec6221b5af3158bc86acd","d1873j","MD","20","F","{""name"":""Chrome"",""chrome"":true,""version"":""106.0"",""blink"":true,""windows"":true,""osname"":""Windows"",""osversion"":""10"",""a"":true}","9:22:17","0","2","Practice_1","70","j","0","742.9000000953674","1536 x 864","1536 x 864","true","1","0","","","","",""
"null","<p style=""font-size: 80px;"">+ 0 points</p>","null","html-keyboard-response","22","178582","0.0-7.0-2.21","5f3ec6221b5af3158bc86acd","d1873j","MD","20","F","{""name"":""Chrome"",""chrome"":true,""version"":""106.0"",""blink"":true,""windows"":true,""osname"":""Windows"",""osversion"":""10"",""a"":true}","9:22:17","0","2","Practice_4","74","f","0","516.7999999523163","1536 x 864","1536 x 864","true","1","0","","","","",""
"null","<p style=""font-size: 80px;"">+ 0 points</p>","null","html-keyboard-response","23","181238","0.0-7.0-2.22","5f3ec6221b5af3158bc86acd","d1873j","MD","20","F","{""name"":""Chrome"",""chrome"":true,""version"":""106.0"",""blink"":true,""windows"":true,""osname"":""Windows"",""osversion"":""10"",""a"":true}","9:22:17","0","2","Practice_2","74","f","0","647.5999999046326","1536 x 864","1536 x 864","true","1","0","","","","",""
"null","<p style=""font-size: 80px;"">+ 10 points</p>","null","html-keyboard-response","24","183988","0.0-7.0-2.23","5f3ec6221b5af3158bc86acd","d1873j","MD","20","F","{""name"":""Chrome"",""chrome"":true,""version"":""106.0"",""blink"":true,""windows"":true,""osname"":""Windows"",""osversion"":""10"",""a"":true}","9:22:17","0","2","Practice_1","74","j","1","736.3999998569489","1536 x 864","1536 x 864","true","1","10","","","","",""
"null","<p style=""font-size: 80px;"">+ 10 points</p>","null","html-keyboard-response","25","186750","0.0-7.0-2.24","5f3ec6221b5af3158bc86acd","d1873j","MD","20","F","{""name"":""Chrome"",""chrome"":true,""version"":""106.0"",""blink"":true,""windows"":true,""osname"":""Windows"",""osversion"":""10"",""a"":true}","9:22:17","0","2","Practice_4","70","f","1","743.3999998569489","1536 x 864","1536 x 864","true","1","10","","","","",""
"null","<p style=""font-size: 80px;"">+ 0 points</p>","null","html-keyboard-response","26","189402","0.0-7.0-2.25","5f3ec6221b5af3158bc86acd","d1873j","MD","20","F","{""name"":""Chrome"",""chrome"":true,""version"":""106.0"",""blink"":true,""windows"":true,""osname"":""Windows"",""osversion"":""10"",""a"":true}","9:22:17","0","2","Practice_2","74","f","0","642.5","1536 x 864","1536 x 864","true","1","0","","","","",""
"null","<p style=""font-size: 80px;"">+ 0 points</p>","null","html-keyboard-response","27","192168","0.0-7.0-2.26","5f3ec6221b5af3158bc86acd","d1873j","MD","20","F","{""name"":""Chrome"",""chrome"":true,""version"":""106.0"",""blink"":true,""windows"":true,""osname"":""Windows"",""osversion"":""10"",""a"":true}","9:22:17","0","2","Practice_3","70","j","0","747.1000001430511","1536 x 864","1536 x 864","true","1","0","","","","",""
"null","<p style=""font-size: 80px;"">+ 10 points</p>","null","html-keyboard-response","28","194596","0.0-7.0-2.27","5f3ec6221b5af3158bc86acd","d1873j","MD","20","F","{""name"":""Chrome"",""chrome"":true,""version"":""106.0"",""blink"":true,""windows"":true,""osname"":""Windows"",""osversion"":""10"",""a"":true}","9:22:17","0","2","Practice_3","74","j","1","421.5","1536 x 864","1536 x 864","true","1","10","","","","",""
"null","<p style=""font-size: 80px;"">+ 0 points</p>","null","html-keyboard-response","29","197173","0.0-7.0-2.28","5f3ec6221b5af3158bc86acd","d1873j","MD","20","F","{""name"":""Chrome"",""chrome"":true,""version"":""106.0"",""blink"":true,""windows"":true,""osname"":""Windows"",""osversion"":""10"",""a"":true}","9:22:17","0","2","Practice_4","74","f","0","564.5","1536 x 864","1536 x 864","true","1","0","","","","",""
"null","<p style=""font-size: 80px;"">+ 0 points</p>","null","html-keyboard-response","30","199755","0.0-7.0-2.29","5f3ec6221b5af3158bc86acd","d1873j","MD","20","F","{""name"":""Chrome"",""chrome"":true,""version"":""106.0"",""blink"":true,""windows"":true,""osname"":""Windows"",""osversion"":""10"",""a"":true}","9:22:17","0","2","Practice_2","74","f","0","579.0999999046326","1536 x 864","1536 x 864","true","1","0","","","","",""
"null","<p style=""font-size: 80px;"">+ 0 points</p>","null","html-keyboard-response","31","202405","0.0-7.0-2.30","5f3ec6221b5af3158bc86acd","d1873j","MD","20","F","{""name"":""Chrome"",""chrome"":true,""version"":""106.0"",""blink"":true,""windows"":true,""osname"":""Windows"",""osversion"":""10"",""a"":true}","9:22:17","0","2","Practice_3","70","j","0","639","1536 x 864","1536 x 864","true","1","0","","","","",""
"null","<p style=""font-size: 80px;"">+ 10 points</p>","null","html-keyboard-response","32","205358","0.0-7.0-2.31","5f3ec6221b5af3158bc86acd","d1873j","MD","20","F","{""name"":""Chrome"",""chrome"":true,""version"":""106.0"",""blink"":true,""windows"":true,""osname"":""Windows"",""osversion"":""10"",""a"":true}","9:22:17","0","2","Practice_2","70","f","1","941.1000001430511","1536 x 864","1536 x 864","true","1","10","","","","",""
"null","<p style=""font-size: 80px;"">+ 10 points</p>","null","html-keyboard-response","33","208234","0.0-7.0-2.32","5f3ec6221b5af3158bc86acd","d1873j","MD","20","F","{""name"":""Chrome"",""chrome"":true,""version"":""106.0"",""blink"":true,""windows"":true,""osname"":""Windows"",""osversion"":""10"",""a"":true}","9:22:17","0","2","Practice_1","74","j","1","862.2999999523163","1536 x 864","1536 x 864","true","1","10","","","","",""
"null","<p style=""font-size: 80px;"">+ 10 points</p>","null","html-keyboard-response","34","211050","0.0-7.0-2.33","5f3ec6221b5af3158bc86acd","d1873j","MD","20","F","{""name"":""Chrome"",""chrome"":true,""version"":""106.0"",""blink"":true,""windows"":true,""osname"":""Windows"",""osversion"":""10"",""a"":true}","9:22:17","0","2","Practice_4","70","f","1","806.1000001430511","1536 x 864","1536 x 864","true","1","10","","","","",""
"null","<p style=""font-size: 80px;"">+ 10 points</p>","null","html-keyboard-response","35","213750","0.0-7.0-2.34","5f3ec6221b5af3158bc86acd","d1873j","MD","20","F","{""name"":""Chrome"",""chrome"":true,""version"":""106.0"",""blink"":true,""windows"":true,""osname"":""Windows"",""osversion"":""10"",""a"":true}","9:22:17","0","2","Practice_1","74","j","1","667.5","1536 x 864","1536 x 864","true","1","10","","","","",""
"null","<p style=""font-size: 80px;"">+ 10 points</p>","null","html-keyboard-response","36","216446","0.0-7.0-2.35","5f3ec6221b5af3158bc86acd","d1873j","MD","20","F","{""name"":""Chrome"",""chrome"":true,""version"":""106.0"",""blink"":true,""windows"":true,""osname"":""Windows"",""osversion"":""10"",""a"":true}","9:22:17","0","2","Practice_3","74","j","1","677","1536 x 864","1536 x 864","true","1","10","","","","",""
"null","<p style=""font-size: 80px;"">+ 10 points</p>","null","html-keyboard-response","37","219169","0.0-7.0-2.36","5f3ec6221b5af3158bc86acd","d1873j","MD","20","F","{""name"":""Chrome"",""chrome"":true,""version"":""106.0"",""blink"":true,""windows"":true,""osname"":""Windows"",""osversion"":""10"",""a"":true}","9:22:17","0","2","Practice_4","70","f","1","699.1999998092651","1536 x 864","1536 x 864","true","1","10","","","","",""
"null","<p style=""font-size: 80px;"">+ 10 points</p>","null","html-keyboard-response","38","221697","0.0-7.0-2.37","5f3ec6221b5af3158bc86acd","d1873j","MD","20","F","{""name"":""Chrome"",""chrome"":true,""version"":""106.0"",""blink"":true,""windows"":true,""osname"":""Windows"",""osversion"":""10"",""a"":true}","9:22:17","0","2","Practice_1","74","j","1","500","1536 x 864","1536 x 864","true","1","10","","","","",""
"null","<p style=""font-size: 80px;"">+ 0 points</p>","null","html-keyboard-response","39","224436","0.0-7.0-2.38","5f3ec6221b5af3158bc86acd","d1873j","MD","20","F","{""name"":""Chrome"",""chrome"":true,""version"":""106.0"",""blink"":true,""windows"":true,""osname"":""Windows"",""osversion"":""10"",""a"":true}","9:22:17","0","2","Practice_2","74","f","0","725.3000001907349","1536 x 864","1536 x 864","true","1","0","","","","",""
"null","<p style=""font-size: 80px;"">+ 10 points</p>","null","html-keyboard-response","40","227092","0.0-7.0-2.39","5f3ec6221b5af3158bc86acd","d1873j","MD","20","F","{""name"":""Chrome"",""chrome"":true,""version"":""106.0"",""blink"":true,""windows"":true,""osname"":""Windows"",""osversion"":""10"",""a"":true}","9:22:17","0","2","Practice_3","74","j","1","643.6999998092651","1536 x 864","1536 x 864","true","1","10","","","","",""
"32582","","","survey-multi-choice","127","259675","0.0-8.0","5f3ec6221b5af3158bc86acd","d1873j","MD","20","F","{""name"":""Chrome"",""chrome"":true,""version"":""106.0"",""blink"":true,""windows"":true,""osname"":""Windows"",""osversion"":""10"",""a"":true}","9:22:17","","","","","","","","","","","1","","{""Q0"":""The red one"",""Q1"":""1""}","[0,1]","1","The red one","2"
"null","<p style=""font-size: 80px;"">+ 0 points</p>","null","html-keyboard-response","1","268745","0.0-11.0-2.0","5f3ec6221b5af3158bc86acd","d1873j","MD","20","F","{""name"":""Chrome"",""chrome"":true,""version"":""106.0"",""blink"":true,""windows"":true,""osname"":""Windows"",""osversion"":""10"",""a"":true}","9:22:17","1","4","Test_1","70","j","0","804.7999999523163","1536 x 864","1536 x 864","true","1","0","","","","",""
"null","<p style=""font-size: 80px;"">+ 10 points</p>","null","html-keyboard-response","2","271687","0.0-11.0-2.1","5f3ec6221b5af3158bc86acd","d1873j","MD","20","F","{""name"":""Chrome"",""chrome"":true,""version"":""106.0"",""blink"":true,""windows"":true,""osname"":""Windows"",""osversion"":""10"",""a"":true}","9:22:17","1","4","Test_2","70","f","1","930.0999999046326","1536 x 864","1536 x 864","true","1","10","","","","",""
"null","<p style=""font-size: 80px;"">+ 0 points</p>","null","html-keyboard-response","3","274425","0.0-11.0-2.2","5f3ec6221b5af3158bc86acd","d1873j","MD","20","F","{""name"":""Chrome"",""chrome"":true,""version"":""106.0"",""blink"":true,""windows"":true,""osname"":""Windows"",""osversion"":""10"",""a"":true}","9:22:17","1","4","Test_1","70","j","0","732.0999999046326","1536 x 864","1536 x 864","true","1","0","","","","",""
"null","<p style=""font-size: 80px;"">+ 10 points</p>","null","html-keyboard-response","4","277130","0.0-11.0-2.3","5f3ec6221b5af3158bc86acd","d1873j","MD","20","F","{""name"":""Chrome"",""chrome"":true,""version"":""106.0"",""blink"":true,""windows"":true,""osname"":""Windows"",""osversion"":""10"",""a"":true}","9:22:17","1","4","Test_1","74","j","1","695.3999998569489","1536 x 864","1536 x 864","true","1","10","","","","",""
"null","<p style=""font-size: 80px;"">+ 0 points</p>","null","html-keyboard-response","5","280039","0.0-11.0-2.4","5f3ec6221b5af3158bc86acd","d1873j","MD","20","F","{""name"":""Chrome"",""chrome"":true,""version"":""106.0"",""blink"":true,""windows"":true,""osname"":""Windows"",""osversion"":""10"",""a"":true}","9:22:17","1","4","Test_3","70","j","0","887.2000000476837","1536 x 864","1536 x 864","true","1","0","","","","",""
"null","<p style=""font-size: 80px;"">+ 10 points</p>","null","html-keyboard-response","6","283039","0.0-11.0-2.5","5f3ec6221b5af3158bc86acd","d1873j","MD","20","F","{""name"":""Chrome"",""chrome"":true,""version"":""106.0"",""blink"":true,""windows"":true,""osname"":""Windows"",""osversion"":""10"",""a"":true}","9:22:17","1","4","Test_1","74","j","1","983.4000000953674","1536 x 864","1536 x 864","true","1","10","","","","",""
"null","<p style=""font-size: 80px;"">+ 10 points</p>","null","html-keyboard-response","7","285659","0.0-11.0-2.6","5f3ec6221b5af3158bc86acd","d1873j","MD","20","F","{""name"":""Chrome"",""chrome"":true,""version"":""106.0"",""blink"":true,""windows"":true,""osname"":""Windows"",""osversion"":""10"",""a"":true}","9:22:17","1","4","Test_3","74","j","1","592.8000001907349","1536 x 864","1536 x 864","true","1","10","","","","",""
"null","<p style=""font-size: 80px;"">+ 10 points</p>","null","html-keyboard-response","8","288531","0.0-11.0-2.7","5f3ec6221b5af3158bc86acd","d1873j","MD","20","F","{""name"":""Chrome"",""chrome"":true,""version"":""106.0"",""blink"":true,""windows"":true,""osname"":""Windows"",""osversion"":""10"",""a"":true}","9:22:17","1","4","Test_2","70","f","1","862.7999999523163","1536 x 864","1536 x 864","true","1","10","","","","",""
"null","<p style=""font-size: 80px;"">+ 10 points</p>","null","html-keyboard-response","9","291171","0.0-11.0-2.8","5f3ec6221b5af3158bc86acd","d1873j","MD","20","F","{""name"":""Chrome"",""chrome"":true,""version"":""106.0"",""blink"":true,""windows"":true,""osname"":""Windows"",""osversion"":""10"",""a"":true}","9:22:17","1","4","Test_2","70","f","1","606.9000000953674","1536 x 864","1536 x 864","true","1","10","","","","",""
"null","<p style=""font-size: 80px;"">+ 10 points</p>","null","html-keyboard-response","10","293889","0.0-11.0-2.9","5f3ec6221b5af3158bc86acd","d1873j","MD","20","F","{""name"":""Chrome"",""chrome"":true,""version"":""106.0"",""blink"":true,""windows"":true,""osname"":""Windows"",""osversion"":""10"",""a"":true}","9:22:17","1","4","Test_3","74","j","1","693.2999999523163","1536 x 864","1536 x 864","true","1","10","","","","",""
"null","<p style=""font-size: 80px;"">+ 10 points</p>","null","html-keyboard-response","11","296815","0.0-11.0-2.10","5f3ec6221b5af3158bc86acd","d1873j","MD","20","F","{""name"":""Chrome"",""chrome"":true,""version"":""106.0"",""blink"":true,""windows"":true,""osname"":""Windows"",""osversion"":""10"",""a"":true}","9:22:17","1","4","Test_1","74","j","1","912.0999999046326","1536 x 864","1536 x 864","true","1","10","","","","",""
"null","<p style=""font-size: 80px;"">+ 10 points</p>","null","html-keyboard-response","12","299385","0.0-11.0-2.11","5f3ec6221b5af3158bc86acd","d1873j","MD","20","F","{""name"":""Chrome"",""chrome"":true,""version"":""106.0"",""blink"":true,""windows"":true,""osname"":""Windows"",""osversion"":""10"",""a"":true}","9:22:17","1","4","Test_2","70","f","1","545.4000000953674","1536 x 864","1536 x 864","true","1","10","","","","",""
"null","<p style=""font-size: 80px;"">+ 10 points</p>","null","html-keyboard-response","13","302341","0.0-11.0-2.12","5f3ec6221b5af3158bc86acd","d1873j","MD","20","F","{""name"":""Chrome"",""chrome"":true,""version"":""106.0"",""blink"":true,""windows"":true,""osname"":""Windows"",""osversion"":""10"",""a"":true}","9:22:17","1","4","Test_4","70","f","1","930.6999998092651","1536 x 864","1536 x 864","true","1","10","","","","",""
"null","<p style=""font-size: 80px;"">+ 10 points</p>","null","html-keyboard-response","14","304910","0.0-11.0-2.13","5f3ec6221b5af3158bc86acd","d1873j","MD","20","F","{""name"":""Chrome"",""chrome"":true,""version"":""106.0"",""blink"":true,""windows"":true,""osname"":""Windows"",""osversion"":""10"",""a"":true}","9:22:17","1","4","Test_3","74","j","1","553.8999998569489","1536 x 864","1536 x 864","true","1","10","","","","",""
"null","<p style=""font-size: 80px;"">+ 10 points</p>","null","html-keyboard-response","15","307837","0.0-11.0-2.14","5f3ec6221b5af3158bc86acd","d1873j","MD","20","F","{""name"":""Chrome"",""chrome"":true,""version"":""106.0"",""blink"":true,""windows"":true,""osname"":""Windows"",""osversion"":""10"",""a"":true}","9:22:17","1","4","Test_1","74","j","1","909.2000000476837","1536 x 864","1536 x 864","true","1","10","","","","",""
"null","<p style=""font-size: 80px;"">+ 0 points</p>","null","html-keyboard-response","16","310608","0.0-11.0-2.15","5f3ec6221b5af3158bc86acd","d1873j","MD","20","F","{""name"":""Chrome"",""chrome"":true,""version"":""106.0"",""blink"":true,""windows"":true,""osname"":""Windows"",""osversion"":""10"",""a"":true}","9:22:17","1","4","Test_4","74","f","0","749.2000000476837","1536 x 864","1536 x 864","true","1","0","","","","",""
"null","<p style=""font-size: 80px;"">+ 10 points</p>","null","html-keyboard-response","17","313279","0.0-11.0-2.16","5f3ec6221b5af3158bc86acd","d1873j","MD","20","F","{""name"":""Chrome"",""chrome"":true,""version"":""106.0"",""blink"":true,""windows"":true,""osname"":""Windows"",""osversion"":""10"",""a"":true}","9:22:17","1","4","Test_4","70","f","1","662.5","1536 x 864","1536 x 864","true","1","10","","","","",""
"null","<p style=""font-size: 80px;"">+ 10 points</p>","null","html-keyboard-response","18","315930","0.0-11.0-2.17","5f3ec6221b5af3158bc86acd","d1873j","MD","20","F","{""name"":""Chrome"",""chrome"":true,""version"":""106.0"",""blink"":true,""windows"":true,""osname"":""Windows"",""osversion"":""10"",""a"":true}","9:22:17","1","4","Test_3","74","j","1","644.8999998569489","1536 x 864","1536 x 864","true","1","10","","","","",""
"null","<p style=""font-size: 80px;"">+ 10 points</p>","null","html-keyboard-response","19","318712","0.0-11.0-2.18","5f3ec6221b5af3158bc86acd","d1873j","MD","20","F","{""name"":""Chrome"",""chrome"":true,""version"":""106.0"",""blink"":true,""windows"":true,""osname"":""Windows"",""osversion"":""10"",""a"":true}","9:22:17","1","4","Test_2","70","f","1","762.5999999046326","1536 x 864","1536 x 864","true","1","10","","","","",""
"null","<p style=""font-size: 80px;"">+ 10 points</p>","null","html-keyboard-response","20","321353","0.0-11.0-2.19","5f3ec6221b5af3158bc86acd","d1873j","MD","20","F","{""name"":""Chrome"",""chrome"":true,""version"":""106.0"",""blink"":true,""windows"":true,""osname"":""Windows"",""osversion"":""10"",""a"":true}","9:22:17","1","4","Test_3","74","j","1","623","1536 x 864","1536 x 864","true","1","10","","","","",""
"null","<p style=""font-size: 80px;"">+ 10 points</p>","null","html-keyboard-response","21","324154","0.0-11.0-2.20","5f3ec6221b5af3158bc86acd","d1873j","MD","20","F","{""name"":""Chrome"",""chrome"":true,""version"":""106.0"",""blink"":true,""windows"":true,""osname"":""Windows"",""osversion"":""10"",""a"":true}","9:22:17","1","4","Test_4","70","f","1","789.3000001907349","1536 x 864","1536 x 864","true","1","10","","","","",""
"null","<p style=""font-size: 80px;"">+ 0 points</p>","null","html-keyboard-response","22","327370","0.0-11.0-2.21","5f3ec6221b5af3158bc86acd","d1873j","MD","20","F","{""name"":""Chrome"",""chrome"":true,""version"":""106.0"",""blink"":true,""windows"":true,""osname"":""Windows"",""osversion"":""10"",""a"":true}","9:22:17","1","4","Test_4","74","f","0","1188","1536 x 864","1536 x 864","true","1","0","","","","",""
"null","<p style=""font-size: 80px;"">+ 10 points</p>","null","html-keyboard-response","23","330267","0.0-11.0-2.22","5f3ec6221b5af3158bc86acd","d1873j","MD","20","F","{""name"":""Chrome"",""chrome"":true,""version"":""106.0"",""blink"":true,""windows"":true,""osname"":""Windows"",""osversion"":""10"",""a"":true}","9:22:17","1","4","Test_4","70","f","1","892.7999999523163","1536 x 864","1536 x 864","true","1","10","","","","",""
"null","<p style=""font-size: 80px;"">+ 0 points</p>","null","html-keyboard-response","24","333011","0.0-11.0-2.23","5f3ec6221b5af3158bc86acd","d1873j","MD","20","F","{""name"":""Chrome"",""chrome"":true,""version"":""106.0"",""blink"":true,""windows"":true,""osname"":""Windows"",""osversion"":""10"",""a"":true}","9:22:17","1","3","Test_4","70","j","0","731.3999998569489","1536 x 864","1536 x 864","true","1","0","","","","",""
"null","<p style=""font-size: 80px;"">+ 0 points</p>","null","html-keyboard-response","25","335741","0.0-11.0-2.24","5f3ec6221b5af3158bc86acd","d1873j","MD","20","F","{""name"":""Chrome"",""chrome"":true,""version"":""106.0"",""blink"":true,""windows"":true,""osname"":""Windows"",""osversion"":""10"",""a"":true}","9:22:17","1","3","Test_1","74","f","0","709","1536 x 864","1536 x 864","true","1","0","","","","",""
"null","<p style=""font-size: 80px;"">+ 10 points</p>","null","html-keyboard-response","26","338402","0.0-11.0-2.25","5f3ec6221b5af3158bc86acd","d1873j","MD","20","F","{""name"":""Chrome"",""chrome"":true,""version"":""106.0"",""blink"":true,""windows"":true,""osname"":""Windows"",""osversion"":""10"",""a"":true}","9:22:17","1","3","Test_1","70","f","1","643.2999999523163","1536 x 864","1536 x 864","true","1","10","","","","",""
"null","<p style=""font-size: 80px;"">+ 10 points</p>","null","html-keyboard-response","27","341062","0.0-11.0-2.26","5f3ec6221b5af3158bc86acd","d1873j","MD","20","F","{""name"":""Chrome"",""chrome"":true,""version"":""106.0"",""blink"":true,""windows"":true,""osname"":""Windows"",""osversion"":""10"",""a"":true}","9:22:17","1","3","Test_4","74","j","1","648.7999999523163","1536 x 864","1536 x 864","true","1","10","","","","",""
"null","<p style=""font-size: 80px;"">+ 10 points</p>","null","html-keyboard-response","28","343620","0.0-11.0-2.27","5f3ec6221b5af3158bc86acd","d1873j","MD","20","F","{""name"":""Chrome"",""chrome"":true,""version"":""106.0"",""blink"":true,""windows"":true,""osname"":""Windows"",""osversion"":""10"",""a"":true}","9:22:17","1","3","Test_4","74","j","1","541","1536 x 864","1536 x 864","true","1","10","","","","",""
"null","<p style=""font-size: 80px;"">+ 10 points</p>","null","html-keyboard-response","29","346396","0.0-11.0-2.28","5f3ec6221b5af3158bc86acd","d1873j","MD","20","F","{""name"":""Chrome"",""chrome"":true,""version"":""106.0"",""blink"":true,""windows"":true,""osname"":""Windows"",""osversion"":""10"",""a"":true}","9:22:17","1","3","Test_2","74","j","1","766","1536 x 864","1536 x 864","true","1","10","","","","",""
"null","<p style=""font-size: 80px;"">+ 10 points</p>","null","html-keyboard-response","30","349117","0.0-11.0-2.29","5f3ec6221b5af3158bc86acd","d1873j","MD","20","F","{""name"":""Chrome"",""chrome"":true,""version"":""106.0"",""blink"":true,""windows"":true,""osname"":""Windows"",""osversion"":""10"",""a"":true}","9:22:17","1","3","Test_3","70","f","1","713.7000000476837","1536 x 864","1536 x 864","true","1","10","","","","",""
"null","<p style=""font-size: 80px;"">+ 10 points</p>","null","html-keyboard-response","31","351775","0.0-11.0-2.30","5f3ec6221b5af3158bc86acd","d1873j","MD","20","F","{""name"":""Chrome"",""chrome"":true,""version"":""106.0"",""blink"":true,""windows"":true,""osname"":""Windows"",""osversion"":""10"",""a"":true}","9:22:17","1","3","Test_2","74","j","1","642","1536 x 864","1536 x 864","true","1","10","","","","",""
"null","<p style=""font-size: 80px;"">+ 10 points</p>","null","html-keyboard-response","32","354575","0.0-11.0-2.31","5f3ec6221b5af3158bc86acd","d1873j","MD","20","F","{""name"":""Chrome"",""chrome"":true,""version"":""106.0"",""blink"":true,""windows"":true,""osname"":""Windows"",""osversion"":""10"",""a"":true}","9:22:17","1","3","Test_4","74","j","1","780","1536 x 864","1536 x 864","true","1","10","","","","",""
"null","<p style=""font-size: 80px;"">+ 10 points</p>","null","html-keyboard-response","33","357033","0.0-11.0-2.32","5f3ec6221b5af3158bc86acd","d1873j","MD","20","F","{""name"":""Chrome"",""chrome"":true,""version"":""106.0"",""blink"":true,""windows"":true,""osname"":""Windows"",""osversion"":""10"",""a"":true}","9:22:17","1","3","Test_4","74","j","1","444.59999990463257","1536 x 864","1536 x 864","true","1","10","","","","",""
"null","<p style=""font-size: 80px;"">+ 10 points</p>","null","html-keyboard-response","34","359701","0.0-11.0-2.33","5f3ec6221b5af3158bc86acd","d1873j","MD","20","F","{""name"":""Chrome"",""chrome"":true,""version"":""106.0"",""blink"":true,""windows"":true,""osname"":""Windows"",""osversion"":""10"",""a"":true}","9:22:17","1","3","Test_1","70","f","1","638.9000000953674","1536 x 864","1536 x 864","true","1","10","","","","",""
"null","<p style=""font-size: 80px;"">+ 10 points</p>","null","html-keyboard-response","35","362443","0.0-11.0-2.34","5f3ec6221b5af3158bc86acd","d1873j","MD","20","F","{""name"":""Chrome"",""chrome"":true,""version"":""106.0"",""blink"":true,""windows"":true,""osname"":""Windows"",""osversion"":""10"",""a"":true}","9:22:17","1","3","Test_2","74","j","1","719.7999999523163","1536 x 864","1536 x 864","true","1","10","","","","",""
"null","<p style=""font-size: 80px;"">+ 10 points</p>","null","html-keyboard-response","36","364953","0.0-11.0-2.35","5f3ec6221b5af3158bc86acd","d1873j","MD","20","F","{""name"":""Chrome"",""chrome"":true,""version"":""106.0"",""blink"":true,""windows"":true,""osname"":""Windows"",""osversion"":""10"",""a"":true}","9:22:17","1","3","Test_1","70","f","1","485.09999990463257","1536 x 864","1536 x 864","true","1","10","","","","",""
"null","<p style=""font-size: 80px;"">+ 10 points</p>","null","html-keyboard-response","37","367794","0.0-11.0-2.36","5f3ec6221b5af3158bc86acd","d1873j","MD","20","F","{""name"":""Chrome"",""chrome"":true,""version"":""106.0"",""blink"":true,""windows"":true,""osname"":""Windows"",""osversion"":""10"",""a"":true}","9:22:17","1","3","Test_3","70","f","1","824.7000000476837","1536 x 864","1536 x 864","true","1","10","","","","",""
"null","<p style=""font-size: 80px;"">+ 0 points</p>","null","html-keyboard-response","38","370544","0.0-11.0-2.37","5f3ec6221b5af3158bc86acd","d1873j","MD","20","F","{""name"":""Chrome"",""chrome"":true,""version"":""106.0"",""blink"":true,""windows"":true,""osname"":""Windows"",""osversion"":""10"",""a"":true}","9:22:17","1","3","Test_1","74","f","0","719.3999998569489","1536 x 864","1536 x 864","true","1","0","","","","",""
"null","<p style=""font-size: 80px;"">+ 10 points</p>","null","html-keyboard-response","39","373463","0.0-11.0-2.38","5f3ec6221b5af3158bc86acd","d1873j","MD","20","F","{""name"":""Chrome"",""chrome"":true,""version"":""106.0"",""blink"":true,""windows"":true,""osname"":""Windows"",""osversion"":""10"",""a"":true}","9:22:17","1","3","Test_3","70","f","1","906.0999999046326","1536 x 864","1536 x 864","true","1","10","","","","",""
"null","<p style=""font-size: 80px;"">+ 10 points</p>","null","html-keyboard-response","40","376250","0.0-11.0-2.39","5f3ec6221b5af3158bc86acd","d1873j","MD","20","F","{""name"":""Chrome"",""chrome"":true,""version"":""106.0"",""blink"":true,""windows"":true,""osname"":""Windows"",""osversion"":""10"",""a"":true}","9:22:17","1","3","Test_1","70","f","1","771.5999999046326","1536 x 864","1536 x 864","true","1","10","","","","",""
"null","<p style=""font-size: 80px;"">+ 10 points</p>","null","html-keyboard-response","41","378916","0.0-11.0-2.40","5f3ec6221b5af3158bc86acd","d1873j","MD","20","F","{""name"":""Chrome"",""chrome"":true,""version"":""106.0"",""blink"":true,""windows"":true,""osname"":""Windows"",""osversion"":""10"",""a"":true}","9:22:17","1","3","Test_2","74","j","1","652.5","1536 x 864","1536 x 864","true","1","10","","","","",""
"null","<p style=""font-size: 80px;"">+ 10 points</p>","null","html-keyboard-response","42","381606","0.0-11.0-2.41","5f3ec6221b5af3158bc86acd","d1873j","MD","20","F","{""name"":""Chrome"",""chrome"":true,""version"":""106.0"",""blink"":true,""windows"":true,""osname"":""Windows"",""osversion"":""10"",""a"":true}","9:22:17","1","3","Test_3","70","f","1","681.6999998092651","1536 x 864","1536 x 864","true","1","10","","","","",""
"null","<p style=""font-size: 80px;"">+ 0 points</p>","null","html-keyboard-response","43","384399","0.0-11.0-2.42","5f3ec6221b5af3158bc86acd","d1873j","MD","20","F","{""name"":""Chrome"",""chrome"":true,""version"":""106.0"",""blink"":true,""windows"":true,""osname"":""Windows"",""osversion"":""10"",""a"":true}","9:22:17","1","3","Test_3","74","f","0","789.9000000953674","1536 x 864","1536 x 864","true","1","0","","","","",""
"null","<p style=""font-size: 80px;"">+ 10 points</p>","null","html-keyboard-response","44","387251","0.0-11.0-2.43","5f3ec6221b5af3158bc86acd","d1873j","MD","20","F","{""name"":""Chrome"",""chrome"":true,""version"":""106.0"",""blink"":true,""windows"":true,""osname"":""Windows"",""osversion"":""10"",""a"":true}","9:22:17","1","3","Test_3","70","f","1","833.9000000953674","1536 x 864","1536 x 864","true","1","10","","","","",""
"null","<p style=""font-size: 80px;"">+ 10 points</p>","null","html-keyboard-response","45","389940","0.0-11.0-2.44","5f3ec6221b5af3158bc86acd","d1873j","MD","20","F","{""name"":""Chrome"",""chrome"":true,""version"":""106.0"",""blink"":true,""windows"":true,""osname"":""Windows"",""osversion"":""10"",""a"":true}","9:22:17","1","3","Test_2","74","j","1","669.3999998569489","1536 x 864","1536 x 864","true","1","10","","","","",""
"null","<p style=""font-size: 80px;"">+ 10 points</p>","null","html-keyboard-response","46","393022","0.0-11.0-2.45","5f3ec6221b5af3158bc86acd","d1873j","MD","20","F","{""name"":""Chrome"",""chrome"":true,""version"":""106.0"",""blink"":true,""windows"":true,""osname"":""Windows"",""osversion"":""10"",""a"":true}","9:22:17","1","3","Test_4","74","j","1","1073.5999999046326","1536 x 864","1536 x 864","true","1","10","","","","",""
"null","<p style=""font-size: 80px;"">+ 10 points</p>","null","html-keyboard-response","47","395774","0.0-11.0-2.46","5f3ec6221b5af3158bc86acd","d1873j","MD","20","F","{""name"":""Chrome"",""chrome"":true,""version"":""106.0"",""blink"":true,""windows"":true,""osname"":""Windows"",""osversion"":""10"",""a"":true}","9:22:17","1","3","Test_2","74","j","1","734.7000000476837","1536 x 864","1536 x 864","true","1","10","","","","",""
"null","<p style=""font-size: 80px;"">+ 0 points</p>","null","html-keyboard-response","48","398817","0.0-11.0-2.47","5f3ec6221b5af3158bc86acd","d1873j","MD","20","F","{""name"":""Chrome"",""chrome"":true,""version"":""106.0"",""blink"":true,""windows"":true,""osname"":""Windows"",""osversion"":""10"",""a"":true}","9:22:17","1","4","Test_2","74","f","0","1021.2000000476837","1536 x 864","1536 x 864","true","1","0","","","","",""
"null","<p style=""font-size: 80px;"">+ 0 points</p>","null","html-keyboard-response","49","402104","0.0-11.0-2.48","5f3ec6221b5af3158bc86acd","d1873j","MD","20","F","{""name"":""Chrome"",""chrome"":true,""version"":""106.0"",""blink"":true,""windows"":true,""osname"":""Windows"",""osversion"":""10"",""a"":true}","9:22:17","1","4","Test_3","70","j","0","1265.2999999523163","1536 x 864","1536 x 864","true","1","0","","","","",""
"null","<p style=""font-size: 80px;"">+ 0 points</p>","null","html-keyboard-response","50","405106","0.0-11.0-2.49","5f3ec6221b5af3158bc86acd","d1873j","MD","20","F","{""name"":""Chrome"",""chrome"":true,""version"":""106.0"",""blink"":true,""windows"":true,""osname"":""Windows"",""osversion"":""10"",""a"":true}","9:22:17","1","4","Test_4","74","f","0","982.7000000476837","1536 x 864","1536 x 864","true","1","0","","","","",""
"null","<p style=""font-size: 80px;"">+ 10 points</p>","null","html-keyboard-response","51","407912","0.0-11.0-2.50","5f3ec6221b5af3158bc86acd","d1873j","MD","20","F","{""name"":""Chrome"",""chrome"":true,""version"":""106.0"",""blink"":true,""windows"":true,""osname"":""Windows"",""osversion"":""10"",""a"":true}","9:22:17","1","4","Test_1","74","j","1","790.7000000476837","1536 x 864","1536 x 864","true","1","10","","","","",""
"null","<p style=""font-size: 80px;"">+ 0 points</p>","null","html-keyboard-response","52","411405","0.0-11.0-2.51","5f3ec6221b5af3158bc86acd","d1873j","MD","20","F","{""name"":""Chrome"",""chrome"":true,""version"":""106.0"",""blink"":true,""windows"":true,""osname"":""Windows"",""osversion"":""10"",""a"":true}","9:22:17","1","4","Test_1","70","j","0","1482.8999998569489","1536 x 864","1536 x 864","true","1","0","","","","",""
"null","<p style=""font-size: 80px;"">+ 10 points</p>","null","html-keyboard-response","53","414563","0.0-11.0-2.52","5f3ec6221b5af3158bc86acd","d1873j","MD","20","F","{""name"":""Chrome"",""chrome"":true,""version"":""106.0"",""blink"":true,""windows"":true,""osname"":""Windows"",""osversion"":""10"",""a"":true}","9:22:17","1","4","Test_3","74","j","1","1155.8000001907349","1536 x 864","1536 x 864","true","1","10","","","","",""
"null","<p style=""font-size: 80px;"">+ 10 points</p>","null","html-keyboard-response","54","417196","0.0-11.0-2.53","5f3ec6221b5af3158bc86acd","d1873j","MD","20","F","{""name"":""Chrome"",""chrome"":true,""version"":""106.0"",""blink"":true,""windows"":true,""osname"":""Windows"",""osversion"":""10"",""a"":true}","9:22:17","1","4","Test_4","70","f","1","628.6999998092651","1536 x 864","1536 x 864","true","1","10","","","","",""
"null","<p style=""font-size: 80px;"">+ 10 points</p>","null","html-keyboard-response","55","419846","0.0-11.0-2.54","5f3ec6221b5af3158bc86acd","d1873j","MD","20","F","{""name"":""Chrome"",""chrome"":true,""version"":""106.0"",""blink"":true,""windows"":true,""osname"":""Windows"",""osversion"":""10"",""a"":true}","9:22:17","1","4","Test_4","70","f","1","638.5999999046326","1536 x 864","1536 x 864","true","1","10","","","","",""
"null","<p style=""font-size: 80px;"">+ 0 points</p>","null","html-keyboard-response","56","422945","0.0-11.0-2.55","5f3ec6221b5af3158bc86acd","d1873j","MD","20","F","{""name"":""Chrome"",""chrome"":true,""version"":""106.0"",""blink"":true,""windows"":true,""osname"":""Windows"",""osversion"":""10"",""a"":true}","9:22:17","1","4","Test_2","74","f","0","1095","1536 x 864","1536 x 864","true","1","0","","","","",""
"null","<p style=""font-size: 80px;"">+ 10 points</p>","null","html-keyboard-response","57","426091","0.0-11.0-2.56","5f3ec6221b5af3158bc86acd","d1873j","MD","20","F","{""name"":""Chrome"",""chrome"":true,""version"":""106.0"",""blink"":true,""windows"":true,""osname"":""Windows"",""osversion"":""10"",""a"":true}","9:22:17","1","4","Test_2","70","f","1","1127.7000000476837","1536 x 864","1536 x 864","true","1","10","","","","",""
"null","<p style=""font-size: 80px;"">+ 10 points</p>","null","html-keyboard-response","58","428774","0.0-11.0-2.57","5f3ec6221b5af3158bc86acd","d1873j","MD","20","F","{""name"":""Chrome"",""chrome"":true,""version"":""106.0"",""blink"":true,""windows"":true,""osname"":""Windows"",""osversion"":""10"",""a"":true}","9:22:17","1","4","Test_1","74","j","1","669.2999999523163","1536 x 864","1536 x 864","true","1","10","","","","",""
"null","<p style=""font-size: 80px;"">+ 10 points</p>","null","html-keyboard-response","59","431526","0.0-11.0-2.58","5f3ec6221b5af3158bc86acd","d1873j","MD","20","F","{""name"":""Chrome"",""chrome"":true,""version"":""106.0"",""blink"":true,""windows"":true,""osname"":""Windows"",""osversion"":""10"",""a"":true}","9:22:17","1","4","Test_4","70","f","1","729.2999999523163","1536 x 864","1536 x 864","true","1","10","","","","",""
"null","<p style=""font-size: 80px;"">+ 10 points</p>","null","html-keyboard-response","60","434111","0.0-11.0-2.59","5f3ec6221b5af3158bc86acd","d1873j","MD","20","F","{""name"":""Chrome"",""chrome"":true,""version"":""106.0"",""blink"":true,""windows"":true,""osname"":""Windows"",""osversion"":""10"",""a"":true}","9:22:17","1","4","Test_1","74","j","1","580.4000000953674","1536 x 864","1536 x 864","true","1","10","","","","",""
"null","<p style=""font-size: 80px;"">+ 10 points</p>","null","html-keyboard-response","61","437460","0.0-11.0-2.60","5f3ec6221b5af3158bc86acd","d1873j","MD","20","F","{""name"":""Chrome"",""chrome"":true,""version"":""106.0"",""blink"":true,""windows"":true,""osname"":""Windows"",""osversion"":""10"",""a"":true}","9:22:17","1","4","Test_3","74","j","1","1329.7999999523163","1536 x 864","1536 x 864","true","1","10","","","","",""
"null","<p style=""font-size: 80px;"">+ 10 points</p>","null","html-keyboard-response","62","440105","0.0-11.0-2.61","5f3ec6221b5af3158bc86acd","d1873j","MD","20","F","{""name"":""Chrome"",""chrome"":true,""version"":""106.0"",""blink"":true,""windows"":true,""osname"":""Windows"",""osversion"":""10"",""a"":true}","9:22:17","1","4","Test_2","70","f","1","640.0999999046326","1536 x 864","1536 x 864","true","1","10","","","","",""
"null","<p style=""font-size: 80px;"">+ 0 points</p>","null","html-keyboard-response","63","442852","0.0-11.0-2.62","5f3ec6221b5af3158bc86acd","d1873j","MD","20","F","{""name"":""Chrome"",""chrome"":true,""version"":""106.0"",""blink"":true,""windows"":true,""osname"":""Windows"",""osversion"":""10"",""a"":true}","9:22:17","1","3","Test_2","70","j","0","744.0999999046326","1536 x 864","1536 x 864","true","1","0","","","","",""
"null","<p style=""font-size: 80px;"">+ 0 points</p>","null","html-keyboard-response","64","446006","0.0-11.0-2.63","5f3ec6221b5af3158bc86acd","d1873j","MD","20","F","{""name"":""Chrome"",""chrome"":true,""version"":""106.0"",""blink"":true,""windows"":true,""osname"":""Windows"",""osversion"":""10"",""a"":true}","9:22:17","1","3","Test_3","74","f","0","1128.3000001907349","1536 x 864","1536 x 864","true","1","0","","","","",""
"null","<p style=""font-size: 80px;"">+ 0 points</p>","null","html-keyboard-response","65","448693","0.0-11.0-2.64","5f3ec6221b5af3158bc86acd","d1873j","MD","20","F","{""name"":""Chrome"",""chrome"":true,""version"":""106.0"",""blink"":true,""windows"":true,""osname"":""Windows"",""osversion"":""10"",""a"":true}","9:22:17","1","3","Test_3","74","f","0","665.5999999046326","1536 x 864","1536 x 864","true","1","0","","","","",""
"null","<p style=""font-size: 80px;"">+ 10 points</p>","null","html-keyboard-response","66","451696","0.0-11.0-2.65","5f3ec6221b5af3158bc86acd","d1873j","MD","20","F","{""name"":""Chrome"",""chrome"":true,""version"":""106.0"",""blink"":true,""windows"":true,""osname"":""Windows"",""osversion"":""10"",""a"":true}","9:22:17","1","3","Test_2","74","j","1","1000.1000001430511","1536 x 864","1536 x 864","true","1","10","","","","",""
"null","<p style=""font-size: 80px;"">+ 10 points</p>","null","html-keyboard-response","67","454285","0.0-11.0-2.66","5f3ec6221b5af3158bc86acd","d1873j","MD","20","F","{""name"":""Chrome"",""chrome"":true,""version"":""106.0"",""blink"":true,""windows"":true,""osname"":""Windows"",""osversion"":""10"",""a"":true}","9:22:17","1","3","Test_2","74","j","1","585.5999999046326","1536 x 864","1536 x 864","true","1","10","","","","",""
"null","<p style=""font-size: 80px;"">+ 10 points</p>","null","html-keyboard-response","68","457159","0.0-11.0-2.67","5f3ec6221b5af3158bc86acd","d1873j","MD","20","F","{""name"":""Chrome"",""chrome"":true,""version"":""106.0"",""blink"":true,""windows"":true,""osname"":""Windows"",""osversion"":""10"",""a"":true}","9:22:17","1","3","Test_3","70","f","1","859.2000000476837","1536 x 864","1536 x 864","true","1","10","","","","",""
"null","<p style=""font-size: 80px;"">+ 10 points</p>","null","html-keyboard-response","69","460541","0.0-11.0-2.68","5f3ec6221b5af3158bc86acd","d1873j","MD","20","F","{""name"":""Chrome"",""chrome"":true,""version"":""106.0"",""blink"":true,""windows"":true,""osname"":""Windows"",""osversion"":""10"",""a"":true}","9:22:17","1","3","Test_4","74","j","1","1356.7000000476837","1536 x 864","1536 x 864","true","1","10","","","","",""
"null","<p style=""font-size: 80px;"">+ 10 points</p>","null","html-keyboard-response","70","463439","0.0-11.0-2.69","5f3ec6221b5af3158bc86acd","d1873j","MD","20","F","{""name"":""Chrome"",""chrome"":true,""version"":""106.0"",""blink"":true,""windows"":true,""osname"":""Windows"",""osversion"":""10"",""a"":true}","9:22:17","1","3","Test_2","74","j","1","883","1536 x 864","1536 x 864","true","1","10","","","","",""
"null","<p style=""font-size: 80px;"">+ 0 points</p>","null","html-keyboard-response","71","466605","0.0-11.0-2.70","5f3ec6221b5af3158bc86acd","d1873j","MD","20","F","{""name"":""Chrome"",""chrome"":true,""version"":""106.0"",""blink"":true,""windows"":true,""osname"":""Windows"",""osversion"":""10"",""a"":true}","9:22:17","1","3","Test_4","70","j","0","1156.8000001907349","1536 x 864","1536 x 864","true","1","0","","","","",""
"null","<p style=""font-size: 80px;"">+ 10 points</p>","null","html-keyboard-response","72","469601","0.0-11.0-2.71","5f3ec6221b5af3158bc86acd","d1873j","MD","20","F","{""name"":""Chrome"",""chrome"":true,""version"":""106.0"",""blink"":true,""windows"":true,""osname"":""Windows"",""osversion"":""10"",""a"":true}","9:22:17","1","3","Test_1","70","f","1","979.1000001430511","1536 x 864","1536 x 864","true","1","10","","","","",""
"null","<p style=""font-size: 80px;"">+ 10 points</p>","null","html-keyboard-response","73","472795","0.0-11.0-2.72","5f3ec6221b5af3158bc86acd","d1873j","MD","20","F","{""name"":""Chrome"",""chrome"":true,""version"":""106.0"",""blink"":true,""windows"":true,""osname"":""Windows"",""osversion"":""10"",""a"":true}","9:22:17","1","3","Test_2","74","j","1","1189.2999999523163","1536 x 864","1536 x 864","true","1","10","","","","",""
"null","<p style=""font-size: 80px;"">+ 10 points</p>","null","html-keyboard-response","74","475907","0.0-11.0-2.73","5f3ec6221b5af3158bc86acd","d1873j","MD","20","F","{""name"":""Chrome"",""chrome"":true,""version"":""106.0"",""blink"":true,""windows"":true,""osname"":""Windows"",""osversion"":""10"",""a"":true}","9:22:17","1","3","Test_1","70","f","1","1093.7000000476837","1536 x 864","1536 x 864","true","1","10","","","","",""
"null","<p style=""font-size: 80px;"">+ 10 points</p>","null","html-keyboard-response","75","478655","0.0-11.0-2.74","5f3ec6221b5af3158bc86acd","d1873j","MD","20","F","{""name"":""Chrome"",""chrome"":true,""version"":""106.0"",""blink"":true,""windows"":true,""osname"":""Windows"",""osversion"":""10"",""a"":true}","9:22:17","1","3","Test_4","74","j","1","733.1999998092651","1536 x 864","1536 x 864","true","1","10","","","","",""
"null","<p style=""font-size: 80px;"">+ 10 points</p>","null","html-keyboard-response","76","481817","0.0-11.0-2.75","5f3ec6221b5af3158bc86acd","d1873j","MD","20","F","{""name"":""Chrome"",""chrome"":true,""version"":""106.0"",""blink"":true,""windows"":true,""osname"":""Windows"",""osversion"":""10"",""a"":true}","9:22:17","1","3","Test_1","70","f","1","1149.7000000476837","1536 x 864","1536 x 864","true","1","10","","","","",""
"null","<p style=""font-size: 80px;"">+ 10 points</p>","null","html-keyboard-response","77","484699","0.0-11.0-2.76","5f3ec6221b5af3158bc86acd","d1873j","MD","20","F","{""name"":""Chrome"",""chrome"":true,""version"":""106.0"",""blink"":true,""windows"":true,""osname"":""Windows"",""osversion"":""10"",""a"":true}","9:22:17","1","3","Test_3","70","f","1","878.9000000953674","1536 x 864","1536 x 864","true","1","10","","","","",""
"null","<p style=""font-size: 80px;"">+ 10 points</p>","null","html-keyboard-response","78","487814","0.0-11.0-2.77","5f3ec6221b5af3158bc86acd","d1873j","MD","20","F","{""name"":""Chrome"",""chrome"":true,""version"":""106.0"",""blink"":true,""windows"":true,""osname"":""Windows"",""osversion"":""10"",""a"":true}","9:22:17","1","3","Test_4","74","j","1","1101","1536 x 864","1536 x 864","true","1","10","","","","",""
"null","<p style=""font-size: 80px;"">+ 10 points</p>","null","html-keyboard-response","79","490590","0.0-11.0-2.78","5f3ec6221b5af3158bc86acd","d1873j","MD","20","F","{""name"":""Chrome"",""chrome"":true,""version"":""106.0"",""blink"":true,""windows"":true,""osname"":""Windows"",""osversion"":""10"",""a"":true}","9:22:17","1","3","Test_4","74","j","1","747.6000001430511","1536 x 864","1536 x 864","true","1","10","","","","",""
"null","<p style=""font-size: 80px;"">+ 10 points</p>","null","html-keyboard-response","80","493211","0.0-11.0-2.79","5f3ec6221b5af3158bc86acd","d1873j","MD","20","F","{""name"":""Chrome"",""chrome"":true,""version"":""106.0"",""blink"":true,""windows"":true,""osname"":""Windows"",""osversion"":""10"",""a"":true}","9:22:17","1","3","Test_1","70","f","1","611","1536 x 864","1536 x 864","true","1","10","","","","",""
"null","<p style=""font-size: 80px;"">+ 10 points</p>","null","html-keyboard-response","81","496006","0.0-11.0-2.80","5f3ec6221b5af3158bc86acd","d1873j","MD","20","F","{""name"":""Chrome"",""chrome"":true,""version"":""106.0"",""blink"":true,""windows"":true,""osname"":""Windows"",""osversion"":""10"",""a"":true}","9:22:17","1","3","Test_3","70","f","1","785","1536 x 864","1536 x 864","true","1","10","","","","",""
"null","<p style=""font-size: 80px;"">+ 10 points</p>","null","html-keyboard-response","82","499533","0.0-11.0-2.81","5f3ec6221b5af3158bc86acd","d1873j","MD","20","F","{""name"":""Chrome"",""chrome"":true,""version"":""106.0"",""blink"":true,""windows"":true,""osname"":""Windows"",""osversion"":""10"",""a"":true}","9:22:17","1","3","Test_1","70","f","1","1515.5","1536 x 864","1536 x 864","true","1","10","","","","",""
"null","<p style=""font-size: 80px;"">+ 0 points</p>","null","html-keyboard-response","83","502263","0.0-11.0-2.82","5f3ec6221b5af3158bc86acd","d1873j","MD","20","F","{""name"":""Chrome"",""chrome"":true,""version"":""106.0"",""blink"":true,""windows"":true,""osname"":""Windows"",""osversion"":""10"",""a"":true}","9:22:17","1","4","Test_4","74","f","0","723.7000000476837","1536 x 864","1536 x 864","true","1","0","","","","",""
"null","<p style=""font-size: 80px;"">+ 10 points</p>","null","html-keyboard-response","84","505269","0.0-11.0-2.83","5f3ec6221b5af3158bc86acd","d1873j","MD","20","F","{""name"":""Chrome"",""chrome"":true,""version"":""106.0"",""blink"":true,""windows"":true,""osname"":""Windows"",""osversion"":""10"",""a"":true}","9:22:17","1","4","Test_3","74","j","1","999.1999998092651","1536 x 864","1536 x 864","true","1","10","","","","",""
"null","<p style=""font-size: 80px;"">+ 10 points</p>","null","html-keyboard-response","85","507935","0.0-11.0-2.84","5f3ec6221b5af3158bc86acd","d1873j","MD","20","F","{""name"":""Chrome"",""chrome"":true,""version"":""106.0"",""blink"":true,""windows"":true,""osname"":""Windows"",""osversion"":""10"",""a"":true}","9:22:17","1","4","Test_2","70","f","1","664.2000000476837","1536 x 864","1536 x 864","true","1","10","","","","",""
"null","<p style=""font-size: 80px;"">+ 10 points</p>","null","html-keyboard-response","86","510828","0.0-11.0-2.85","5f3ec6221b5af3158bc86acd","d1873j","MD","20","F","{""name"":""Chrome"",""chrome"":true,""version"":""106.0"",""blink"":true,""windows"":true,""osname"":""Windows"",""osversion"":""10"",""a"":true}","9:22:17","1","4","Test_1","74","j","1","879.9000000953674","1536 x 864","1536 x 864","true","1","10","","","","",""
"null","<p style=""font-size: 80px;"">+ 0 points</p>","null","html-keyboard-response","87","513749","0.0-11.0-2.86","5f3ec6221b5af3158bc86acd","d1873j","MD","20","F","{""name"":""Chrome"",""chrome"":true,""version"":""106.0"",""blink"":true,""windows"":true,""osname"":""Windows"",""osversion"":""10"",""a"":true}","9:22:17","1","4","Test_1","70","j","0","897.2000000476837","1536 x 864","1536 x 864","true","1","0","","","","",""
"null","<p style=""font-size: 80px;"">+ 0 points</p>","null","html-keyboard-response","88","516787","0.0-11.0-2.87","5f3ec6221b5af3158bc86acd","d1873j","MD","20","F","{""name"":""Chrome"",""chrome"":true,""version"":""106.0"",""blink"":true,""windows"":true,""osname"":""Windows"",""osversion"":""10"",""a"":true}","9:22:17","1","4","Test_3","70","j","0","1030.5","1536 x 864","1536 x 864","true","1","0","","","","",""
"null","<p style=""font-size: 80px;"">+ 10 points</p>","null","html-keyboard-response","89","520003","0.0-11.0-2.88","5f3ec6221b5af3158bc86acd","d1873j","MD","20","F","{""name"":""Chrome"",""chrome"":true,""version"":""106.0"",""blink"":true,""windows"":true,""osname"":""Windows"",""osversion"":""10"",""a"":true}","9:22:17","1","4","Test_1","74","j","1","1203.2999999523163","1536 x 864","1536 x 864","true","1","10","","","","",""
"null","<p style=""font-size: 80px;"">+ 10 points</p>","null","html-keyboard-response","90","523211","0.0-11.0-2.89","5f3ec6221b5af3158bc86acd","d1873j","MD","20","F","{""name"":""Chrome"",""chrome"":true,""version"":""106.0"",""blink"":true,""windows"":true,""osname"":""Windows"",""osversion"":""10"",""a"":true}","9:22:17","1","4","Test_1","74","j","1","1205.7999999523163","1536 x 864","1536 x 864","true","1","10","","","","",""
"null","<p style=""font-size: 80px;"">+ 10 points</p>","null","html-keyboard-response","91","526094","0.0-11.0-2.90","5f3ec6221b5af3158bc86acd","d1873j","MD","20","F","{""name"":""Chrome"",""chrome"":true,""version"":""106.0"",""blink"":true,""windows"":true,""osname"":""Windows"",""osversion"":""10"",""a"":true}","9:22:17","1","4","Test_2","70","f","1","867.9000000953674","1536 x 864","1536 x 864","true","1","10","","","","",""
"null","<p style=""font-size: 80px;"">+ 10 points</p>","null","html-keyboard-response","92","528807","0.0-11.0-2.91","5f3ec6221b5af3158bc86acd","d1873j","MD","20","F","{""name"":""Chrome"",""chrome"":true,""version"":""106.0"",""blink"":true,""windows"":true,""osname"":""Windows"",""osversion"":""10"",""a"":true}","9:22:17","1","4","Test_2","70","f","1","692.9000000953674","1536 x 864","1536 x 864","true","1","10","","","","",""
"null","<p style=""font-size: 80px;"">+ 10 points</p>","null","html-keyboard-response","93","531917","0.0-11.0-2.92","5f3ec6221b5af3158bc86acd","d1873j","MD","20","F","{""name"":""Chrome"",""chrome"":true,""version"":""106.0"",""blink"":true,""windows"":true,""osname"":""Windows"",""osversion"":""10"",""a"":true}","9:22:17","1","4","Test_4","70","f","1","1099.6000001430511","1536 x 864","1536 x 864","true","1","10","","","","",""
"null","<p style=""font-size: 80px;"">+ 10 points</p>","null","html-keyboard-response","94","535184","0.0-11.0-2.93","5f3ec6221b5af3158bc86acd","d1873j","MD","20","F","{""name"":""Chrome"",""chrome"":true,""version"":""106.0"",""blink"":true,""windows"":true,""osname"":""Windows"",""osversion"":""10"",""a"":true}","9:22:17","1","4","Test_2","70","f","1","1256.7999999523163","1536 x 864","1536 x 864","true","1","10","","","","",""
"null","<p style=""font-size: 80px;"">+ 10 points</p>","null","html-keyboard-response","95","538624","0.0-11.0-2.94","5f3ec6221b5af3158bc86acd","d1873j","MD","20","F","{""name"":""Chrome"",""chrome"":true,""version"":""106.0"",""blink"":true,""windows"":true,""osname"":""Windows"",""osversion"":""10"",""a"":true}","9:22:17","1","4","Test_4","70","f","1","1412.7999999523163","1536 x 864","1536 x 864","true","1","10","","","","",""
"null","<p style=""font-size: 80px;"">+ 10 points</p>","null","html-keyboard-response","96","541474","0.0-11.0-2.95","5f3ec6221b5af3158bc86acd","d1873j","MD","20","F","{""name"":""Chrome"",""chrome"":true,""version"":""106.0"",""blink"":true,""windows"":true,""osname"":""Windows"",""osversion"":""10"",""a"":true}","9:22:17","1","4","Test_3","74","j","1","846.2999999523163","1536 x 864","1536 x 864","true","1","10","","","","",""
"null","<p style=""font-size: 80px;"">+ 10 points</p>","null","html-keyboard-response","97","544144","0.0-11.0-2.96","5f3ec6221b5af3158bc86acd","d1873j","MD","20","F","{""name"":""Chrome"",""chrome"":true,""version"":""106.0"",""blink"":true,""windows"":true,""osname"":""Windows"",""osversion"":""10"",""a"":true}","9:22:17","1","4","Test_4","70","f","1","662.8000001907349","1536 x 864","1536 x 864","true","1","10","","","","",""
"null","<p style=""font-size: 80px;"">+ 10 points</p>","null","html-keyboard-response","98","547506","0.0-11.0-2.97","5f3ec6221b5af3158bc86acd","d1873j","MD","20","F","{""name"":""Chrome"",""chrome"":true,""version"":""106.0"",""blink"":true,""windows"":true,""osname"":""Windows"",""osversion"":""10"",""a"":true}","9:22:17","1","4","Test_3","74","j","1","1341.7000000476837","1536 x 864","1536 x 864","true","1","10","","","","",""
"null","<p style=""font-size: 80px;"">+ 0 points</p>","null","html-keyboard-response","99","550135","0.0-11.0-2.98","5f3ec6221b5af3158bc86acd","d1873j","MD","20","F","{""name"":""Chrome"",""chrome"":true,""version"":""106.0"",""blink"":true,""windows"":true,""osname"":""Windows"",""osversion"":""10"",""a"":true}","9:22:17","1","3","Test_3","74","f","0","620.7999999523163","1536 x 864","1536 x 864","true","1","0","","","","",""
"null","<p style=""font-size: 80px;"">+ 0 points</p>","null","html-keyboard-response","100","553293","0.0-11.0-2.99","5f3ec6221b5af3158bc86acd","d1873j","MD","20","F","{""name"":""Chrome"",""chrome"":true,""version"":""106.0"",""blink"":true,""windows"":true,""osname"":""Windows"",""osversion"":""10"",""a"":true}","9:22:17","1","3","Test_1","74","f","0","1131.1000001430511","1536 x 864","1536 x 864","true","1","0","","","","",""
"null","<p style=""font-size: 80px;"">+ 10 points</p>","null","html-keyboard-response","101","556147","0.0-11.0-2.100","5f3ec6221b5af3158bc86acd","d1873j","MD","20","F","{""name"":""Chrome"",""chrome"":true,""version"":""106.0"",""blink"":true,""windows"":true,""osname"":""Windows"",""osversion"":""10"",""a"":true}","9:22:17","1","3","Test_2","74","j","1","841.0999999046326","1536 x 864","1536 x 864","true","1","10","","","","",""
"null","<p style=""font-size: 80px;"">+ 10 points</p>","null","html-keyboard-response","102","558897","0.0-11.0-2.101","5f3ec6221b5af3158bc86acd","d1873j","MD","20","F","{""name"":""Chrome"",""chrome"":true,""version"":""106.0"",""blink"":true,""windows"":true,""osname"":""Windows"",""osversion"":""10"",""a"":true}","9:22:17","1","3","Test_3","70","f","1","744.2000000476837","1536 x 864","1536 x 864","true","1","10","","","","",""
"null","<p style=""font-size: 80px;"">+ 10 points</p>","null","html-keyboard-response","103","561600","0.0-11.0-2.102","5f3ec6221b5af3158bc86acd","d1873j","MD","20","F","{""name"":""Chrome"",""chrome"":true,""version"":""106.0"",""blink"":true,""windows"":true,""osname"":""Windows"",""osversion"":""10"",""a"":true}","9:22:17","1","3","Test_2","74","j","1","698.6000001430511","1536 x 864","1536 x 864","true","1","10","","","","",""
"null","<p style=""font-size: 80px;"">+ 10 points</p>","null","html-keyboard-response","104","564471","0.0-11.0-2.103","5f3ec6221b5af3158bc86acd","d1873j","MD","20","F","{""name"":""Chrome"",""chrome"":true,""version"":""106.0"",""blink"":true,""windows"":true,""osname"":""Windows"",""osversion"":""10"",""a"":true}","9:22:17","1","3","Test_1","70","f","1","862.7000000476837","1536 x 864","1536 x 864","true","1","10","","","","",""
"null","<p style=""font-size: 80px;"">+ 0 points</p>","null","html-keyboard-response","105","567205","0.0-11.0-2.104","5f3ec6221b5af3158bc86acd","d1873j","MD","20","F","{""name"":""Chrome"",""chrome"":true,""version"":""106.0"",""blink"":true,""windows"":true,""osname"":""Windows"",""osversion"":""10"",""a"":true}","9:22:17","1","3","Test_4","70","j","0","730.3999998569489","1536 x 864","1536 x 864","true","1","0","","","","",""
"null","<p style=""font-size: 80px;"">+ 10 points</p>","null","html-keyboard-response","106","569998","0.0-11.0-2.105","5f3ec6221b5af3158bc86acd","d1873j","MD","20","F","{""name"":""Chrome"",""chrome"":true,""version"":""106.0"",""blink"":true,""windows"":true,""osname"":""Windows"",""osversion"":""10"",""a"":true}","9:22:17","1","3","Test_2","74","j","1","777.5","1536 x 864","1536 x 864","true","1","10","","","","",""
"null","<p style=""font-size: 80px;"">+ 10 points</p>","null","html-keyboard-response","107","572740","0.0-11.0-2.106","5f3ec6221b5af3158bc86acd","d1873j","MD","20","F","{""name"":""Chrome"",""chrome"":true,""version"":""106.0"",""blink"":true,""windows"":true,""osname"":""Windows"",""osversion"":""10"",""a"":true}","9:22:17","1","3","Test_4","74","j","1","728.2999999523163","1536 x 864","1536 x 864","true","1","10","","","","",""
"null","<p style=""font-size: 80px;"">+ 10 points</p>","null","html-keyboard-response","108","575402","0.0-11.0-2.107","5f3ec6221b5af3158bc86acd","d1873j","MD","20","F","{""name"":""Chrome"",""chrome"":true,""version"":""106.0"",""blink"":true,""windows"":true,""osname"":""Windows"",""osversion"":""10"",""a"":true}","9:22:17","1","3","Test_3","70","f","1","649.0999999046326","1536 x 864","1536 x 864","true","1","10","","","","",""
"null","<p style=""font-size: 80px;"">+ 10 points</p>","null","html-keyboard-response","109","578441","0.0-11.0-2.108","5f3ec6221b5af3158bc86acd","d1873j","MD","20","F","{""name"":""Chrome"",""chrome"":true,""version"":""106.0"",""blink"":true,""windows"":true,""osname"":""Windows"",""osversion"":""10"",""a"":true}","9:22:17","1","3","Test_4","74","j","1","1036.5","1536 x 864","1536 x 864","true","1","10","","","","",""
"null","<p style=""font-size: 80px;"">+ 10 points</p>","null","html-keyboard-response","110","590245","0.0-11.0-2.109","5f3ec6221b5af3158bc86acd","d1873j","MD","20","F","{""name"":""Chrome"",""chrome"":true,""version"":""106.0"",""blink"":true,""windows"":true,""osname"":""Windows"",""osversion"":""10"",""a"":true}","9:22:17","1","3","Test_1","70","f","1","786.2000000476837","1536 x 864","1536 x 864","true","1","10","","","","",""
"null","<p style=""font-size: 80px;"">+ 10 points</p>","null","html-keyboard-response","111","592903","0.0-11.0-2.110","5f3ec6221b5af3158bc86acd","d1873j","MD","20","F","{""name"":""Chrome"",""chrome"":true,""version"":""106.0"",""blink"":true,""windows"":true,""osname"":""Windows"",""osversion"":""10"",""a"":true}","9:22:17","1","3","Test_4","74","j","1","654.7000000476837","1536 x 864","1536 x 864","true","1","10","","","","",""
"null","<p style=""font-size: 80px;"">+ 10 points</p>","null","html-keyboard-response","112","595662","0.0-11.0-2.111","5f3ec6221b5af3158bc86acd","d1873j","MD","20","F","{""name"":""Chrome"",""chrome"":true,""version"":""106.0"",""blink"":true,""windows"":true,""osname"":""Windows"",""osversion"":""10"",""a"":true}","9:22:17","1","3","Test_2","74","j","1","735.6999998092651","1536 x 864","1536 x 864","true","1","10","","","","",""
"null","<p style=""font-size: 80px;"">+ 10 points</p>","null","html-keyboard-response","113","598952","0.0-11.0-2.112","5f3ec6221b5af3158bc86acd","d1873j","MD","20","F","{""name"":""Chrome"",""chrome"":true,""version"":""106.0"",""blink"":true,""windows"":true,""osname"":""Windows"",""osversion"":""10"",""a"":true}","9:22:17","1","3","Test_4","74","j","1","1278.5999999046326","1536 x 864","1536 x 864","true","1","10","","","","",""
"null","<p style=""font-size: 80px;"">+ 10 points</p>","null","html-keyboard-response","114","601541","0.0-11.0-2.113","5f3ec6221b5af3158bc86acd","d1873j","MD","20","F","{""name"":""Chrome"",""chrome"":true,""version"":""106.0"",""blink"":true,""windows"":true,""osname"":""Windows"",""osversion"":""10"",""a"":true}","9:22:17","1","3","Test_1","70","f","1","577.6000001430511","1536 x 864","1536 x 864","true","1","10","","","","",""
"null","<p style=""font-size: 80px;"">+ 10 points</p>","null","html-keyboard-response","115","604210","0.0-11.0-2.114","5f3ec6221b5af3158bc86acd","d1873j","MD","20","F","{""name"":""Chrome"",""chrome"":true,""version"":""106.0"",""blink"":true,""windows"":true,""osname"":""Windows"",""osversion"":""10"",""a"":true}","9:22:17","1","3","Test_2","74","j","1","657","1536 x 864","1536 x 864","true","1","10","","","","",""
"null","<p style=""font-size: 80px;"">+ 10 points</p>","null","html-keyboard-response","116","606763","0.0-11.0-2.115","5f3ec6221b5af3158bc86acd","d1873j","MD","20","F","{""name"":""Chrome"",""chrome"":true,""version"":""106.0"",""blink"":true,""windows"":true,""osname"":""Windows"",""osversion"":""10"",""a"":true}","9:22:17","1","3","Test_1","70","f","1","538","1536 x 864","1536 x 864","true","1","10","","","","",""
"null","<p style=""font-size: 80px;"">+ 10 points</p>","null","html-keyboard-response","117","609458","0.0-11.0-2.116","5f3ec6221b5af3158bc86acd","d1873j","MD","20","F","{""name"":""Chrome"",""chrome"":true,""version"":""106.0"",""blink"":true,""windows"":true,""osname"":""Windows"",""osversion"":""10"",""a"":true}","9:22:17","1","3","Test_3","70","f","1","683.8000001907349","1536 x 864","1536 x 864","true","1","10","","","","",""
"null","<p style=""font-size: 80px;"">+ 10 points</p>","null","html-keyboard-response","118","612337","0.0-11.0-2.117","5f3ec6221b5af3158bc86acd","d1873j","MD","20","F","{""name"":""Chrome"",""chrome"":true,""version"":""106.0"",""blink"":true,""windows"":true,""osname"":""Windows"",""osversion"":""10"",""a"":true}","9:22:17","1","3","Test_3","70","f","1","867.2000000476837","1536 x 864","1536 x 864","true","1","10","","","","",""
"null","<p style=""font-size: 80px;"">+ 10 points</p>","null","html-keyboard-response","119","614971","0.0-11.0-2.118","5f3ec6221b5af3158bc86acd","d1873j","MD","20","F","{""name"":""Chrome"",""chrome"":true,""version"":""106.0"",""blink"":true,""windows"":true,""osname"":""Windows"",""osversion"":""10"",""a"":true}","9:22:17","1","3","Test_1","70","f","1","624.6000001430511","1536 x 864","1536 x 864","true","1","10","","","","",""
"null","<p style=""font-size: 80px;"">+ 10 points</p>","null","html-keyboard-response","120","617797","0.0-11.0-2.119","5f3ec6221b5af3158bc86acd","d1873j","MD","20","F","{""name"":""Chrome"",""chrome"":true,""version"":""106.0"",""blink"":true,""windows"":true,""osname"":""Windows"",""osversion"":""10"",""a"":true}","9:22:17","1","3","Test_3","70","f","1","805.0999999046326","1536 x 864","1536 x 864","true","1","10","","","","",""
"null","<p style=""font-size: 80px;"">+ 10 points</p>","null","html-keyboard-response","121","620468","0.0-11.0-2.120","5f3ec6221b5af3158bc86acd","d1873j","MD","20","F","{""name"":""Chrome"",""chrome"":true,""version"":""106.0"",""blink"":true,""windows"":true,""osname"":""Windows"",""osversion"":""10"",""a"":true}","9:22:17","1","3","Test_4","74","j","1","655.5","1536 x 864","1536 x 864","true","1","10","","","","",""
"null","<p style=""font-size: 80px;"">+ 10 points</p>","null","html-keyboard-response","122","623406","0.0-11.0-2.121","5f3ec6221b5af3158bc86acd","d1873j","MD","20","F","{""name"":""Chrome"",""chrome"":true,""version"":""106.0"",""blink"":true,""windows"":true,""osname"":""Windows"",""osversion"":""10"",""a"":true}","9:22:17","1","3","Test_2","74","j","1","924.0999999046326","1536 x 864","1536 x 864","true","1","10","","","","",""
"null","<p style=""font-size: 80px;"">+ 0 points</p>","null","html-keyboard-response","123","626417","0.0-11.0-2.122","5f3ec6221b5af3158bc86acd","d1873j","MD","20","F","{""name"":""Chrome"",""chrome"":true,""version"":""106.0"",""blink"":true,""windows"":true,""osname"":""Windows"",""osversion"":""10"",""a"":true}","9:22:17","1","4","Test_3","70","j","0","1006.5","1536 x 864","1536 x 864","true","1","0","","","","",""
"null","<p style=""font-size: 80px;"">+ 0 points</p>","null","html-keyboard-response","124","629007","0.0-11.0-2.123","5f3ec6221b5af3158bc86acd","d1873j","MD","20","F","{""name"":""Chrome"",""chrome"":true,""version"":""106.0"",""blink"":true,""windows"":true,""osname"":""Windows"",""osversion"":""10"",""a"":true}","9:22:17","1","4","Test_4","74","f","0","579.5","1536 x 864","1536 x 864","true","1","0","","","","",""
"null","<p style=""font-size: 80px;"">+ 10 points</p>","null","html-keyboard-response","125","631745","0.0-11.0-2.124","5f3ec6221b5af3158bc86acd","d1873j","MD","20","F","{""name"":""Chrome"",""chrome"":true,""version"":""106.0"",""blink"":true,""windows"":true,""osname"":""Windows"",""osversion"":""10"",""a"":true}","9:22:17","1","4","Test_1","74","j","1","711.3000001907349","1536 x 864","1536 x 864","true","1","10","","","","",""
"null","<p style=""font-size: 80px;"">+ 10 points</p>","null","html-keyboard-response","126","634601","0.0-11.0-2.125","5f3ec6221b5af3158bc86acd","d1873j","MD","20","F","{""name"":""Chrome"",""chrome"":true,""version"":""106.0"",""blink"":true,""windows"":true,""osname"":""Windows"",""osversion"":""10"",""a"":true}","9:22:17","1","4","Test_3","74","j","1","845.0999999046326","1536 x 864","1536 x 864","true","1","10","","","","",""
"null","<p style=""font-size: 80px;"">+ 10 points</p>","null","html-keyboard-response","127","637215","0.0-11.0-2.126","5f3ec6221b5af3158bc86acd","d1873j","MD","20","F","{""name"":""Chrome"",""chrome"":true,""version"":""106.0"",""blink"":true,""windows"":true,""osname"":""Windows"",""osversion"":""10"",""a"":true}","9:22:17","1","4","Test_3","74","j","1","606","1536 x 864","1536 x 864","true","1","10","","","","",""
"null","<p style=""font-size: 80px;"">+ 10 points</p>","null","html-keyboard-response","128","640030","0.0-11.0-2.127","5f3ec6221b5af3158bc86acd","d1873j","MD","20","F","{""name"":""Chrome"",""chrome"":true,""version"":""106.0"",""blink"":true,""windows"":true,""osname"":""Windows"",""osversion"":""10"",""a"":true}","9:22:17","1","4","Test_3","74","j","1","804.2999999523163","1536 x 864","1536 x 864","true","1","10","","","","",""
"null","<p style=""font-size: 80px;"">+ 0 points</p>","null","html-keyboard-response","129","642782","0.0-11.0-2.128","5f3ec6221b5af3158bc86acd","d1873j","MD","20","F","{""name"":""Chrome"",""chrome"":true,""version"":""106.0"",""blink"":true,""windows"":true,""osname"":""Windows"",""osversion"":""10"",""a"":true}","9:22:17","1","4","Test_2","74","f","0","721","1536 x 864","1536 x 864","true","1","0","","","","",""
"null","<p style=""font-size: 80px;"">+ 10 points</p>","null","html-keyboard-response","130","645521","0.0-11.0-2.129","5f3ec6221b5af3158bc86acd","d1873j","MD","20","F","{""name"":""Chrome"",""chrome"":true,""version"":""106.0"",""blink"":true,""windows"":true,""osname"":""Windows"",""osversion"":""10"",""a"":true}","9:22:17","1","4","Test_4","70","f","1","721.8999998569489","1536 x 864","1536 x 864","true","1","10","","","","",""
"null","<p style=""font-size: 80px;"">+ 10 points</p>","null","html-keyboard-response","131","648521","0.0-11.0-2.130","5f3ec6221b5af3158bc86acd","d1873j","MD","20","F","{""name"":""Chrome"",""chrome"":true,""version"":""106.0"",""blink"":true,""windows"":true,""osname"":""Windows"",""osversion"":""10"",""a"":true}","9:22:17","1","4","Test_2","70","f","1","997.7000000476837","1536 x 864","1536 x 864","true","1","10","","","","",""
"null","<p style=""font-size: 80px;"">+ 10 points</p>","null","html-keyboard-response","132","651280","0.0-11.0-2.131","5f3ec6221b5af3158bc86acd","d1873j","MD","20","F","{""name"":""Chrome"",""chrome"":true,""version"":""106.0"",""blink"":true,""windows"":true,""osname"":""Windows"",""osversion"":""10"",""a"":true}","9:22:17","1","4","Test_4","70","f","1","742.9000000953674","1536 x 864","1536 x 864","true","1","10","","","","",""
"null","<p style=""font-size: 80px;"">+ 10 points</p>","null","html-keyboard-response","133","654063","0.0-11.0-2.132","5f3ec6221b5af3158bc86acd","d1873j","MD","20","F","{""name"":""Chrome"",""chrome"":true,""version"":""106.0"",""blink"":true,""windows"":true,""osname"":""Windows"",""osversion"":""10"",""a"":true}","9:22:17","1","4","Test_2","70","f","1","774.6999998092651","1536 x 864","1536 x 864","true","1","10","","","","",""
"null","<p style=""font-size: 80px;"">+ 10 points</p>","null","html-keyboard-response","134","656649","0.0-11.0-2.133","5f3ec6221b5af3158bc86acd","d1873j","MD","20","F","{""name"":""Chrome"",""chrome"":true,""version"":""106.0"",""blink"":true,""windows"":true,""osname"":""Windows"",""osversion"":""10"",""a"":true}","9:22:17","1","4","Test_2","70","f","1","566.5999999046326","1536 x 864","1536 x 864","true","1","10","","","","",""
"null","<p style=""font-size: 80px;"">+ 10 points</p>","null","html-keyboard-response","135","659565","0.0-11.0-2.134","5f3ec6221b5af3158bc86acd","d1873j","MD","20","F","{""name"":""Chrome"",""chrome"":true,""version"":""106.0"",""blink"":true,""windows"":true,""osname"":""Windows"",""osversion"":""10"",""a"":true}","9:22:17","1","4","Test_4","70","f","1","907.2000000476837","1536 x 864","1536 x 864","true","1","10","","","","",""
"null","<p style=""font-size: 80px;"">+ 10 points</p>","null","html-keyboard-response","136","662230","0.0-11.0-2.135","5f3ec6221b5af3158bc86acd","d1873j","MD","20","F","{""name"":""Chrome"",""chrome"":true,""version"":""106.0"",""blink"":true,""windows"":true,""osname"":""Windows"",""osversion"":""10"",""a"":true}","9:22:17","1","4","Test_1","74","j","1","662.2999999523163","1536 x 864","1536 x 864","true","1","10","","","","",""
"null","<p style=""font-size: 80px;"">+ 10 points</p>","null","html-keyboard-response","137","664681","0.0-11.0-2.136","5f3ec6221b5af3158bc86acd","d1873j","MD","20","F","{""name"":""Chrome"",""chrome"":true,""version"":""106.0"",""blink"":true,""windows"":true,""osname"":""Windows"",""osversion"":""10"",""a"":true}","9:22:17","1","4","Test_1","74","j","1","447.89999985694885","1536 x 864","1536 x 864","true","1","10","","","","",""
"null","<p style=""font-size: 80px;"">+ 0 points</p>","null","html-keyboard-response","138","667288","0.0-11.0-2.137","5f3ec6221b5af3158bc86acd","d1873j","MD","20","F","{""name"":""Chrome"",""chrome"":true,""version"":""106.0"",""blink"":true,""windows"":true,""osname"":""Windows"",""osversion"":""10"",""a"":true}","9:22:17","1","4","Test_3","70","j","0","595.8999998569489","1536 x 864","1536 x 864","true","1","0","","","","",""
"null","<p style=""font-size: 80px;"">+ 10 points</p>","null","html-keyboard-response","139","670003","0.0-11.0-2.138","5f3ec6221b5af3158bc86acd","d1873j","MD","20","F","{""name"":""Chrome"",""chrome"":true,""version"":""106.0"",""blink"":true,""windows"":true,""osname"":""Windows"",""osversion"":""10"",""a"":true}","9:22:17","1","4","Test_1","74","j","1","697.7000000476837","1536 x 864","1536 x 864","true","1","10","","","","",""
"null","<p style=""font-size: 80px;"">+ 10 points</p>","null","html-keyboard-response","140","672599","0.0-11.0-2.139","5f3ec6221b5af3158bc86acd","d1873j","MD","20","F","{""name"":""Chrome"",""chrome"":true,""version"":""106.0"",""blink"":true,""windows"":true,""osname"":""Windows"",""osversion"":""10"",""a"":true}","9:22:17","1","4","Test_4","70","f","1","592.9000000953674","1536 x 864","1536 x 864","true","1","10","","","","",""
"null","<p style=""font-size: 80px;"">+ 10 points</p>","null","html-keyboard-response","141","675303","0.0-11.0-2.140","5f3ec6221b5af3158bc86acd","d1873j","MD","20","F","{""name"":""Chrome"",""chrome"":true,""version"":""106.0"",""blink"":true,""windows"":true,""osname"":""Windows"",""osversion"":""10"",""a"":true}","9:22:17","1","4","Test_2","70","f","1","700.5","1536 x 864","1536 x 864","true","1","10","","","","",""
"null","<p style=""font-size: 80px;"">+ 0 points</p>","null","html-keyboard-response","142","678087","0.0-11.0-2.141","5f3ec6221b5af3158bc86acd","d1873j","MD","20","F","{""name"":""Chrome"",""chrome"":true,""version"":""106.0"",""blink"":true,""windows"":true,""osname"":""Windows"",""osversion"":""10"",""a"":true}","9:22:17","1","3","Test_3","74","f","0","777.0999999046326","1536 x 864","1536 x 864","true","1","0","","","","",""
"null","<p style=""font-size: 80px;"">+ 10 points</p>","null","html-keyboard-response","143","680579","0.0-11.0-2.142","5f3ec6221b5af3158bc86acd","d1873j","MD","20","F","{""name"":""Chrome"",""chrome"":true,""version"":""106.0"",""blink"":true,""windows"":true,""osname"":""Windows"",""osversion"":""10"",""a"":true}","9:22:17","1","3","Test_2","74","j","1","486.7999999523163","1536 x 864","1536 x 864","true","1","10","","","","",""
"null","<p style=""font-size: 80px;"">+ 10 points</p>","null","html-keyboard-response","144","683532","0.0-11.0-2.143","5f3ec6221b5af3158bc86acd","d1873j","MD","20","F","{""name"":""Chrome"",""chrome"":true,""version"":""106.0"",""blink"":true,""windows"":true,""osname"":""Windows"",""osversion"":""10"",""a"":true}","9:22:17","1","3","Test_4","74","j","1","934.8000001907349","1536 x 864","1536 x 864","true","1","10","","","","",""
"null","<p style=""font-size: 80px;"">+ 0 points</p>","null","html-keyboard-response","145","686195","0.0-11.0-2.144","5f3ec6221b5af3158bc86acd","d1873j","MD","20","F","{""name"":""Chrome"",""chrome"":true,""version"":""106.0"",""blink"":true,""windows"":true,""osname"":""Windows"",""osversion"":""10"",""a"":true}","9:22:17","1","3","Test_4","70","j","0","649.2999999523163","1536 x 864","1536 x 864","true","1","0","","","","",""
"null","<p style=""font-size: 80px;"">+ 10 points</p>","null","html-keyboard-response","146","688918","0.0-11.0-2.145","5f3ec6221b5af3158bc86acd","d1873j","MD","20","F","{""name"":""Chrome"",""chrome"":true,""version"":""106.0"",""blink"":true,""windows"":true,""osname"":""Windows"",""osversion"":""10"",""a"":true}","9:22:17","1","3","Test_4","74","j","1","699.1000001430511","1536 x 864","1536 x 864","true","1","10","","","","",""
"null","<p style=""font-size: 80px;"">+ 0 points</p>","null","html-keyboard-response","147","691495","0.0-11.0-2.146","5f3ec6221b5af3158bc86acd","d1873j","MD","20","F","{""name"":""Chrome"",""chrome"":true,""version"":""106.0"",""blink"":true,""windows"":true,""osname"":""Windows"",""osversion"":""10"",""a"":true}","9:22:17","1","3","Test_4","70","j","0","561.4000000953674","1536 x 864","1536 x 864","true","1","0","","","","",""
"null","<p style=""font-size: 80px;"">+ 10 points</p>","null","html-keyboard-response","148","694057","0.0-11.0-2.147","5f3ec6221b5af3158bc86acd","d1873j","MD","20","F","{""name"":""Chrome"",""chrome"":true,""version"":""106.0"",""blink"":true,""windows"":true,""osname"":""Windows"",""osversion"":""10"",""a"":true}","9:22:17","1","3","Test_2","74","j","1","553.5","1536 x 864","1536 x 864","true","1","10","","","","",""
"null","<p style=""font-size: 80px;"">+ 10 points</p>","null","html-keyboard-response","149","696751","0.0-11.0-2.148","5f3ec6221b5af3158bc86acd","d1873j","MD","20","F","{""name"":""Chrome"",""chrome"":true,""version"":""106.0"",""blink"":true,""windows"":true,""osname"":""Windows"",""osversion"":""10"",""a"":true}","9:22:17","1","3","Test_3","70","f","1","680.7999999523163","1536 x 864","1536 x 864","true","1","10","","","","",""
"null","<p style=""font-size: 80px;"">+ 10 points</p>","null","html-keyboard-response","150","699531","0.0-11.0-2.149","5f3ec6221b5af3158bc86acd","d1873j","MD","20","F","{""name"":""Chrome"",""chrome"":true,""version"":""106.0"",""blink"":true,""windows"":true,""osname"":""Windows"",""osversion"":""10"",""a"":true}","9:22:17","1","3","Test_3","70","f","1","762","1536 x 864","1536 x 864","true","1","10","","","","",""
"null","<p style=""font-size: 80px;"">+ 10 points</p>","null","html-keyboard-response","151","702194","0.0-11.0-2.150","5f3ec6221b5af3158bc86acd","d1873j","MD","20","F","{""name"":""Chrome"",""chrome"":true,""version"":""106.0"",""blink"":true,""windows"":true,""osname"":""Windows"",""osversion"":""10"",""a"":true}","9:22:17","1","3","Test_1","70","f","1","642.6999998092651","1536 x 864","1536 x 864","true","1","10","","","","",""
"null","<p style=""font-size: 80px;"">+ 10 points</p>","null","html-keyboard-response","152","704842","0.0-11.0-2.151","5f3ec6221b5af3158bc86acd","d1873j","MD","20","F","{""name"":""Chrome"",""chrome"":true,""version"":""106.0"",""blink"":true,""windows"":true,""osname"":""Windows"",""osversion"":""10"",""a"":true}","9:22:17","1","3","Test_1","70","f","1","642.2000000476837","1536 x 864","1536 x 864","true","1","10","","","","",""
"null","<p style=""font-size: 80px;"">+ 10 points</p>","null","html-keyboard-response","153","707366","0.0-11.0-2.152","5f3ec6221b5af3158bc86acd","d1873j","MD","20","F","{""name"":""Chrome"",""chrome"":true,""version"":""106.0"",""blink"":true,""windows"":true,""osname"":""Windows"",""osversion"":""10"",""a"":true}","9:22:17","1","3","Test_1","70","f","1","489.10000014305115","1536 x 864","1536 x 864","true","1","10","","","","",""
"null","<p style=""font-size: 80px;"">+ 10 points</p>","null","html-keyboard-response","154","709999","0.0-11.0-2.153","5f3ec6221b5af3158bc86acd","d1873j","MD","20","F","{""name"":""Chrome"",""chrome"":true,""version"":""106.0"",""blink"":true,""windows"":true,""osname"":""Windows"",""osversion"":""10"",""a"":true}","9:22:17","1","3","Test_2","74","j","1","612.0999999046326","1536 x 864","1536 x 864","true","1","10","","","","",""
"null","<p style=""font-size: 80px;"">+ 10 points</p>","null","html-keyboard-response","155","712815","0.0-11.0-2.154","5f3ec6221b5af3158bc86acd","d1873j","MD","20","F","{""name"":""Chrome"",""chrome"":true,""version"":""106.0"",""blink"":true,""windows"":true,""osname"":""Windows"",""osversion"":""10"",""a"":true}","9:22:17","1","3","Test_1","70","f","1","789.1000001430511","1536 x 864","1536 x 864","true","1","10","","","","",""
"null","<p style=""font-size: 80px;"">+ 10 points</p>","null","html-keyboard-response","156","715638","0.0-11.0-2.155","5f3ec6221b5af3158bc86acd","d1873j","MD","20","F","{""name"":""Chrome"",""chrome"":true,""version"":""106.0"",""blink"":true,""windows"":true,""osname"":""Windows"",""osversion"":""10"",""a"":true}","9:22:17","1","3","Test_3","70","f","1","806.2999999523163","1536 x 864","1536 x 864","true","1","10","","","","",""
"null","<p style=""font-size: 80px;"">+ 10 points</p>","null","html-keyboard-response","157","718436","0.0-11.0-2.156","5f3ec6221b5af3158bc86acd","d1873j","MD","20","F","{""name"":""Chrome"",""chrome"":true,""version"":""106.0"",""blink"":true,""windows"":true,""osname"":""Windows"",""osversion"":""10"",""a"":true}","9:22:17","1","3","Test_2","74","j","1","788.3999998569489","1536 x 864","1536 x 864","true","1","10","","","","",""
"null","<p style=""font-size: 80px;"">+ 10 points</p>","null","html-keyboard-response","158","721236","0.0-11.0-2.157","5f3ec6221b5af3158bc86acd","d1873j","MD","20","F","{""name"":""Chrome"",""chrome"":true,""version"":""106.0"",""blink"":true,""windows"":true,""osname"":""Windows"",""osversion"":""10"",""a"":true}","9:22:17","1","3","Test_4","74","j","1","778.1000001430511","1536 x 864","1536 x 864","true","1","10","","","","",""
"null","<p style=""font-size: 80px;"">+ 10 points</p>","null","html-keyboard-response","159","723823","0.0-11.0-2.158","5f3ec6221b5af3158bc86acd","d1873j","MD","20","F","{""name"":""Chrome"",""chrome"":true,""version"":""106.0"",""blink"":true,""windows"":true,""osname"":""Windows"",""osversion"":""10"",""a"":true}","9:22:17","1","3","Test_2","74","j","1","572.7000000476837","1536 x 864","1536 x 864","true","1","10","","","","",""
"null","<p style=""font-size: 80px;"">+ 10 points</p>","null","html-keyboard-response","160","726562","0.0-11.0-2.159","5f3ec6221b5af3158bc86acd","d1873j","MD","20","F","{""name"":""Chrome"",""chrome"":true,""version"":""106.0"",""blink"":true,""windows"":true,""osname"":""Windows"",""osversion"":""10"",""a"":true}","9:22:17","1","3","Test_1","70","f","1","711","1536 x 864","1536 x 864","true","1","10","","","","",""
"null","<p style=""font-size: 80px;"">+ 0 points</p>","null","html-keyboard-response","161","729029","0.0-11.0-2.160","5f3ec6221b5af3158bc86acd","d1873j","MD","20","F","{""name"":""Chrome"",""chrome"":true,""version"":""106.0"",""blink"":true,""windows"":true,""osname"":""Windows"",""osversion"":""10"",""a"":true}","9:22:17","1","3","Test_3","74","f","0","448.7999999523163","1536 x 864","1536 x 864","true","1","0","","","","",""
"null","<p style=""font-size: 80px;"">+ 0 points</p>","null","html-keyboard-response","162","731626","0.0-11.0-2.161","5f3ec6221b5af3158bc86acd","d1873j","MD","20","F","{""name"":""Chrome"",""chrome"":true,""version"":""106.0"",""blink"":true,""windows"":true,""osname"":""Windows"",""osversion"":""10"",""a"":true}","9:22:17","1","4","Test_3","70","j","0","584.1999998092651","1536 x 864","1536 x 864","true","1","0","","","","",""
"null","<p style=""font-size: 80px;"">+ 10 points</p>","null","html-keyboard-response","163","734502","0.0-11.0-2.162","5f3ec6221b5af3158bc86acd","d1873j","MD","20","F","{""name"":""Chrome"",""chrome"":true,""version"":""106.0"",""blink"":true,""windows"":true,""osname"":""Windows"",""osversion"":""10"",""a"":true}","9:22:17","1","4","Test_1","74","j","1","862.2000000476837","1536 x 864","1536 x 864","true","1","10","","","","",""
"null","<p style=""font-size: 80px;"">+ 10 points</p>","null","html-keyboard-response","164","736994","0.0-11.0-2.163","5f3ec6221b5af3158bc86acd","d1873j","MD","20","F","{""name"":""Chrome"",""chrome"":true,""version"":""106.0"",""blink"":true,""windows"":true,""osname"":""Windows"",""osversion"":""10"",""a"":true}","9:22:17","1","4","Test_3","74","j","1","462.2999999523163","1536 x 864","1536 x 864","true","1","10","","","","",""
"null","<p style=""font-size: 80px;"">+ 10 points</p>","null","html-keyboard-response","165","739926","0.0-11.0-2.164","5f3ec6221b5af3158bc86acd","d1873j","MD","20","F","{""name"":""Chrome"",""chrome"":true,""version"":""106.0"",""blink"":true,""windows"":true,""osname"":""Windows"",""osversion"":""10"",""a"":true}","9:22:17","1","4","Test_4","70","f","1","924.7999999523163","1536 x 864","1536 x 864","true","1","10","","","","",""
"null","<p style=""font-size: 80px;"">+ 0 points</p>","null","html-keyboard-response","166","742711","0.0-11.0-2.165","5f3ec6221b5af3158bc86acd","d1873j","MD","20","F","{""name"":""Chrome"",""chrome"":true,""version"":""106.0"",""blink"":true,""windows"":true,""osname"":""Windows"",""osversion"":""10"",""a"":true}","9:22:17","1","4","Test_1","70","j","0","764","1536 x 864","1536 x 864","true","1","0","","","","",""
"null","<p style=""font-size: 80px;"">+ 0 points</p>","null","html-keyboard-response","167","745428","0.0-11.0-2.166","5f3ec6221b5af3158bc86acd","d1873j","MD","20","F","{""name"":""Chrome"",""chrome"":true,""version"":""106.0"",""blink"":true,""windows"":true,""osname"":""Windows"",""osversion"":""10"",""a"":true}","9:22:17","1","4","Test_3","70","j","0","710.1000001430511","1536 x 864","1536 x 864","true","1","0","","","","",""
"null","<p style=""font-size: 80px;"">+ 10 points</p>","null","html-keyboard-response","168","748070","0.0-11.0-2.167","5f3ec6221b5af3158bc86acd","d1873j","MD","20","F","{""name"":""Chrome"",""chrome"":true,""version"":""106.0"",""blink"":true,""windows"":true,""osname"":""Windows"",""osversion"":""10"",""a"":true}","9:22:17","1","4","Test_2","70","f","1","617.7000000476837","1536 x 864","1536 x 864","true","1","10","","","","",""
"null","<p style=""font-size: 80px;"">+ 0 points</p>","null","html-keyboard-response","169","751082","0.0-11.0-2.168","5f3ec6221b5af3158bc86acd","d1873j","MD","20","F","{""name"":""Chrome"",""chrome"":true,""version"":""106.0"",""blink"":true,""windows"":true,""osname"":""Windows"",""osversion"":""10"",""a"":true}","9:22:17","1","4","Test_4","74","f","0","1001.5999999046326","1536 x 864","1536 x 864","true","1","0","","","","",""
"null","<p style=""font-size: 80px;"">+ 0 points</p>","null","html-keyboard-response","170","754518","0.0-11.0-2.169","5f3ec6221b5af3158bc86acd","d1873j","MD","20","F","{""name"":""Chrome"",""chrome"":true,""version"":""106.0"",""blink"":true,""windows"":true,""osname"":""Windows"",""osversion"":""10"",""a"":true}","9:22:17","1","4","Test_1","70","j","0","1424.6000001430511","1536 x 864","1536 x 864","true","1","0","","","","",""
"null","<p style=""font-size: 80px;"">+ 10 points</p>","null","html-keyboard-response","171","757444","0.0-11.0-2.170","5f3ec6221b5af3158bc86acd","d1873j","MD","20","F","{""name"":""Chrome"",""chrome"":true,""version"":""106.0"",""blink"":true,""windows"":true,""osname"":""Windows"",""osversion"":""10"",""a"":true}","9:22:17","1","4","Test_2","70","f","1","918","1536 x 864","1536 x 864","true","1","10","","","","",""
"null","<p style=""font-size: 80px;"">+ 10 points</p>","null","html-keyboard-response","172","760042","0.0-11.0-2.171","5f3ec6221b5af3158bc86acd","d1873j","MD","20","F","{""name"":""Chrome"",""chrome"":true,""version"":""106.0"",""blink"":true,""windows"":true,""osname"":""Windows"",""osversion"":""10"",""a"":true}","9:22:17","1","4","Test_2","70","f","1","594.2999999523163","1536 x 864","1536 x 864","true","1","10","","","","",""
"null","<p style=""font-size: 80px;"">+ 10 points</p>","null","html-keyboard-response","173","762725","0.0-11.0-2.172","5f3ec6221b5af3158bc86acd","d1873j","MD","20","F","{""name"":""Chrome"",""chrome"":true,""version"":""106.0"",""blink"":true,""windows"":true,""osname"":""Windows"",""osversion"":""10"",""a"":true}","9:22:17","1","4","Test_1","74","j","1","677.0999999046326","1536 x 864","1536 x 864","true","1","10","","","","",""
"null","<p style=""font-size: 80px;"">+ 10 points</p>","null","html-keyboard-response","174","765607","0.0-11.0-2.173","5f3ec6221b5af3158bc86acd","d1873j","MD","20","F","{""name"":""Chrome"",""chrome"":true,""version"":""106.0"",""blink"":true,""windows"":true,""osname"":""Windows"",""osversion"":""10"",""a"":true}","9:22:17","1","4","Test_4","70","f","1","861.2000000476837","1536 x 864","1536 x 864","true","1","10","","","","",""
"null","<p style=""font-size: 80px;"">+ 0 points</p>","null","html-keyboard-response","175","768378","0.0-11.0-2.174","5f3ec6221b5af3158bc86acd","d1873j","MD","20","F","{""name"":""Chrome"",""chrome"":true,""version"":""106.0"",""blink"":true,""windows"":true,""osname"":""Windows"",""osversion"":""10"",""a"":true}","9:22:17","1","4","Test_3","70","j","0","757.7000000476837","1536 x 864","1536 x 864","true","1","0","","","","",""
"null","<p style=""font-size: 80px;"">+ 10 points</p>","null","html-keyboard-response","176","771016","0.0-11.0-2.175","5f3ec6221b5af3158bc86acd","d1873j","MD","20","F","{""name"":""Chrome"",""chrome"":true,""version"":""106.0"",""blink"":true,""windows"":true,""osname"":""Windows"",""osversion"":""10"",""a"":true}","9:22:17","1","4","Test_4","70","f","1","631.2999999523163","1536 x 864","1536 x 864","true","1","10","","","","",""
"null","<p style=""font-size: 80px;"">+ 10 points</p>","null","html-keyboard-response","177","773973","0.0-11.0-2.176","5f3ec6221b5af3158bc86acd","d1873j","MD","20","F","{""name"":""Chrome"",""chrome"":true,""version"":""106.0"",""blink"":true,""windows"":true,""osname"":""Windows"",""osversion"":""10"",""a"":true}","9:22:17","1","3","Test_1","70","f","1","948.2999999523163","1536 x 864","1536 x 864","true","1","10","","","","",""
"null","<p style=""font-size: 80px;"">+ 10 points</p>","null","html-keyboard-response","178","776746","0.0-11.0-2.177","5f3ec6221b5af3158bc86acd","d1873j","MD","20","F","{""name"":""Chrome"",""chrome"":true,""version"":""106.0"",""blink"":true,""windows"":true,""osname"":""Windows"",""osversion"":""10"",""a"":true}","9:22:17","1","3","Test_4","74","j","1","754.5999999046326","1536 x 864","1536 x 864","true","1","10","","","","",""
"null","<p style=""font-size: 80px;"">+ 10 points</p>","null","html-keyboard-response","179","779543","0.0-11.0-2.178","5f3ec6221b5af3158bc86acd","d1873j","MD","20","F","{""name"":""Chrome"",""chrome"":true,""version"":""106.0"",""blink"":true,""windows"":true,""osname"":""Windows"",""osversion"":""10"",""a"":true}","9:22:17","1","3","Test_4","74","j","1","787.1000001430511","1536 x 864","1536 x 864","true","1","10","","","","",""
"null","<p style=""font-size: 80px;"">+ 10 points</p>","null","html-keyboard-response","180","782185","0.0-11.0-2.179","5f3ec6221b5af3158bc86acd","d1873j","MD","20","F","{""name"":""Chrome"",""chrome"":true,""version"":""106.0"",""blink"":true,""windows"":true,""osname"":""Windows"",""osversion"":""10"",""a"":true}","9:22:17","1","3","Test_1","70","f","1","634.5999999046326","1536 x 864","1536 x 864","true","1","10","","","","",""
"null","<p style=""font-size: 80px;"">+ 10 points</p>","null","html-keyboard-response","181","785096","0.0-11.0-2.180","5f3ec6221b5af3158bc86acd","d1873j","MD","20","F","{""name"":""Chrome"",""chrome"":true,""version"":""106.0"",""blink"":true,""windows"":true,""osname"":""Windows"",""osversion"":""10"",""a"":true}","9:22:17","1","3","Test_2","74","j","1","895.1000001430511","1536 x 864","1536 x 864","true","1","10","","","","",""
"null","<p style=""font-size: 80px;"">+ 10 points</p>","null","html-keyboard-response","182","787643","0.0-11.0-2.181","5f3ec6221b5af3158bc86acd","d1873j","MD","20","F","{""name"":""Chrome"",""chrome"":true,""version"":""106.0"",""blink"":true,""windows"":true,""osname"":""Windows"",""osversion"":""10"",""a"":true}","9:22:17","1","3","Test_2","74","j","1","529.7999999523163","1536 x 864","1536 x 864","true","1","10","","","","",""
"null","<p style=""font-size: 80px;"">+ 10 points</p>","null","html-keyboard-response","183","790317","0.0-11.0-2.182","5f3ec6221b5af3158bc86acd","d1873j","MD","20","F","{""name"":""Chrome"",""chrome"":true,""version"":""106.0"",""blink"":true,""windows"":true,""osname"":""Windows"",""osversion"":""10"",""a"":true}","9:22:17","1","3","Test_1","70","f","1","663.4000000953674","1536 x 864","1536 x 864","true","1","10","","","","",""
"null","<p style=""font-size: 80px;"">+ 10 points</p>","null","html-keyboard-response","184","793274","0.0-11.0-2.183","5f3ec6221b5af3158bc86acd","d1873j","MD","20","F","{""name"":""Chrome"",""chrome"":true,""version"":""106.0"",""blink"":true,""windows"":true,""osname"":""Windows"",""osversion"":""10"",""a"":true}","9:22:17","1","3","Test_4","74","j","1","943.5","1536 x 864","1536 x 864","true","1","10","","","","",""
"null","<p style=""font-size: 80px;"">+ 10 points</p>","null","html-keyboard-response","185","795913","0.0-11.0-2.184","5f3ec6221b5af3158bc86acd","d1873j","MD","20","F","{""name"":""Chrome"",""chrome"":true,""version"":""106.0"",""blink"":true,""windows"":true,""osname"":""Windows"",""osversion"":""10"",""a"":true}","9:22:17","1","3","Test_4","74","j","1","624.3999998569489","1536 x 864","1536 x 864","true","1","10","","","","",""
"null","<p style=""font-size: 80px;"">+ 10 points</p>","null","html-keyboard-response","186","798673","0.0-11.0-2.185","5f3ec6221b5af3158bc86acd","d1873j","MD","20","F","{""name"":""Chrome"",""chrome"":true,""version"":""106.0"",""blink"":true,""windows"":true,""osname"":""Windows"",""osversion"":""10"",""a"":true}","9:22:17","1","3","Test_3","70","f","1","735.7999999523163","1536 x 864","1536 x 864","true","1","10","","","","",""
"null","<p style=""font-size: 80px;"">+ 10 points</p>","null","html-keyboard-response","187","801199","0.0-11.0-2.186","5f3ec6221b5af3158bc86acd","d1873j","MD","20","F","{""name"":""Chrome"",""chrome"":true,""version"":""106.0"",""blink"":true,""windows"":true,""osname"":""Windows"",""osversion"":""10"",""a"":true}","9:22:17","1","3","Test_4","74","j","1","512.0999999046326","1536 x 864","1536 x 864","true","1","10","","","","",""
"null","<p style=""font-size: 80px;"">+ 10 points</p>","null","html-keyboard-response","188","803966","0.0-11.0-2.187","5f3ec6221b5af3158bc86acd","d1873j","MD","20","F","{""name"":""Chrome"",""chrome"":true,""version"":""106.0"",""blink"":true,""windows"":true,""osname"":""Windows"",""osversion"":""10"",""a"":true}","9:22:17","1","3","Test_1","70","f","1","753.0999999046326","1536 x 864","1536 x 864","true","1","10","","","","",""
"null","<p style=""font-size: 80px;"">+ 10 points</p>","null","html-keyboard-response","189","806759","0.0-11.0-2.188","5f3ec6221b5af3158bc86acd","d1873j","MD","20","F","{""name"":""Chrome"",""chrome"":true,""version"":""106.0"",""blink"":true,""windows"":true,""osname"":""Windows"",""osversion"":""10"",""a"":true}","9:22:17","1","3","Test_3","70","f","1","784.5","1536 x 864","1536 x 864","true","1","10","","","","",""
