"rt","stimulus","key_press","trial_type","trial_index","time_elapsed","internal_node_id","Prolific_ID","random_ID","initials","age","gender","pc_info","start_time","Phase","Rule","Stimulus","Response","CorrResp","Accuracy","ResponseTime","screen_resolution","window_resolution","focus","relevant","Points","responses","question_order","rev_check","butterfly_check","passed_practice"
"null","<p style=""font-size: 80px;"">+ 0 points</p>","null","html-keyboard-response","1","176384","0.0-7.0-2.0","612f4efe7a2e36e60e3254a7","duu45t","MR","31","F","{""name"":""Chrome"",""chrome"":true,""version"":""106.0"",""blink"":true,""windows"":true,""osname"":""Windows"",""osversion"":""10"",""a"":true}","9:16:16","0","1","Practice_2","70","j","0","967.2999999970198","1366 x 768","1366 x 768","true","1","0","","","","",""
"null","<p style=""font-size: 80px;"">+ 10 points</p>","null","html-keyboard-response","2","179409","0.0-7.0-2.1","612f4efe7a2e36e60e3254a7","duu45t","MR","31","F","{""name"":""Chrome"",""chrome"":true,""version"":""106.0"",""blink"":true,""windows"":true,""osname"":""Windows"",""osversion"":""10"",""a"":true}","9:16:16","0","1","Practice_3","70","f","1","997.0999999940395","1366 x 768","1366 x 768","true","1","10","","","","",""
"null","<p style=""font-size: 80px;"">+ 10 points</p>","null","html-keyboard-response","3","182816","0.0-7.0-2.2","612f4efe7a2e36e60e3254a7","duu45t","MR","31","F","{""name"":""Chrome"",""chrome"":true,""version"":""106.0"",""blink"":true,""windows"":true,""osname"":""Windows"",""osversion"":""10"",""a"":true}","9:16:16","0","1","Practice_1","70","f","1","1393.5","1366 x 768","1366 x 768","true","1","10","","","","",""
"null","<p style=""font-size: 80px;"">+ 10 points</p>","null","html-keyboard-response","4","186080","0.0-7.0-2.3","612f4efe7a2e36e60e3254a7","duu45t","MR","31","F","{""name"":""Chrome"",""chrome"":true,""version"":""106.0"",""blink"":true,""windows"":true,""osname"":""Windows"",""osversion"":""10"",""a"":true}","9:16:16","0","1","Practice_4","74","j","1","1238.2999999970198","1366 x 768","1366 x 768","true","1","10","","","","",""
"null","<p style=""font-size: 80px;"">+ 10 points</p>","null","html-keyboard-response","5","189513","0.0-7.0-2.4","612f4efe7a2e36e60e3254a7","duu45t","MR","31","F","{""name"":""Chrome"",""chrome"":true,""version"":""106.0"",""blink"":true,""windows"":true,""osname"":""Windows"",""osversion"":""10"",""a"":true}","9:16:16","0","1","Practice_1","70","f","1","1410.0999999940395","1366 x 768","1366 x 768","true","1","10","","","","",""
"null","<p style=""font-size: 80px;"">+ 10 points</p>","null","html-keyboard-response","6","192263","0.0-7.0-2.5","612f4efe7a2e36e60e3254a7","duu45t","MR","31","F","{""name"":""Chrome"",""chrome"":true,""version"":""106.0"",""blink"":true,""windows"":true,""osname"":""Windows"",""osversion"":""10"",""a"":true}","9:16:16","0","1","Practice_3","70","f","1","727","1366 x 768","1366 x 768","true","1","10","","","","",""
"null","<p style=""font-size: 80px;"">+ 10 points</p>","null","html-keyboard-response","7","194845","0.0-7.0-2.6","612f4efe7a2e36e60e3254a7","duu45t","MR","31","F","{""name"":""Chrome"",""chrome"":true,""version"":""106.0"",""blink"":true,""windows"":true,""osname"":""Windows"",""osversion"":""10"",""a"":true}","9:16:16","0","1","Practice_4","74","j","1","565.8000000119209","1366 x 768","1366 x 768","true","1","10","","","","",""
"null","<p style=""font-size: 80px;"">+ 10 points</p>","null","html-keyboard-response","8","197712","0.0-7.0-2.7","612f4efe7a2e36e60e3254a7","duu45t","MR","31","F","{""name"":""Chrome"",""chrome"":true,""version"":""106.0"",""blink"":true,""windows"":true,""osname"":""Windows"",""osversion"":""10"",""a"":true}","9:16:16","0","1","Practice_2","74","j","1","830.3999999910593","1366 x 768","1366 x 768","true","1","10","","","","",""
"null","<p style=""font-size: 80px;"">+ 10 points</p>","null","html-keyboard-response","9","201044","0.0-7.0-2.8","612f4efe7a2e36e60e3254a7","duu45t","MR","31","F","{""name"":""Chrome"",""chrome"":true,""version"":""106.0"",""blink"":true,""windows"":true,""osname"":""Windows"",""osversion"":""10"",""a"":true}","9:16:16","0","1","Practice_3","70","f","1","1304.2999999970198","1366 x 768","1366 x 768","true","1","10","","","","",""
"null","<p style=""font-size: 80px;"">+ 10 points</p>","null","html-keyboard-response","10","203710","0.0-7.0-2.9","612f4efe7a2e36e60e3254a7","duu45t","MR","31","F","{""name"":""Chrome"",""chrome"":true,""version"":""106.0"",""blink"":true,""windows"":true,""osname"":""Windows"",""osversion"":""10"",""a"":true}","9:16:16","0","1","Practice_3","70","f","1","640.1000000089407","1366 x 768","1366 x 768","true","1","10","","","","",""
"null","<p style=""font-size: 80px;"">+ 10 points</p>","null","html-keyboard-response","11","206460","0.0-7.0-2.10","612f4efe7a2e36e60e3254a7","duu45t","MR","31","F","{""name"":""Chrome"",""chrome"":true,""version"":""106.0"",""blink"":true,""windows"":true,""osname"":""Windows"",""osversion"":""10"",""a"":true}","9:16:16","0","1","Practice_4","74","j","1","718.7999999970198","1366 x 768","1366 x 768","true","1","10","","","","",""
"null","<p style=""font-size: 80px;"">+ 10 points</p>","null","html-keyboard-response","12","209201","0.0-7.0-2.11","612f4efe7a2e36e60e3254a7","duu45t","MR","31","F","{""name"":""Chrome"",""chrome"":true,""version"":""106.0"",""blink"":true,""windows"":true,""osname"":""Windows"",""osversion"":""10"",""a"":true}","9:16:16","0","1","Practice_1","70","f","1","704.3000000119209","1366 x 768","1366 x 768","true","1","10","","","","",""
"null","<p style=""font-size: 80px;"">+ 10 points</p>","null","html-keyboard-response","13","212092","0.0-7.0-2.12","612f4efe7a2e36e60e3254a7","duu45t","MR","31","F","{""name"":""Chrome"",""chrome"":true,""version"":""106.0"",""blink"":true,""windows"":true,""osname"":""Windows"",""osversion"":""10"",""a"":true}","9:16:16","0","1","Practice_3","70","f","1","865.7999999970198","1366 x 768","1366 x 768","true","1","10","","","","",""
"null","<p style=""font-size: 80px;"">+ 10 points</p>","null","html-keyboard-response","14","215091","0.0-7.0-2.13","612f4efe7a2e36e60e3254a7","duu45t","MR","31","F","{""name"":""Chrome"",""chrome"":true,""version"":""106.0"",""blink"":true,""windows"":true,""osname"":""Windows"",""osversion"":""10"",""a"":true}","9:16:16","0","1","Practice_2","74","j","1","964.5999999940395","1366 x 768","1366 x 768","true","1","10","","","","",""
"null","<p style=""font-size: 80px;"">+ 10 points</p>","null","html-keyboard-response","15","217658","0.0-7.0-2.14","612f4efe7a2e36e60e3254a7","duu45t","MR","31","F","{""name"":""Chrome"",""chrome"":true,""version"":""106.0"",""blink"":true,""windows"":true,""osname"":""Windows"",""osversion"":""10"",""a"":true}","9:16:16","0","1","Practice_1","70","f","1","539.7999999970198","1366 x 768","1366 x 768","true","1","10","","","","",""
"null","<p style=""font-size: 80px;"">+ 10 points</p>","null","html-keyboard-response","16","220491","0.0-7.0-2.15","612f4efe7a2e36e60e3254a7","duu45t","MR","31","F","{""name"":""Chrome"",""chrome"":true,""version"":""106.0"",""blink"":true,""windows"":true,""osname"":""Windows"",""osversion"":""10"",""a"":true}","9:16:16","0","1","Practice_4","74","j","1","796.5999999940395","1366 x 768","1366 x 768","true","1","10","","","","",""
"null","<p style=""font-size: 80px;"">+ 10 points</p>","null","html-keyboard-response","17","223307","0.0-7.0-2.16","612f4efe7a2e36e60e3254a7","duu45t","MR","31","F","{""name"":""Chrome"",""chrome"":true,""version"":""106.0"",""blink"":true,""windows"":true,""osname"":""Windows"",""osversion"":""10"",""a"":true}","9:16:16","0","1","Practice_4","74","j","1","794","1366 x 768","1366 x 768","true","1","10","","","","",""
"null","<p style=""font-size: 80px;"">+ 10 points</p>","null","html-keyboard-response","18","226073","0.0-7.0-2.17","612f4efe7a2e36e60e3254a7","duu45t","MR","31","F","{""name"":""Chrome"",""chrome"":true,""version"":""106.0"",""blink"":true,""windows"":true,""osname"":""Windows"",""osversion"":""10"",""a"":true}","9:16:16","0","1","Practice_2","74","j","1","745.2999999970198","1366 x 768","1366 x 768","true","1","10","","","","",""
"null","<p style=""font-size: 80px;"">+ 10 points</p>","null","html-keyboard-response","19","228756","0.0-7.0-2.18","612f4efe7a2e36e60e3254a7","duu45t","MR","31","F","{""name"":""Chrome"",""chrome"":true,""version"":""106.0"",""blink"":true,""windows"":true,""osname"":""Windows"",""osversion"":""10"",""a"":true}","9:16:16","0","1","Practice_2","74","j","1","657.5","1366 x 768","1366 x 768","true","1","10","","","","",""
"null","<p style=""font-size: 80px;"">+ 10 points</p>","null","html-keyboard-response","20","231306","0.0-7.0-2.19","612f4efe7a2e36e60e3254a7","duu45t","MR","31","F","{""name"":""Chrome"",""chrome"":true,""version"":""106.0"",""blink"":true,""windows"":true,""osname"":""Windows"",""osversion"":""10"",""a"":true}","9:16:16","0","1","Practice_1","70","f","1","526.2999999970198","1366 x 768","1366 x 768","true","1","10","","","","",""
"null","<p style=""font-size: 80px;"">+ 0 points</p>","null","html-keyboard-response","21","233933","0.0-7.0-2.20","612f4efe7a2e36e60e3254a7","duu45t","MR","31","F","{""name"":""Chrome"",""chrome"":true,""version"":""106.0"",""blink"":true,""windows"":true,""osname"":""Windows"",""osversion"":""10"",""a"":true}","9:16:16","0","2","Practice_3","70","j","0","590.1000000089407","1366 x 768","1366 x 768","true","1","0","","","","",""
"null","<p style=""font-size: 80px;"">+ 10 points</p>","null","html-keyboard-response","22","236468","0.0-7.0-2.21","612f4efe7a2e36e60e3254a7","duu45t","MR","31","F","{""name"":""Chrome"",""chrome"":true,""version"":""106.0"",""blink"":true,""windows"":true,""osname"":""Windows"",""osversion"":""10"",""a"":true}","9:16:16","0","2","Practice_2","70","f","1","514.2000000029802","1366 x 768","1366 x 768","true","1","10","","","","",""
"null","<p style=""font-size: 80px;"">+ 10 points</p>","null","html-keyboard-response","23","239107","0.0-7.0-2.22","612f4efe7a2e36e60e3254a7","duu45t","MR","31","F","{""name"":""Chrome"",""chrome"":true,""version"":""106.0"",""blink"":true,""windows"":true,""osname"":""Windows"",""osversion"":""10"",""a"":true}","9:16:16","0","2","Practice_2","70","f","1","616.2000000029802","1366 x 768","1366 x 768","true","1","10","","","","",""
"null","<p style=""font-size: 80px;"">+ 10 points</p>","null","html-keyboard-response","24","241565","0.0-7.0-2.23","612f4efe7a2e36e60e3254a7","duu45t","MR","31","F","{""name"":""Chrome"",""chrome"":true,""version"":""106.0"",""blink"":true,""windows"":true,""osname"":""Windows"",""osversion"":""10"",""a"":true}","9:16:16","0","2","Practice_3","74","j","1","439.40000000596046","1366 x 768","1366 x 768","true","1","10","","","","",""
"null","<p style=""font-size: 80px;"">+ 10 points</p>","null","html-keyboard-response","25","244265","0.0-7.0-2.24","612f4efe7a2e36e60e3254a7","duu45t","MR","31","F","{""name"":""Chrome"",""chrome"":true,""version"":""106.0"",""blink"":true,""windows"":true,""osname"":""Windows"",""osversion"":""10"",""a"":true}","9:16:16","0","2","Practice_1","74","j","1","668","1366 x 768","1366 x 768","true","1","10","","","","",""
"null","<p style=""font-size: 80px;"">+ 10 points</p>","null","html-keyboard-response","26","247848","0.0-7.0-2.25","612f4efe7a2e36e60e3254a7","duu45t","MR","31","F","{""name"":""Chrome"",""chrome"":true,""version"":""106.0"",""blink"":true,""windows"":true,""osname"":""Windows"",""osversion"":""10"",""a"":true}","9:16:16","0","2","Practice_3","74","j","1","1557.0999999940395","1366 x 768","1366 x 768","true","1","10","","","","",""
"null","<p style=""font-size: 80px;"">+ 10 points</p>","null","html-keyboard-response","27","250480","0.0-7.0-2.26","612f4efe7a2e36e60e3254a7","duu45t","MR","31","F","{""name"":""Chrome"",""chrome"":true,""version"":""106.0"",""blink"":true,""windows"":true,""osname"":""Windows"",""osversion"":""10"",""a"":true}","9:16:16","0","2","Practice_4","70","f","1","596.7000000029802","1366 x 768","1366 x 768","true","1","10","","","","",""
"null","<p style=""font-size: 80px;"">+ 10 points</p>","null","html-keyboard-response","28","253164","0.0-7.0-2.27","612f4efe7a2e36e60e3254a7","duu45t","MR","31","F","{""name"":""Chrome"",""chrome"":true,""version"":""106.0"",""blink"":true,""windows"":true,""osname"":""Windows"",""osversion"":""10"",""a"":true}","9:16:16","0","2","Practice_3","74","j","1","658.9000000059605","1366 x 768","1366 x 768","true","1","10","","","","",""
"null","<p style=""font-size: 80px;"">+ 10 points</p>","null","html-keyboard-response","29","255947","0.0-7.0-2.28","612f4efe7a2e36e60e3254a7","duu45t","MR","31","F","{""name"":""Chrome"",""chrome"":true,""version"":""106.0"",""blink"":true,""windows"":true,""osname"":""Windows"",""osversion"":""10"",""a"":true}","9:16:16","0","2","Practice_4","70","f","1","760.2999999970198","1366 x 768","1366 x 768","true","1","10","","","","",""
"null","<p style=""font-size: 80px;"">+ 10 points</p>","null","html-keyboard-response","30","258728","0.0-7.0-2.29","612f4efe7a2e36e60e3254a7","duu45t","MR","31","F","{""name"":""Chrome"",""chrome"":true,""version"":""106.0"",""blink"":true,""windows"":true,""osname"":""Windows"",""osversion"":""10"",""a"":true}","9:16:16","0","2","Practice_2","70","f","1","747.6000000089407","1366 x 768","1366 x 768","true","1","10","","","","",""
"null","<p style=""font-size: 80px;"">+ 10 points</p>","null","html-keyboard-response","31","261344","0.0-7.0-2.30","612f4efe7a2e36e60e3254a7","duu45t","MR","31","F","{""name"":""Chrome"",""chrome"":true,""version"":""106.0"",""blink"":true,""windows"":true,""osname"":""Windows"",""osversion"":""10"",""a"":true}","9:16:16","0","2","Practice_1","74","j","1","584.2000000029802","1366 x 768","1366 x 768","true","1","10","","","","",""
"null","<p style=""font-size: 80px;"">+ 10 points</p>","null","html-keyboard-response","32","264177","0.0-7.0-2.31","612f4efe7a2e36e60e3254a7","duu45t","MR","31","F","{""name"":""Chrome"",""chrome"":true,""version"":""106.0"",""blink"":true,""windows"":true,""osname"":""Windows"",""osversion"":""10"",""a"":true}","9:16:16","0","2","Practice_4","70","f","1","812.3999999910593","1366 x 768","1366 x 768","true","1","10","","","","",""
"null","<p style=""font-size: 80px;"">+ 0 points</p>","null","html-keyboard-response","33","267193","0.0-7.0-2.32","612f4efe7a2e36e60e3254a7","duu45t","MR","31","F","{""name"":""Chrome"",""chrome"":true,""version"":""106.0"",""blink"":true,""windows"":true,""osname"":""Windows"",""osversion"":""10"",""a"":true}","9:16:16","0","2","Practice_1","70","j","0","993.3999999910593","1366 x 768","1366 x 768","true","1","0","","","","",""
"null","<p style=""font-size: 80px;"">+ 0 points</p>","null","html-keyboard-response","34","270744","0.0-7.0-2.33","612f4efe7a2e36e60e3254a7","duu45t","MR","31","F","{""name"":""Chrome"",""chrome"":true,""version"":""106.0"",""blink"":true,""windows"":true,""osname"":""Windows"",""osversion"":""10"",""a"":true}","9:16:16","0","2","Practice_4","74","f","0","1528.7999999970198","1366 x 768","1366 x 768","true","1","0","","","","",""
"null","<p style=""font-size: 80px;"">+ 10 points</p>","null","html-keyboard-response","35","274059","0.0-7.0-2.34","612f4efe7a2e36e60e3254a7","duu45t","MR","31","F","{""name"":""Chrome"",""chrome"":true,""version"":""106.0"",""blink"":true,""windows"":true,""osname"":""Windows"",""osversion"":""10"",""a"":true}","9:16:16","0","2","Practice_2","70","f","1","1287.5","1366 x 768","1366 x 768","true","1","10","","","","",""
"null","<p style=""font-size: 80px;"">+ 10 points</p>","null","html-keyboard-response","36","277059","0.0-7.0-2.35","612f4efe7a2e36e60e3254a7","duu45t","MR","31","F","{""name"":""Chrome"",""chrome"":true,""version"":""106.0"",""blink"":true,""windows"":true,""osname"":""Windows"",""osversion"":""10"",""a"":true}","9:16:16","0","2","Practice_3","74","j","1","977.1000000089407","1366 x 768","1366 x 768","true","1","10","","","","",""
"null","<p style=""font-size: 80px;"">+ 10 points</p>","null","html-keyboard-response","37","280041","0.0-7.0-2.36","612f4efe7a2e36e60e3254a7","duu45t","MR","31","F","{""name"":""Chrome"",""chrome"":true,""version"":""106.0"",""blink"":true,""windows"":true,""osname"":""Windows"",""osversion"":""10"",""a"":true}","9:16:16","0","2","Practice_2","70","f","1","952.5","1366 x 768","1366 x 768","true","1","10","","","","",""
"null","<p style=""font-size: 80px;"">+ 10 points</p>","null","html-keyboard-response","38","282757","0.0-7.0-2.37","612f4efe7a2e36e60e3254a7","duu45t","MR","31","F","{""name"":""Chrome"",""chrome"":true,""version"":""106.0"",""blink"":true,""windows"":true,""osname"":""Windows"",""osversion"":""10"",""a"":true}","9:16:16","0","2","Practice_1","74","j","1","662.2000000029802","1366 x 768","1366 x 768","true","1","10","","","","",""
"null","<p style=""font-size: 80px;"">+ 10 points</p>","null","html-keyboard-response","39","285657","0.0-7.0-2.38","612f4efe7a2e36e60e3254a7","duu45t","MR","31","F","{""name"":""Chrome"",""chrome"":true,""version"":""106.0"",""blink"":true,""windows"":true,""osname"":""Windows"",""osversion"":""10"",""a"":true}","9:16:16","0","2","Practice_4","70","f","1","871.9000000059605","1366 x 768","1366 x 768","true","1","10","","","","",""
"null","<p style=""font-size: 80px;"">+ 10 points</p>","null","html-keyboard-response","40","288406","0.0-7.0-2.39","612f4efe7a2e36e60e3254a7","duu45t","MR","31","F","{""name"":""Chrome"",""chrome"":true,""version"":""106.0"",""blink"":true,""windows"":true,""osname"":""Windows"",""osversion"":""10"",""a"":true}","9:16:16","0","2","Practice_1","74","j","1","717.5999999940395","1366 x 768","1366 x 768","true","1","10","","","","",""
"15566.20000000298","","","survey-multi-choice","127","303977","0.0-8.0","612f4efe7a2e36e60e3254a7","duu45t","MR","31","F","{""name"":""Chrome"",""chrome"":true,""version"":""106.0"",""blink"":true,""windows"":true,""osname"":""Windows"",""osversion"":""10"",""a"":true}","9:16:16","","","","","","","","","","","1","","{""Q0"":""The red one"",""Q1"":""1""}","[0,1]","1","The red one","2"
"null","<p style=""font-size: 80px;"">+ 10 points</p>","null","html-keyboard-response","1","315218","0.0-11.0-2.0","612f4efe7a2e36e60e3254a7","duu45t","MR","31","F","{""name"":""Chrome"",""chrome"":true,""version"":""106.0"",""blink"":true,""windows"":true,""osname"":""Windows"",""osversion"":""10"",""a"":true}","9:16:16","1","4","Test_2","70","f","1","1025.4000000059605","1366 x 768","1366 x 768","true","1","10","","","","",""
"null","<p style=""font-size: 80px;"">+ 0 points</p>","null","html-keyboard-response","2","318265","0.0-11.0-2.1","612f4efe7a2e36e60e3254a7","duu45t","MR","31","F","{""name"":""Chrome"",""chrome"":true,""version"":""106.0"",""blink"":true,""windows"":true,""osname"":""Windows"",""osversion"":""10"",""a"":true}","9:16:16","1","4","Test_3","70","j","0","1013.6999999880791","1366 x 768","1366 x 768","true","1","0","","","","",""
"null","<p style=""font-size: 80px;"">+ 10 points</p>","null","html-keyboard-response","3","321615","0.0-11.0-2.2","612f4efe7a2e36e60e3254a7","duu45t","MR","31","F","{""name"":""Chrome"",""chrome"":true,""version"":""106.0"",""blink"":true,""windows"":true,""osname"":""Windows"",""osversion"":""10"",""a"":true}","9:16:16","1","4","Test_3","74","j","1","1329","1366 x 768","1366 x 768","true","1","10","","","","",""
"null","<p style=""font-size: 80px;"">+ 10 points</p>","null","html-keyboard-response","4","324166","0.0-11.0-2.3","612f4efe7a2e36e60e3254a7","duu45t","MR","31","F","{""name"":""Chrome"",""chrome"":true,""version"":""106.0"",""blink"":true,""windows"":true,""osname"":""Windows"",""osversion"":""10"",""a"":true}","9:16:16","1","4","Test_2","70","f","1","523.2000000029802","1366 x 768","1366 x 768","true","1","10","","","","",""
"null","<p style=""font-size: 80px;"">+ 10 points</p>","null","html-keyboard-response","5","326765","0.0-11.0-2.4","612f4efe7a2e36e60e3254a7","duu45t","MR","31","F","{""name"":""Chrome"",""chrome"":true,""version"":""106.0"",""blink"":true,""windows"":true,""osname"":""Windows"",""osversion"":""10"",""a"":true}","9:16:16","1","4","Test_3","74","j","1","571.2000000029802","1366 x 768","1366 x 768","true","1","10","","","","",""
"null","<p style=""font-size: 80px;"">+ 10 points</p>","null","html-keyboard-response","6","329273","0.0-11.0-2.5","612f4efe7a2e36e60e3254a7","duu45t","MR","31","F","{""name"":""Chrome"",""chrome"":true,""version"":""106.0"",""blink"":true,""windows"":true,""osname"":""Windows"",""osversion"":""10"",""a"":true}","9:16:16","1","4","Test_3","74","j","1","491.40000000596046","1366 x 768","1366 x 768","true","1","10","","","","",""
"null","<p style=""font-size: 80px;"">+ 10 points</p>","null","html-keyboard-response","7","332415","0.0-11.0-2.6","612f4efe7a2e36e60e3254a7","duu45t","MR","31","F","{""name"":""Chrome"",""chrome"":true,""version"":""106.0"",""blink"":true,""windows"":true,""osname"":""Windows"",""osversion"":""10"",""a"":true}","9:16:16","1","4","Test_1","74","j","1","1127.5999999940395","1366 x 768","1366 x 768","true","1","10","","","","",""
"null","<p style=""font-size: 80px;"">+ 10 points</p>","null","html-keyboard-response","8","335262","0.0-11.0-2.7","612f4efe7a2e36e60e3254a7","duu45t","MR","31","F","{""name"":""Chrome"",""chrome"":true,""version"":""106.0"",""blink"":true,""windows"":true,""osname"":""Windows"",""osversion"":""10"",""a"":true}","9:16:16","1","4","Test_4","70","f","1","824.5","1366 x 768","1366 x 768","true","1","10","","","","",""
"null","<p style=""font-size: 80px;"">+ 10 points</p>","null","html-keyboard-response","9","338165","0.0-11.0-2.8","612f4efe7a2e36e60e3254a7","duu45t","MR","31","F","{""name"":""Chrome"",""chrome"":true,""version"":""106.0"",""blink"":true,""windows"":true,""osname"":""Windows"",""osversion"":""10"",""a"":true}","9:16:16","1","4","Test_1","74","j","1","877.1000000089407","1366 x 768","1366 x 768","true","1","10","","","","",""
"null","<p style=""font-size: 80px;"">+ 10 points</p>","null","html-keyboard-response","10","341062","0.0-11.0-2.9","612f4efe7a2e36e60e3254a7","duu45t","MR","31","F","{""name"":""Chrome"",""chrome"":true,""version"":""106.0"",""blink"":true,""windows"":true,""osname"":""Windows"",""osversion"":""10"",""a"":true}","9:16:16","1","4","Test_2","70","f","1","863.9000000059605","1366 x 768","1366 x 768","true","1","10","","","","",""
"null","<p style=""font-size: 80px;"">+ 10 points</p>","null","html-keyboard-response","11","343982","0.0-11.0-2.10","612f4efe7a2e36e60e3254a7","duu45t","MR","31","F","{""name"":""Chrome"",""chrome"":true,""version"":""106.0"",""blink"":true,""windows"":true,""osname"":""Windows"",""osversion"":""10"",""a"":true}","9:16:16","1","4","Test_4","70","f","1","890.5","1366 x 768","1366 x 768","true","1","10","","","","",""
"null","<p style=""font-size: 80px;"">+ 10 points</p>","null","html-keyboard-response","12","346661","0.0-11.0-2.11","612f4efe7a2e36e60e3254a7","duu45t","MR","31","F","{""name"":""Chrome"",""chrome"":true,""version"":""106.0"",""blink"":true,""windows"":true,""osname"":""Windows"",""osversion"":""10"",""a"":true}","9:16:16","1","4","Test_4","70","f","1","653.1000000089407","1366 x 768","1366 x 768","true","1","10","","","","",""
"null","<p style=""font-size: 80px;"">+ 10 points</p>","null","html-keyboard-response","13","349244","0.0-11.0-2.12","612f4efe7a2e36e60e3254a7","duu45t","MR","31","F","{""name"":""Chrome"",""chrome"":true,""version"":""106.0"",""blink"":true,""windows"":true,""osname"":""Windows"",""osversion"":""10"",""a"":true}","9:16:16","1","4","Test_2","70","f","1","561.2000000029802","1366 x 768","1366 x 768","true","1","10","","","","",""
"null","<p style=""font-size: 80px;"">+ 10 points</p>","null","html-keyboard-response","14","351879","0.0-11.0-2.13","612f4efe7a2e36e60e3254a7","duu45t","MR","31","F","{""name"":""Chrome"",""chrome"":true,""version"":""106.0"",""blink"":true,""windows"":true,""osname"":""Windows"",""osversion"":""10"",""a"":true}","9:16:16","1","4","Test_1","74","j","1","610.2000000029802","1366 x 768","1366 x 768","true","1","10","","","","",""
"null","<p style=""font-size: 80px;"">+ 10 points</p>","null","html-keyboard-response","15","354559","0.0-11.0-2.14","612f4efe7a2e36e60e3254a7","duu45t","MR","31","F","{""name"":""Chrome"",""chrome"":true,""version"":""106.0"",""blink"":true,""windows"":true,""osname"":""Windows"",""osversion"":""10"",""a"":true}","9:16:16","1","4","Test_1","74","j","1","648.2999999970198","1366 x 768","1366 x 768","true","1","10","","","","",""
"null","<p style=""font-size: 80px;"">+ 10 points</p>","null","html-keyboard-response","16","357159","0.0-11.0-2.15","612f4efe7a2e36e60e3254a7","duu45t","MR","31","F","{""name"":""Chrome"",""chrome"":true,""version"":""106.0"",""blink"":true,""windows"":true,""osname"":""Windows"",""osversion"":""10"",""a"":true}","9:16:16","1","4","Test_4","70","f","1","572.8999999910593","1366 x 768","1366 x 768","true","1","10","","","","",""
"null","<p style=""font-size: 80px;"">+ 0 points</p>","null","html-keyboard-response","17","359891","0.0-11.0-2.16","612f4efe7a2e36e60e3254a7","duu45t","MR","31","F","{""name"":""Chrome"",""chrome"":true,""version"":""106.0"",""blink"":true,""windows"":true,""osname"":""Windows"",""osversion"":""10"",""a"":true}","9:16:16","1","3","Test_1","74","f","0","700.2999999970198","1366 x 768","1366 x 768","true","1","0","","","","",""
"null","<p style=""font-size: 80px;"">+ 10 points</p>","null","html-keyboard-response","18","363007","0.0-11.0-2.17","612f4efe7a2e36e60e3254a7","duu45t","MR","31","F","{""name"":""Chrome"",""chrome"":true,""version"":""106.0"",""blink"":true,""windows"":true,""osname"":""Windows"",""osversion"":""10"",""a"":true}","9:16:16","1","3","Test_3","70","f","1","1085.7000000029802","1366 x 768","1366 x 768","true","1","10","","","","",""
"null","<p style=""font-size: 80px;"">+ 10 points</p>","null","html-keyboard-response","19","366274","0.0-11.0-2.18","612f4efe7a2e36e60e3254a7","duu45t","MR","31","F","{""name"":""Chrome"",""chrome"":true,""version"":""106.0"",""blink"":true,""windows"":true,""osname"":""Windows"",""osversion"":""10"",""a"":true}","9:16:16","1","3","Test_2","74","j","1","1232","1366 x 768","1366 x 768","true","1","10","","","","",""
"null","<p style=""font-size: 80px;"">+ 10 points</p>","null","html-keyboard-response","20","368955","0.0-11.0-2.19","612f4efe7a2e36e60e3254a7","duu45t","MR","31","F","{""name"":""Chrome"",""chrome"":true,""version"":""106.0"",""blink"":true,""windows"":true,""osname"":""Windows"",""osversion"":""10"",""a"":true}","9:16:16","1","3","Test_3","70","f","1","657.2000000029802","1366 x 768","1366 x 768","true","1","10","","","","",""
"null","<p style=""font-size: 80px;"">+ 10 points</p>","null","html-keyboard-response","21","371838","0.0-11.0-2.20","612f4efe7a2e36e60e3254a7","duu45t","MR","31","F","{""name"":""Chrome"",""chrome"":true,""version"":""106.0"",""blink"":true,""windows"":true,""osname"":""Windows"",""osversion"":""10"",""a"":true}","9:16:16","1","3","Test_1","70","f","1","856.8000000119209","1366 x 768","1366 x 768","true","1","10","","","","",""
"null","<p style=""font-size: 80px;"">+ 10 points</p>","null","html-keyboard-response","22","374972","0.0-11.0-2.21","612f4efe7a2e36e60e3254a7","duu45t","MR","31","F","{""name"":""Chrome"",""chrome"":true,""version"":""106.0"",""blink"":true,""windows"":true,""osname"":""Windows"",""osversion"":""10"",""a"":true}","9:16:16","1","3","Test_3","70","f","1","1099.5999999940395","1366 x 768","1366 x 768","true","1","10","","","","",""
"null","<p style=""font-size: 80px;"">+ 10 points</p>","null","html-keyboard-response","23","377672","0.0-11.0-2.22","612f4efe7a2e36e60e3254a7","duu45t","MR","31","F","{""name"":""Chrome"",""chrome"":true,""version"":""106.0"",""blink"":true,""windows"":true,""osname"":""Windows"",""osversion"":""10"",""a"":true}","9:16:16","1","3","Test_4","74","j","1","677.2999999970198","1366 x 768","1366 x 768","true","1","10","","","","",""
"null","<p style=""font-size: 80px;"">+ 10 points</p>","null","html-keyboard-response","24","380571","0.0-11.0-2.23","612f4efe7a2e36e60e3254a7","duu45t","MR","31","F","{""name"":""Chrome"",""chrome"":true,""version"":""106.0"",""blink"":true,""windows"":true,""osname"":""Windows"",""osversion"":""10"",""a"":true}","9:16:16","1","3","Test_1","70","f","1","864.6000000089407","1366 x 768","1366 x 768","true","1","10","","","","",""
"null","<p style=""font-size: 80px;"">+ 10 points</p>","null","html-keyboard-response","25","383386","0.0-11.0-2.24","612f4efe7a2e36e60e3254a7","duu45t","MR","31","F","{""name"":""Chrome"",""chrome"":true,""version"":""106.0"",""blink"":true,""windows"":true,""osname"":""Windows"",""osversion"":""10"",""a"":true}","9:16:16","1","3","Test_4","74","j","1","781","1366 x 768","1366 x 768","true","1","10","","","","",""
"null","<p style=""font-size: 80px;"">+ 10 points</p>","null","html-keyboard-response","26","386169","0.0-11.0-2.25","612f4efe7a2e36e60e3254a7","duu45t","MR","31","F","{""name"":""Chrome"",""chrome"":true,""version"":""106.0"",""blink"":true,""windows"":true,""osname"":""Windows"",""osversion"":""10"",""a"":true}","9:16:16","1","3","Test_2","74","j","1","755.7000000029802","1366 x 768","1366 x 768","true","1","10","","","","",""
"null","<p style=""font-size: 80px;"">+ 10 points</p>","null","html-keyboard-response","27","389050","0.0-11.0-2.26","612f4efe7a2e36e60e3254a7","duu45t","MR","31","F","{""name"":""Chrome"",""chrome"":true,""version"":""106.0"",""blink"":true,""windows"":true,""osname"":""Windows"",""osversion"":""10"",""a"":true}","9:16:16","1","3","Test_2","74","j","1","852.5","1366 x 768","1366 x 768","true","1","10","","","","",""
"null","<p style=""font-size: 80px;"">+ 10 points</p>","null","html-keyboard-response","28","391735","0.0-11.0-2.27","612f4efe7a2e36e60e3254a7","duu45t","MR","31","F","{""name"":""Chrome"",""chrome"":true,""version"":""106.0"",""blink"":true,""windows"":true,""osname"":""Windows"",""osversion"":""10"",""a"":true}","9:16:16","1","3","Test_2","74","j","1","672.1999999880791","1366 x 768","1366 x 768","true","1","10","","","","",""
"null","<p style=""font-size: 80px;"">+ 10 points</p>","null","html-keyboard-response","29","394400","0.0-11.0-2.28","612f4efe7a2e36e60e3254a7","duu45t","MR","31","F","{""name"":""Chrome"",""chrome"":true,""version"":""106.0"",""blink"":true,""windows"":true,""osname"":""Windows"",""osversion"":""10"",""a"":true}","9:16:16","1","3","Test_2","74","j","1","636.5","1366 x 768","1366 x 768","true","1","10","","","","",""
"null","<p style=""font-size: 80px;"">+ 10 points</p>","null","html-keyboard-response","30","397101","0.0-11.0-2.29","612f4efe7a2e36e60e3254a7","duu45t","MR","31","F","{""name"":""Chrome"",""chrome"":true,""version"":""106.0"",""blink"":true,""windows"":true,""osname"":""Windows"",""osversion"":""10"",""a"":true}","9:16:16","1","3","Test_1","70","f","1","666","1366 x 768","1366 x 768","true","1","10","","","","",""
"null","<p style=""font-size: 80px;"">+ 10 points</p>","null","html-keyboard-response","31","399732","0.0-11.0-2.30","612f4efe7a2e36e60e3254a7","duu45t","MR","31","F","{""name"":""Chrome"",""chrome"":true,""version"":""106.0"",""blink"":true,""windows"":true,""osname"":""Windows"",""osversion"":""10"",""a"":true}","9:16:16","1","3","Test_3","70","f","1","604.7000000029802","1366 x 768","1366 x 768","true","1","10","","","","",""
"null","<p style=""font-size: 80px;"">+ 10 points</p>","null","html-keyboard-response","32","403005","0.0-11.0-2.31","612f4efe7a2e36e60e3254a7","duu45t","MR","31","F","{""name"":""Chrome"",""chrome"":true,""version"":""106.0"",""blink"":true,""windows"":true,""osname"":""Windows"",""osversion"":""10"",""a"":true}","9:16:16","1","3","Test_2","74","j","1","1243.0999999940395","1366 x 768","1366 x 768","true","1","10","","","","",""
"null","<p style=""font-size: 80px;"">+ 10 points</p>","null","html-keyboard-response","33","405815","0.0-11.0-2.32","612f4efe7a2e36e60e3254a7","duu45t","MR","31","F","{""name"":""Chrome"",""chrome"":true,""version"":""106.0"",""blink"":true,""windows"":true,""osname"":""Windows"",""osversion"":""10"",""a"":true}","9:16:16","1","3","Test_4","74","j","1","782.8999999910593","1366 x 768","1366 x 768","true","1","10","","","","",""
"null","<p style=""font-size: 80px;"">+ 10 points</p>","null","html-keyboard-response","34","408348","0.0-11.0-2.33","612f4efe7a2e36e60e3254a7","duu45t","MR","31","F","{""name"":""Chrome"",""chrome"":true,""version"":""106.0"",""blink"":true,""windows"":true,""osname"":""Windows"",""osversion"":""10"",""a"":true}","9:16:16","1","3","Test_1","70","f","1","502.40000000596046","1366 x 768","1366 x 768","true","1","10","","","","",""
"null","<p style=""font-size: 80px;"">+ 10 points</p>","null","html-keyboard-response","35","411149","0.0-11.0-2.34","612f4efe7a2e36e60e3254a7","duu45t","MR","31","F","{""name"":""Chrome"",""chrome"":true,""version"":""106.0"",""blink"":true,""windows"":true,""osname"":""Windows"",""osversion"":""10"",""a"":true}","9:16:16","1","3","Test_4","74","j","1","776","1366 x 768","1366 x 768","true","1","10","","","","",""
"null","<p style=""font-size: 80px;"">+ 10 points</p>","null","html-keyboard-response","36","413746","0.0-11.0-2.35","612f4efe7a2e36e60e3254a7","duu45t","MR","31","F","{""name"":""Chrome"",""chrome"":true,""version"":""106.0"",""blink"":true,""windows"":true,""osname"":""Windows"",""osversion"":""10"",""a"":true}","9:16:16","1","3","Test_3","70","f","1","568.2999999970198","1366 x 768","1366 x 768","true","1","10","","","","",""
"null","<p style=""font-size: 80px;"">+ 10 points</p>","null","html-keyboard-response","37","416497","0.0-11.0-2.36","612f4efe7a2e36e60e3254a7","duu45t","MR","31","F","{""name"":""Chrome"",""chrome"":true,""version"":""106.0"",""blink"":true,""windows"":true,""osname"":""Windows"",""osversion"":""10"",""a"":true}","9:16:16","1","3","Test_4","74","j","1","740","1366 x 768","1366 x 768","true","1","10","","","","",""
"null","<p style=""font-size: 80px;"">+ 0 points</p>","null","html-keyboard-response","38","419487","0.0-11.0-2.37","612f4efe7a2e36e60e3254a7","duu45t","MR","31","F","{""name"":""Chrome"",""chrome"":true,""version"":""106.0"",""blink"":true,""windows"":true,""osname"":""Windows"",""osversion"":""10"",""a"":true}","9:16:16","1","4","Test_3","70","j","0","968.7000000029802","1366 x 768","1366 x 768","true","1","0","","","","",""
"null","<p style=""font-size: 80px;"">+ 10 points</p>","null","html-keyboard-response","39","422449","0.0-11.0-2.38","612f4efe7a2e36e60e3254a7","duu45t","MR","31","F","{""name"":""Chrome"",""chrome"":true,""version"":""106.0"",""blink"":true,""windows"":true,""osname"":""Windows"",""osversion"":""10"",""a"":true}","9:16:16","1","4","Test_1","74","j","1","944.2000000029802","1366 x 768","1366 x 768","true","1","10","","","","",""
"null","<p style=""font-size: 80px;"">+ 10 points</p>","null","html-keyboard-response","40","425476","0.0-11.0-2.39","612f4efe7a2e36e60e3254a7","duu45t","MR","31","F","{""name"":""Chrome"",""chrome"":true,""version"":""106.0"",""blink"":true,""windows"":true,""osname"":""Windows"",""osversion"":""10"",""a"":true}","9:16:16","1","4","Test_4","70","f","1","1002.6999999880791","1366 x 768","1366 x 768","true","1","10","","","","",""
"null","<p style=""font-size: 80px;"">+ 10 points</p>","null","html-keyboard-response","41","428559","0.0-11.0-2.40","612f4efe7a2e36e60e3254a7","duu45t","MR","31","F","{""name"":""Chrome"",""chrome"":true,""version"":""106.0"",""blink"":true,""windows"":true,""osname"":""Windows"",""osversion"":""10"",""a"":true}","9:16:16","1","4","Test_2","70","f","1","1056.5999999940395","1366 x 768","1366 x 768","true","1","10","","","","",""
"null","<p style=""font-size: 80px;"">+ 10 points</p>","null","html-keyboard-response","42","431242","0.0-11.0-2.41","612f4efe7a2e36e60e3254a7","duu45t","MR","31","F","{""name"":""Chrome"",""chrome"":true,""version"":""106.0"",""blink"":true,""windows"":true,""osname"":""Windows"",""osversion"":""10"",""a"":true}","9:16:16","1","4","Test_1","74","j","1","665.5999999940395","1366 x 768","1366 x 768","true","1","10","","","","",""
"null","<p style=""font-size: 80px;"">+ 10 points</p>","null","html-keyboard-response","43","434100","0.0-11.0-2.42","612f4efe7a2e36e60e3254a7","duu45t","MR","31","F","{""name"":""Chrome"",""chrome"":true,""version"":""106.0"",""blink"":true,""windows"":true,""osname"":""Windows"",""osversion"":""10"",""a"":true}","9:16:16","1","4","Test_4","70","f","1","834.2000000029802","1366 x 768","1366 x 768","true","1","10","","","","",""
"null","<p style=""font-size: 80px;"">+ 10 points</p>","null","html-keyboard-response","44","437140","0.0-11.0-2.43","612f4efe7a2e36e60e3254a7","duu45t","MR","31","F","{""name"":""Chrome"",""chrome"":true,""version"":""106.0"",""blink"":true,""windows"":true,""osname"":""Windows"",""osversion"":""10"",""a"":true}","9:16:16","1","4","Test_2","70","f","1","1016.2999999970198","1366 x 768","1366 x 768","true","1","10","","","","",""
"null","<p style=""font-size: 80px;"">+ 10 points</p>","null","html-keyboard-response","45","440107","0.0-11.0-2.44","612f4efe7a2e36e60e3254a7","duu45t","MR","31","F","{""name"":""Chrome"",""chrome"":true,""version"":""106.0"",""blink"":true,""windows"":true,""osname"":""Windows"",""osversion"":""10"",""a"":true}","9:16:16","1","4","Test_1","74","j","1","932.9000000059605","1366 x 768","1366 x 768","true","1","10","","","","",""
"null","<p style=""font-size: 80px;"">+ 10 points</p>","null","html-keyboard-response","46","442922","0.0-11.0-2.45","612f4efe7a2e36e60e3254a7","duu45t","MR","31","F","{""name"":""Chrome"",""chrome"":true,""version"":""106.0"",""blink"":true,""windows"":true,""osname"":""Windows"",""osversion"":""10"",""a"":true}","9:16:16","1","4","Test_3","74","j","1","788.5","1366 x 768","1366 x 768","true","1","10","","","","",""
"null","<p style=""font-size: 80px;"">+ 10 points</p>","null","html-keyboard-response","47","445756","0.0-11.0-2.46","612f4efe7a2e36e60e3254a7","duu45t","MR","31","F","{""name"":""Chrome"",""chrome"":true,""version"":""106.0"",""blink"":true,""windows"":true,""osname"":""Windows"",""osversion"":""10"",""a"":true}","9:16:16","1","4","Test_1","74","j","1","812.1000000089407","1366 x 768","1366 x 768","true","1","10","","","","",""
"null","<p style=""font-size: 80px;"">+ 10 points</p>","null","html-keyboard-response","48","448622","0.0-11.0-2.47","612f4efe7a2e36e60e3254a7","duu45t","MR","31","F","{""name"":""Chrome"",""chrome"":true,""version"":""106.0"",""blink"":true,""windows"":true,""osname"":""Windows"",""osversion"":""10"",""a"":true}","9:16:16","1","4","Test_3","74","j","1","840.1000000089407","1366 x 768","1366 x 768","true","1","10","","","","",""
"null","<p style=""font-size: 80px;"">+ 10 points</p>","null","html-keyboard-response","49","451870","0.0-11.0-2.48","612f4efe7a2e36e60e3254a7","duu45t","MR","31","F","{""name"":""Chrome"",""chrome"":true,""version"":""106.0"",""blink"":true,""windows"":true,""osname"":""Windows"",""osversion"":""10"",""a"":true}","9:16:16","1","4","Test_1","74","j","1","1221.7000000029802","1366 x 768","1366 x 768","true","1","10","","","","",""
"null","<p style=""font-size: 80px;"">+ 10 points</p>","null","html-keyboard-response","50","454486","0.0-11.0-2.49","612f4efe7a2e36e60e3254a7","duu45t","MR","31","F","{""name"":""Chrome"",""chrome"":true,""version"":""106.0"",""blink"":true,""windows"":true,""osname"":""Windows"",""osversion"":""10"",""a"":true}","9:16:16","1","4","Test_4","70","f","1","588.8000000119209","1366 x 768","1366 x 768","true","1","10","","","","",""
"null","<p style=""font-size: 80px;"">+ 10 points</p>","null","html-keyboard-response","51","457469","0.0-11.0-2.50","612f4efe7a2e36e60e3254a7","duu45t","MR","31","F","{""name"":""Chrome"",""chrome"":true,""version"":""106.0"",""blink"":true,""windows"":true,""osname"":""Windows"",""osversion"":""10"",""a"":true}","9:16:16","1","4","Test_2","70","f","1","955.7000000029802","1366 x 768","1366 x 768","true","1","10","","","","",""
"null","<p style=""font-size: 80px;"">+ 10 points</p>","null","html-keyboard-response","52","460252","0.0-11.0-2.51","612f4efe7a2e36e60e3254a7","duu45t","MR","31","F","{""name"":""Chrome"",""chrome"":true,""version"":""106.0"",""blink"":true,""windows"":true,""osname"":""Windows"",""osversion"":""10"",""a"":true}","9:16:16","1","4","Test_4","70","f","1","763.5999999940395","1366 x 768","1366 x 768","true","1","10","","","","",""
"null","<p style=""font-size: 80px;"">+ 10 points</p>","null","html-keyboard-response","53","463221","0.0-11.0-2.52","612f4efe7a2e36e60e3254a7","duu45t","MR","31","F","{""name"":""Chrome"",""chrome"":true,""version"":""106.0"",""blink"":true,""windows"":true,""osname"":""Windows"",""osversion"":""10"",""a"":true}","9:16:16","1","4","Test_4","70","f","1","933.2999999970198","1366 x 768","1366 x 768","true","1","10","","","","",""
"null","<p style=""font-size: 80px;"">+ 10 points</p>","null","html-keyboard-response","54","466284","0.0-11.0-2.53","612f4efe7a2e36e60e3254a7","duu45t","MR","31","F","{""name"":""Chrome"",""chrome"":true,""version"":""106.0"",""blink"":true,""windows"":true,""osname"":""Windows"",""osversion"":""10"",""a"":true}","9:16:16","1","4","Test_2","70","f","1","1037.1000000089407","1366 x 768","1366 x 768","true","1","10","","","","",""
"null","<p style=""font-size: 80px;"">+ 10 points</p>","null","html-keyboard-response","55","469200","0.0-11.0-2.54","612f4efe7a2e36e60e3254a7","duu45t","MR","31","F","{""name"":""Chrome"",""chrome"":true,""version"":""106.0"",""blink"":true,""windows"":true,""osname"":""Windows"",""osversion"":""10"",""a"":true}","9:16:16","1","4","Test_2","70","f","1","883.7000000029802","1366 x 768","1366 x 768","true","1","10","","","","",""
"null","<p style=""font-size: 80px;"">+ 10 points</p>","null","html-keyboard-response","56","471866","0.0-11.0-2.55","612f4efe7a2e36e60e3254a7","duu45t","MR","31","F","{""name"":""Chrome"",""chrome"":true,""version"":""106.0"",""blink"":true,""windows"":true,""osname"":""Windows"",""osversion"":""10"",""a"":true}","9:16:16","1","4","Test_4","70","f","1","639.5","1366 x 768","1366 x 768","true","1","10","","","","",""
"null","<p style=""font-size: 80px;"">+ 10 points</p>","null","html-keyboard-response","57","474900","0.0-11.0-2.56","612f4efe7a2e36e60e3254a7","duu45t","MR","31","F","{""name"":""Chrome"",""chrome"":true,""version"":""106.0"",""blink"":true,""windows"":true,""osname"":""Windows"",""osversion"":""10"",""a"":true}","9:16:16","1","4","Test_1","74","j","1","1012.2000000029802","1366 x 768","1366 x 768","true","1","10","","","","",""
"null","<p style=""font-size: 80px;"">+ 10 points</p>","null","html-keyboard-response","58","477532","0.0-11.0-2.57","612f4efe7a2e36e60e3254a7","duu45t","MR","31","F","{""name"":""Chrome"",""chrome"":true,""version"":""106.0"",""blink"":true,""windows"":true,""osname"":""Windows"",""osversion"":""10"",""a"":true}","9:16:16","1","4","Test_3","74","j","1","602.5","1366 x 768","1366 x 768","true","1","10","","","","",""
"null","<p style=""font-size: 80px;"">+ 10 points</p>","null","html-keyboard-response","59","480450","0.0-11.0-2.58","612f4efe7a2e36e60e3254a7","duu45t","MR","31","F","{""name"":""Chrome"",""chrome"":true,""version"":""106.0"",""blink"":true,""windows"":true,""osname"":""Windows"",""osversion"":""10"",""a"":true}","9:16:16","1","4","Test_2","70","f","1","887.0999999940395","1366 x 768","1366 x 768","true","1","10","","","","",""
"null","<p style=""font-size: 80px;"">+ 10 points</p>","null","html-keyboard-response","60","483250","0.0-11.0-2.59","612f4efe7a2e36e60e3254a7","duu45t","MR","31","F","{""name"":""Chrome"",""chrome"":true,""version"":""106.0"",""blink"":true,""windows"":true,""osname"":""Windows"",""osversion"":""10"",""a"":true}","9:16:16","1","4","Test_3","74","j","1","763.1000000089407","1366 x 768","1366 x 768","true","1","10","","","","",""
"null","<p style=""font-size: 80px;"">+ 0 points</p>","null","html-keyboard-response","61","485900","0.0-11.0-2.60","612f4efe7a2e36e60e3254a7","duu45t","MR","31","F","{""name"":""Chrome"",""chrome"":true,""version"":""106.0"",""blink"":true,""windows"":true,""osname"":""Windows"",""osversion"":""10"",""a"":true}","9:16:16","1","3","Test_4","70","j","0","625.9000000059605","1366 x 768","1366 x 768","true","1","0","","","","",""
"null","<p style=""font-size: 80px;"">+ 10 points</p>","null","html-keyboard-response","62","489248","0.0-11.0-2.61","612f4efe7a2e36e60e3254a7","duu45t","MR","31","F","{""name"":""Chrome"",""chrome"":true,""version"":""106.0"",""blink"":true,""windows"":true,""osname"":""Windows"",""osversion"":""10"",""a"":true}","9:16:16","1","3","Test_1","70","f","1","1317.9000000059605","1366 x 768","1366 x 768","true","1","10","","","","",""
"null","<p style=""font-size: 80px;"">+ 10 points</p>","null","html-keyboard-response","63","492465","0.0-11.0-2.62","612f4efe7a2e36e60e3254a7","duu45t","MR","31","F","{""name"":""Chrome"",""chrome"":true,""version"":""106.0"",""blink"":true,""windows"":true,""osname"":""Windows"",""osversion"":""10"",""a"":true}","9:16:16","1","3","Test_3","70","f","1","1192.9000000059605","1366 x 768","1366 x 768","true","1","10","","","","",""
"null","<p style=""font-size: 80px;"">+ 10 points</p>","null","html-keyboard-response","64","495233","0.0-11.0-2.63","612f4efe7a2e36e60e3254a7","duu45t","MR","31","F","{""name"":""Chrome"",""chrome"":true,""version"":""106.0"",""blink"":true,""windows"":true,""osname"":""Windows"",""osversion"":""10"",""a"":true}","9:16:16","1","3","Test_3","70","f","1","742","1366 x 768","1366 x 768","true","1","10","","","","",""
"null","<p style=""font-size: 80px;"">+ 10 points</p>","null","html-keyboard-response","65","498079","0.0-11.0-2.64","612f4efe7a2e36e60e3254a7","duu45t","MR","31","F","{""name"":""Chrome"",""chrome"":true,""version"":""106.0"",""blink"":true,""windows"":true,""osname"":""Windows"",""osversion"":""10"",""a"":true}","9:16:16","1","3","Test_4","74","j","1","816.7000000029802","1366 x 768","1366 x 768","true","1","10","","","","",""
"null","<p style=""font-size: 80px;"">+ 10 points</p>","null","html-keyboard-response","66","500795","0.0-11.0-2.65","612f4efe7a2e36e60e3254a7","duu45t","MR","31","F","{""name"":""Chrome"",""chrome"":true,""version"":""106.0"",""blink"":true,""windows"":true,""osname"":""Windows"",""osversion"":""10"",""a"":true}","9:16:16","1","3","Test_3","70","f","1","686.7000000029802","1366 x 768","1366 x 768","true","1","10","","","","",""
"null","<p style=""font-size: 80px;"">+ 10 points</p>","null","html-keyboard-response","67","503729","0.0-11.0-2.66","612f4efe7a2e36e60e3254a7","duu45t","MR","31","F","{""name"":""Chrome"",""chrome"":true,""version"":""106.0"",""blink"":true,""windows"":true,""osname"":""Windows"",""osversion"":""10"",""a"":true}","9:16:16","1","3","Test_2","74","j","1","897.2000000029802","1366 x 768","1366 x 768","true","1","10","","","","",""
"null","<p style=""font-size: 80px;"">+ 10 points</p>","null","html-keyboard-response","68","506527","0.0-11.0-2.67","612f4efe7a2e36e60e3254a7","duu45t","MR","31","F","{""name"":""Chrome"",""chrome"":true,""version"":""106.0"",""blink"":true,""windows"":true,""osname"":""Windows"",""osversion"":""10"",""a"":true}","9:16:16","1","3","Test_4","74","j","1","772.5","1366 x 768","1366 x 768","true","1","10","","","","",""
"null","<p style=""font-size: 80px;"">+ 10 points</p>","null","html-keyboard-response","69","509311","0.0-11.0-2.68","612f4efe7a2e36e60e3254a7","duu45t","MR","31","F","{""name"":""Chrome"",""chrome"":true,""version"":""106.0"",""blink"":true,""windows"":true,""osname"":""Windows"",""osversion"":""10"",""a"":true}","9:16:16","1","3","Test_3","70","f","1","761.7999999970198","1366 x 768","1366 x 768","true","1","10","","","","",""
"null","<p style=""font-size: 80px;"">+ 10 points</p>","null","html-keyboard-response","70","512010","0.0-11.0-2.69","612f4efe7a2e36e60e3254a7","duu45t","MR","31","F","{""name"":""Chrome"",""chrome"":true,""version"":""106.0"",""blink"":true,""windows"":true,""osname"":""Windows"",""osversion"":""10"",""a"":true}","9:16:16","1","3","Test_3","70","f","1","666.5","1366 x 768","1366 x 768","true","1","10","","","","",""
"null","<p style=""font-size: 80px;"">+ 10 points</p>","null","html-keyboard-response","71","514694","0.0-11.0-2.70","612f4efe7a2e36e60e3254a7","duu45t","MR","31","F","{""name"":""Chrome"",""chrome"":true,""version"":""106.0"",""blink"":true,""windows"":true,""osname"":""Windows"",""osversion"":""10"",""a"":true}","9:16:16","1","3","Test_1","70","f","1","661.8999999910593","1366 x 768","1366 x 768","true","1","10","","","","",""
"null","<p style=""font-size: 80px;"">+ 10 points</p>","null","html-keyboard-response","72","517709","0.0-11.0-2.71","612f4efe7a2e36e60e3254a7","duu45t","MR","31","F","{""name"":""Chrome"",""chrome"":true,""version"":""106.0"",""blink"":true,""windows"":true,""osname"":""Windows"",""osversion"":""10"",""a"":true}","9:16:16","1","3","Test_4","74","j","1","987.7000000029802","1366 x 768","1366 x 768","true","1","10","","","","",""
"null","<p style=""font-size: 80px;"">+ 10 points</p>","null","html-keyboard-response","73","520358","0.0-11.0-2.72","612f4efe7a2e36e60e3254a7","duu45t","MR","31","F","{""name"":""Chrome"",""chrome"":true,""version"":""106.0"",""blink"":true,""windows"":true,""osname"":""Windows"",""osversion"":""10"",""a"":true}","9:16:16","1","3","Test_4","74","j","1","620.5999999940395","1366 x 768","1366 x 768","true","1","10","","","","",""
"null","<p style=""font-size: 80px;"">+ 10 points</p>","null","html-keyboard-response","74","523475","0.0-11.0-2.73","612f4efe7a2e36e60e3254a7","duu45t","MR","31","F","{""name"":""Chrome"",""chrome"":true,""version"":""106.0"",""blink"":true,""windows"":true,""osname"":""Windows"",""osversion"":""10"",""a"":true}","9:16:16","1","3","Test_1","70","f","1","1080.9000000059605","1366 x 768","1366 x 768","true","1","10","","","","",""
"null","<p style=""font-size: 80px;"">+ 10 points</p>","null","html-keyboard-response","75","526075","0.0-11.0-2.74","612f4efe7a2e36e60e3254a7","duu45t","MR","31","F","{""name"":""Chrome"",""chrome"":true,""version"":""106.0"",""blink"":true,""windows"":true,""osname"":""Windows"",""osversion"":""10"",""a"":true}","9:16:16","1","3","Test_2","74","j","1","573.2999999970198","1366 x 768","1366 x 768","true","1","10","","","","",""
"null","<p style=""font-size: 80px;"">+ 10 points</p>","null","html-keyboard-response","76","529057","0.0-11.0-2.75","612f4efe7a2e36e60e3254a7","duu45t","MR","31","F","{""name"":""Chrome"",""chrome"":true,""version"":""106.0"",""blink"":true,""windows"":true,""osname"":""Windows"",""osversion"":""10"",""a"":true}","9:16:16","1","3","Test_2","74","j","1","950.9000000059605","1366 x 768","1366 x 768","true","1","10","","","","",""
"null","<p style=""font-size: 80px;"">+ 10 points</p>","null","html-keyboard-response","77","531806","0.0-11.0-2.76","612f4efe7a2e36e60e3254a7","duu45t","MR","31","F","{""name"":""Chrome"",""chrome"":true,""version"":""106.0"",""blink"":true,""windows"":true,""osname"":""Windows"",""osversion"":""10"",""a"":true}","9:16:16","1","3","Test_3","70","f","1","718.2999999970198","1366 x 768","1366 x 768","true","1","10","","","","",""
"null","<p style=""font-size: 80px;"">+ 10 points</p>","null","html-keyboard-response","78","534406","0.0-11.0-2.77","612f4efe7a2e36e60e3254a7","duu45t","MR","31","F","{""name"":""Chrome"",""chrome"":true,""version"":""106.0"",""blink"":true,""windows"":true,""osname"":""Windows"",""osversion"":""10"",""a"":true}","9:16:16","1","3","Test_1","70","f","1","569.4000000059605","1366 x 768","1366 x 768","true","1","10","","","","",""
"null","<p style=""font-size: 80px;"">+ 10 points</p>","null","html-keyboard-response","79","537655","0.0-11.0-2.78","612f4efe7a2e36e60e3254a7","duu45t","MR","31","F","{""name"":""Chrome"",""chrome"":true,""version"":""106.0"",""blink"":true,""windows"":true,""osname"":""Windows"",""osversion"":""10"",""a"":true}","9:16:16","1","3","Test_2","74","j","1","1230.0999999940395","1366 x 768","1366 x 768","true","1","10","","","","",""
"null","<p style=""font-size: 80px;"">+ 0 points</p>","null","html-keyboard-response","80","540207","0.0-11.0-2.79","612f4efe7a2e36e60e3254a7","duu45t","MR","31","F","{""name"":""Chrome"",""chrome"":true,""version"":""106.0"",""blink"":true,""windows"":true,""osname"":""Windows"",""osversion"":""10"",""a"":true}","9:16:16","1","3","Test_2","70","j","0","526.8999999910593","1366 x 768","1366 x 768","true","1","0","","","","",""
"null","<p style=""font-size: 80px;"">+ 10 points</p>","null","html-keyboard-response","81","542869","0.0-11.0-2.80","612f4efe7a2e36e60e3254a7","duu45t","MR","31","F","{""name"":""Chrome"",""chrome"":true,""version"":""106.0"",""blink"":true,""windows"":true,""osname"":""Windows"",""osversion"":""10"",""a"":true}","9:16:16","1","3","Test_2","74","j","1","640.9000000059605","1366 x 768","1366 x 768","true","1","10","","","","",""
"null","<p style=""font-size: 80px;"">+ 10 points</p>","null","html-keyboard-response","82","545803","0.0-11.0-2.81","612f4efe7a2e36e60e3254a7","duu45t","MR","31","F","{""name"":""Chrome"",""chrome"":true,""version"":""106.0"",""blink"":true,""windows"":true,""osname"":""Windows"",""osversion"":""10"",""a"":true}","9:16:16","1","3","Test_1","70","f","1","916.5999999940395","1366 x 768","1366 x 768","true","1","10","","","","",""
"null","<p style=""font-size: 80px;"">+ 0 points</p>","null","html-keyboard-response","83","548402","0.0-11.0-2.82","612f4efe7a2e36e60e3254a7","duu45t","MR","31","F","{""name"":""Chrome"",""chrome"":true,""version"":""106.0"",""blink"":true,""windows"":true,""osname"":""Windows"",""osversion"":""10"",""a"":true}","9:16:16","1","4","Test_4","74","f","0","569.5","1366 x 768","1366 x 768","true","1","0","","","","",""
"null","<p style=""font-size: 80px;"">+ 10 points</p>","null","html-keyboard-response","84","551318","0.0-11.0-2.83","612f4efe7a2e36e60e3254a7","duu45t","MR","31","F","{""name"":""Chrome"",""chrome"":true,""version"":""106.0"",""blink"":true,""windows"":true,""osname"":""Windows"",""osversion"":""10"",""a"":true}","9:16:16","1","4","Test_3","74","j","1","881","1366 x 768","1366 x 768","true","1","10","","","","",""
"null","<p style=""font-size: 80px;"">+ 0 points</p>","null","html-keyboard-response","85","553998","0.0-11.0-2.84","612f4efe7a2e36e60e3254a7","duu45t","MR","31","F","{""name"":""Chrome"",""chrome"":true,""version"":""106.0"",""blink"":true,""windows"":true,""osname"":""Windows"",""osversion"":""10"",""a"":true}","9:16:16","1","4","Test_2","74","f","0","652.8999999910593","1366 x 768","1366 x 768","true","1","0","","","","",""
"null","<p style=""font-size: 80px;"">+ 10 points</p>","null","html-keyboard-response","86","557117","0.0-11.0-2.85","612f4efe7a2e36e60e3254a7","duu45t","MR","31","F","{""name"":""Chrome"",""chrome"":true,""version"":""106.0"",""blink"":true,""windows"":true,""osname"":""Windows"",""osversion"":""10"",""a"":true}","9:16:16","1","4","Test_1","74","j","1","1103.7999999970198","1366 x 768","1366 x 768","true","1","10","","","","",""
"null","<p style=""font-size: 80px;"">+ 10 points</p>","null","html-keyboard-response","87","559718","0.0-11.0-2.86","612f4efe7a2e36e60e3254a7","duu45t","MR","31","F","{""name"":""Chrome"",""chrome"":true,""version"":""106.0"",""blink"":true,""windows"":true,""osname"":""Windows"",""osversion"":""10"",""a"":true}","9:16:16","1","4","Test_3","74","j","1","571.9000000059605","1366 x 768","1366 x 768","true","1","10","","","","",""
"null","<p style=""font-size: 80px;"">+ 10 points</p>","null","html-keyboard-response","88","562433","0.0-11.0-2.87","612f4efe7a2e36e60e3254a7","duu45t","MR","31","F","{""name"":""Chrome"",""chrome"":true,""version"":""106.0"",""blink"":true,""windows"":true,""osname"":""Windows"",""osversion"":""10"",""a"":true}","9:16:16","1","4","Test_1","74","j","1","684.7999999970198","1366 x 768","1366 x 768","true","1","10","","","","",""
"null","<p style=""font-size: 80px;"">+ 10 points</p>","null","html-keyboard-response","89","565232","0.0-11.0-2.88","612f4efe7a2e36e60e3254a7","duu45t","MR","31","F","{""name"":""Chrome"",""chrome"":true,""version"":""106.0"",""blink"":true,""windows"":true,""osname"":""Windows"",""osversion"":""10"",""a"":true}","9:16:16","1","4","Test_3","74","j","1","768.3999999910593","1366 x 768","1366 x 768","true","1","10","","","","",""
"null","<p style=""font-size: 80px;"">+ 10 points</p>","null","html-keyboard-response","90","567981","0.0-11.0-2.89","612f4efe7a2e36e60e3254a7","duu45t","MR","31","F","{""name"":""Chrome"",""chrome"":true,""version"":""106.0"",""blink"":true,""windows"":true,""osname"":""Windows"",""osversion"":""10"",""a"":true}","9:16:16","1","4","Test_2","70","f","1","710.5999999940395","1366 x 768","1366 x 768","true","1","10","","","","",""
"null","<p style=""font-size: 80px;"">+ 10 points</p>","null","html-keyboard-response","91","570665","0.0-11.0-2.90","612f4efe7a2e36e60e3254a7","duu45t","MR","31","F","{""name"":""Chrome"",""chrome"":true,""version"":""106.0"",""blink"":true,""windows"":true,""osname"":""Windows"",""osversion"":""10"",""a"":true}","9:16:16","1","4","Test_2","70","f","1","655.7999999970198","1366 x 768","1366 x 768","true","1","10","","","","",""
"null","<p style=""font-size: 80px;"">+ 10 points</p>","null","html-keyboard-response","92","573731","0.0-11.0-2.91","612f4efe7a2e36e60e3254a7","duu45t","MR","31","F","{""name"":""Chrome"",""chrome"":true,""version"":""106.0"",""blink"":true,""windows"":true,""osname"":""Windows"",""osversion"":""10"",""a"":true}","9:16:16","1","4","Test_4","70","f","1","1040","1366 x 768","1366 x 768","true","1","10","","","","",""
"null","<p style=""font-size: 80px;"">+ 10 points</p>","null","html-keyboard-response","93","576946","0.0-11.0-2.92","612f4efe7a2e36e60e3254a7","duu45t","MR","31","F","{""name"":""Chrome"",""chrome"":true,""version"":""106.0"",""blink"":true,""windows"":true,""osname"":""Windows"",""osversion"":""10"",""a"":true}","9:16:16","1","4","Test_4","70","f","1","1189.300000011921","1366 x 768","1366 x 768","true","1","10","","","","",""
"null","<p style=""font-size: 80px;"">+ 10 points</p>","null","html-keyboard-response","94","579713","0.0-11.0-2.93","612f4efe7a2e36e60e3254a7","duu45t","MR","31","F","{""name"":""Chrome"",""chrome"":true,""version"":""106.0"",""blink"":true,""windows"":true,""osname"":""Windows"",""osversion"":""10"",""a"":true}","9:16:16","1","4","Test_3","74","j","1","734","1366 x 768","1366 x 768","true","1","10","","","","",""
"null","<p style=""font-size: 80px;"">+ 10 points</p>","null","html-keyboard-response","95","582896","0.0-11.0-2.94","612f4efe7a2e36e60e3254a7","duu45t","MR","31","F","{""name"":""Chrome"",""chrome"":true,""version"":""106.0"",""blink"":true,""windows"":true,""osname"":""Windows"",""osversion"":""10"",""a"":true}","9:16:16","1","4","Test_1","74","j","1","1150","1366 x 768","1366 x 768","true","1","10","","","","",""
"null","<p style=""font-size: 80px;"">+ 10 points</p>","null","html-keyboard-response","96","586028","0.0-11.0-2.95","612f4efe7a2e36e60e3254a7","duu45t","MR","31","F","{""name"":""Chrome"",""chrome"":true,""version"":""106.0"",""blink"":true,""windows"":true,""osname"":""Windows"",""osversion"":""10"",""a"":true}","9:16:16","1","4","Test_4","70","f","1","1102","1366 x 768","1366 x 768","true","1","10","","","","",""
"null","<p style=""font-size: 80px;"">+ 10 points</p>","null","html-keyboard-response","97","588978","0.0-11.0-2.96","612f4efe7a2e36e60e3254a7","duu45t","MR","31","F","{""name"":""Chrome"",""chrome"":true,""version"":""106.0"",""blink"":true,""windows"":true,""osname"":""Windows"",""osversion"":""10"",""a"":true}","9:16:16","1","4","Test_1","74","j","1","913.7000000029802","1366 x 768","1366 x 768","true","1","10","","","","",""
"null","<p style=""font-size: 80px;"">+ 0 points</p>","null","html-keyboard-response","98","591943","0.0-11.0-2.97","612f4efe7a2e36e60e3254a7","duu45t","MR","31","F","{""name"":""Chrome"",""chrome"":true,""version"":""106.0"",""blink"":true,""windows"":true,""osname"":""Windows"",""osversion"":""10"",""a"":true}","9:16:16","1","3","Test_3","74","f","0","932.0999999940395","1366 x 768","1366 x 768","true","1","0","","","","",""
"null","<p style=""font-size: 80px;"">+ 10 points</p>","null","html-keyboard-response","99","594826","0.0-11.0-2.98","612f4efe7a2e36e60e3254a7","duu45t","MR","31","F","{""name"":""Chrome"",""chrome"":true,""version"":""106.0"",""blink"":true,""windows"":true,""osname"":""Windows"",""osversion"":""10"",""a"":true}","9:16:16","1","3","Test_1","70","f","1","845.4000000059605","1366 x 768","1366 x 768","true","1","10","","","","",""
"null","<p style=""font-size: 80px;"">+ 10 points</p>","null","html-keyboard-response","100","597609","0.0-11.0-2.99","612f4efe7a2e36e60e3254a7","duu45t","MR","31","F","{""name"":""Chrome"",""chrome"":true,""version"":""106.0"",""blink"":true,""windows"":true,""osname"":""Windows"",""osversion"":""10"",""a"":true}","9:16:16","1","3","Test_1","70","f","1","755.4000000059605","1366 x 768","1366 x 768","true","1","10","","","","",""
"null","<p style=""font-size: 80px;"">+ 10 points</p>","null","html-keyboard-response","101","600447","0.0-11.0-2.100","612f4efe7a2e36e60e3254a7","duu45t","MR","31","F","{""name"":""Chrome"",""chrome"":true,""version"":""106.0"",""blink"":true,""windows"":true,""osname"":""Windows"",""osversion"":""10"",""a"":true}","9:16:16","1","3","Test_2","74","j","1","810.3999999910593","1366 x 768","1366 x 768","true","1","10","","","","",""
"null","<p style=""font-size: 80px;"">+ 10 points</p>","null","html-keyboard-response","102","603096","0.0-11.0-2.101","612f4efe7a2e36e60e3254a7","duu45t","MR","31","F","{""name"":""Chrome"",""chrome"":true,""version"":""106.0"",""blink"":true,""windows"":true,""osname"":""Windows"",""osversion"":""10"",""a"":true}","9:16:16","1","3","Test_3","70","f","1","618.7999999970198","1366 x 768","1366 x 768","true","1","10","","","","",""
"null","<p style=""font-size: 80px;"">+ 10 points</p>","null","html-keyboard-response","103","605997","0.0-11.0-2.102","612f4efe7a2e36e60e3254a7","duu45t","MR","31","F","{""name"":""Chrome"",""chrome"":true,""version"":""106.0"",""blink"":true,""windows"":true,""osname"":""Windows"",""osversion"":""10"",""a"":true}","9:16:16","1","3","Test_1","70","f","1","873.2999999970198","1366 x 768","1366 x 768","true","1","10","","","","",""
"null","<p style=""font-size: 80px;"">+ 10 points</p>","null","html-keyboard-response","104","608646","0.0-11.0-2.103","612f4efe7a2e36e60e3254a7","duu45t","MR","31","F","{""name"":""Chrome"",""chrome"":true,""version"":""106.0"",""blink"":true,""windows"":true,""osname"":""Windows"",""osversion"":""10"",""a"":true}","9:16:16","1","3","Test_4","74","j","1","613.8999999910593","1366 x 768","1366 x 768","true","1","10","","","","",""
"null","<p style=""font-size: 80px;"">+ 10 points</p>","null","html-keyboard-response","105","611346","0.0-11.0-2.104","612f4efe7a2e36e60e3254a7","duu45t","MR","31","F","{""name"":""Chrome"",""chrome"":true,""version"":""106.0"",""blink"":true,""windows"":true,""osname"":""Windows"",""osversion"":""10"",""a"":true}","9:16:16","1","3","Test_3","70","f","1","675.6999999880791","1366 x 768","1366 x 768","true","1","10","","","","",""
"null","<p style=""font-size: 80px;"">+ 10 points</p>","null","html-keyboard-response","106","614399","0.0-11.0-2.105","612f4efe7a2e36e60e3254a7","duu45t","MR","31","F","{""name"":""Chrome"",""chrome"":true,""version"":""106.0"",""blink"":true,""windows"":true,""osname"":""Windows"",""osversion"":""10"",""a"":true}","9:16:16","1","3","Test_1","70","f","1","1030.7999999970198","1366 x 768","1366 x 768","true","1","10","","","","",""
"null","<p style=""font-size: 80px;"">+ 10 points</p>","null","html-keyboard-response","107","617260","0.0-11.0-2.106","612f4efe7a2e36e60e3254a7","duu45t","MR","31","F","{""name"":""Chrome"",""chrome"":true,""version"":""106.0"",""blink"":true,""windows"":true,""osname"":""Windows"",""osversion"":""10"",""a"":true}","9:16:16","1","3","Test_3","70","f","1","837.8000000119209","1366 x 768","1366 x 768","true","1","10","","","","",""
"null","<p style=""font-size: 80px;"">+ 10 points</p>","null","html-keyboard-response","108","620180","0.0-11.0-2.107","612f4efe7a2e36e60e3254a7","duu45t","MR","31","F","{""name"":""Chrome"",""chrome"":true,""version"":""106.0"",""blink"":true,""windows"":true,""osname"":""Windows"",""osversion"":""10"",""a"":true}","9:16:16","1","3","Test_2","74","j","1","892.6000000089407","1366 x 768","1366 x 768","true","1","10","","","","",""
"null","<p style=""font-size: 80px;"">+ 10 points</p>","null","html-keyboard-response","109","623059","0.0-11.0-2.108","612f4efe7a2e36e60e3254a7","duu45t","MR","31","F","{""name"":""Chrome"",""chrome"":true,""version"":""106.0"",""blink"":true,""windows"":true,""osname"":""Windows"",""osversion"":""10"",""a"":true}","9:16:16","1","3","Test_3","70","f","1","847.7999999970198","1366 x 768","1366 x 768","true","1","10","","","","",""
"null","<p style=""font-size: 80px;"">+ 10 points</p>","null","html-keyboard-response","110","678828","0.0-11.0-2.109","612f4efe7a2e36e60e3254a7","duu45t","MR","31","F","{""name"":""Chrome"",""chrome"":true,""version"":""106.0"",""blink"":true,""windows"":true,""osname"":""Windows"",""osversion"":""10"",""a"":true}","9:16:16","1","3","Test_4","74","j","1","1083.6000000089407","1366 x 768","1366 x 768","true","1","10","","","","",""
"null","<p style=""font-size: 80px;"">+ 10 points</p>","null","html-keyboard-response","111","681713","0.0-11.0-2.110","612f4efe7a2e36e60e3254a7","duu45t","MR","31","F","{""name"":""Chrome"",""chrome"":true,""version"":""106.0"",""blink"":true,""windows"":true,""osname"":""Windows"",""osversion"":""10"",""a"":true}","9:16:16","1","3","Test_4","74","j","1","863.0999999940395","1366 x 768","1366 x 768","true","1","10","","","","",""
"null","<p style=""font-size: 80px;"">+ 0 points</p>","null","html-keyboard-response","112","684227","0.0-11.0-2.111","612f4efe7a2e36e60e3254a7","duu45t","MR","31","F","{""name"":""Chrome"",""chrome"":true,""version"":""106.0"",""blink"":true,""windows"":true,""osname"":""Windows"",""osversion"":""10"",""a"":true}","9:16:16","1","3","Test_2","70","j","0","485.79999999701977","1366 x 768","1366 x 768","true","1","0","","","","",""
"null","<p style=""font-size: 80px;"">+ 10 points</p>","null","html-keyboard-response","113","686895","0.0-11.0-2.112","612f4efe7a2e36e60e3254a7","duu45t","MR","31","F","{""name"":""Chrome"",""chrome"":true,""version"":""106.0"",""blink"":true,""windows"":true,""osname"":""Windows"",""osversion"":""10"",""a"":true}","9:16:16","1","3","Test_4","74","j","1","642.8999999910593","1366 x 768","1366 x 768","true","1","10","","","","",""
"null","<p style=""font-size: 80px;"">+ 10 points</p>","null","html-keyboard-response","114","689494","0.0-11.0-2.113","612f4efe7a2e36e60e3254a7","duu45t","MR","31","F","{""name"":""Chrome"",""chrome"":true,""version"":""106.0"",""blink"":true,""windows"":true,""osname"":""Windows"",""osversion"":""10"",""a"":true}","9:16:16","1","3","Test_1","70","f","1","567.9000000059605","1366 x 768","1366 x 768","true","1","10","","","","",""
"null","<p style=""font-size: 80px;"">+ 10 points</p>","null","html-keyboard-response","115","692194","0.0-11.0-2.114","612f4efe7a2e36e60e3254a7","duu45t","MR","31","F","{""name"":""Chrome"",""chrome"":true,""version"":""106.0"",""blink"":true,""windows"":true,""osname"":""Windows"",""osversion"":""10"",""a"":true}","9:16:16","1","3","Test_4","74","j","1","673.1000000089407","1366 x 768","1366 x 768","true","1","10","","","","",""
"null","<p style=""font-size: 80px;"">+ 0 points</p>","null","html-keyboard-response","116","695009","0.0-11.0-2.115","612f4efe7a2e36e60e3254a7","duu45t","MR","31","F","{""name"":""Chrome"",""chrome"":true,""version"":""106.0"",""blink"":true,""windows"":true,""osname"":""Windows"",""osversion"":""10"",""a"":true}","9:16:16","1","4","Test_2","74","f","0","781.3999999910593","1366 x 768","1366 x 768","true","1","0","","","","",""
"null","<p style=""font-size: 80px;"">+ 10 points</p>","null","html-keyboard-response","117","697826","0.0-11.0-2.116","612f4efe7a2e36e60e3254a7","duu45t","MR","31","F","{""name"":""Chrome"",""chrome"":true,""version"":""106.0"",""blink"":true,""windows"":true,""osname"":""Windows"",""osversion"":""10"",""a"":true}","9:16:16","1","4","Test_2","70","f","1","788.5999999940395","1366 x 768","1366 x 768","true","1","10","","","","",""
"null","<p style=""font-size: 80px;"">+ 0 points</p>","null","html-keyboard-response","118","700825","0.0-11.0-2.117","612f4efe7a2e36e60e3254a7","duu45t","MR","31","F","{""name"":""Chrome"",""chrome"":true,""version"":""106.0"",""blink"":true,""windows"":true,""osname"":""Windows"",""osversion"":""10"",""a"":true}","9:16:16","1","4","Test_4","74","f","0","974.5999999940395","1366 x 768","1366 x 768","true","1","0","","","","",""
"null","<p style=""font-size: 80px;"">+ 10 points</p>","null","html-keyboard-response","119","703614","0.0-11.0-2.118","612f4efe7a2e36e60e3254a7","duu45t","MR","31","F","{""name"":""Chrome"",""chrome"":true,""version"":""106.0"",""blink"":true,""windows"":true,""osname"":""Windows"",""osversion"":""10"",""a"":true}","9:16:16","1","4","Test_3","74","j","1","758.5","1366 x 768","1366 x 768","true","1","10","","","","",""
"null","<p style=""font-size: 80px;"">+ 10 points</p>","null","html-keyboard-response","120","706373","0.0-11.0-2.119","612f4efe7a2e36e60e3254a7","duu45t","MR","31","F","{""name"":""Chrome"",""chrome"":true,""version"":""106.0"",""blink"":true,""windows"":true,""osname"":""Windows"",""osversion"":""10"",""a"":true}","9:16:16","1","4","Test_1","74","j","1","740.8999999910593","1366 x 768","1366 x 768","true","1","10","","","","",""
"null","<p style=""font-size: 80px;"">+ 10 points</p>","null","html-keyboard-response","121","709105","0.0-11.0-2.120","612f4efe7a2e36e60e3254a7","duu45t","MR","31","F","{""name"":""Chrome"",""chrome"":true,""version"":""106.0"",""blink"":true,""windows"":true,""osname"":""Windows"",""osversion"":""10"",""a"":true}","9:16:16","1","4","Test_4","70","f","1","703.9000000059605","1366 x 768","1366 x 768","true","1","10","","","","",""
"null","<p style=""font-size: 80px;"">+ 10 points</p>","null","html-keyboard-response","122","712142","0.0-11.0-2.121","612f4efe7a2e36e60e3254a7","duu45t","MR","31","F","{""name"":""Chrome"",""chrome"":true,""version"":""106.0"",""blink"":true,""windows"":true,""osname"":""Windows"",""osversion"":""10"",""a"":true}","9:16:16","1","4","Test_2","70","f","1","1008.9000000059605","1366 x 768","1366 x 768","true","1","10","","","","",""
"null","<p style=""font-size: 80px;"">+ 10 points</p>","null","html-keyboard-response","123","715871","0.0-11.0-2.122","612f4efe7a2e36e60e3254a7","duu45t","MR","31","F","{""name"":""Chrome"",""chrome"":true,""version"":""106.0"",""blink"":true,""windows"":true,""osname"":""Windows"",""osversion"":""10"",""a"":true}","9:16:16","1","4","Test_1","74","j","1","1696.7000000029802","1366 x 768","1366 x 768","true","1","10","","","","",""
"null","<p style=""font-size: 80px;"">+ 10 points</p>","null","html-keyboard-response","124","718754","0.0-11.0-2.123","612f4efe7a2e36e60e3254a7","duu45t","MR","31","F","{""name"":""Chrome"",""chrome"":true,""version"":""106.0"",""blink"":true,""windows"":true,""osname"":""Windows"",""osversion"":""10"",""a"":true}","9:16:16","1","4","Test_3","74","j","1","851","1366 x 768","1366 x 768","true","1","10","","","","",""
"null","<p style=""font-size: 80px;"">+ 10 points</p>","null","html-keyboard-response","125","721587","0.0-11.0-2.124","612f4efe7a2e36e60e3254a7","duu45t","MR","31","F","{""name"":""Chrome"",""chrome"":true,""version"":""106.0"",""blink"":true,""windows"":true,""osname"":""Windows"",""osversion"":""10"",""a"":true}","9:16:16","1","4","Test_4","70","f","1","809.5","1366 x 768","1366 x 768","true","1","10","","","","",""
"null","<p style=""font-size: 80px;"">+ 10 points</p>","null","html-keyboard-response","126","724520","0.0-11.0-2.125","612f4efe7a2e36e60e3254a7","duu45t","MR","31","F","{""name"":""Chrome"",""chrome"":true,""version"":""106.0"",""blink"":true,""windows"":true,""osname"":""Windows"",""osversion"":""10"",""a"":true}","9:16:16","1","4","Test_1","74","j","1","909.7999999970198","1366 x 768","1366 x 768","true","1","10","","","","",""
"null","<p style=""font-size: 80px;"">+ 10 points</p>","null","html-keyboard-response","127","727378","0.0-11.0-2.126","612f4efe7a2e36e60e3254a7","duu45t","MR","31","F","{""name"":""Chrome"",""chrome"":true,""version"":""106.0"",""blink"":true,""windows"":true,""osname"":""Windows"",""osversion"":""10"",""a"":true}","9:16:16","1","4","Test_3","74","j","1","831.7999999970198","1366 x 768","1366 x 768","true","1","10","","","","",""
"null","<p style=""font-size: 80px;"">+ 10 points</p>","null","html-keyboard-response","128","730068","0.0-11.0-2.127","612f4efe7a2e36e60e3254a7","duu45t","MR","31","F","{""name"":""Chrome"",""chrome"":true,""version"":""106.0"",""blink"":true,""windows"":true,""osname"":""Windows"",""osversion"":""10"",""a"":true}","9:16:16","1","4","Test_4","70","f","1","662.6000000089407","1366 x 768","1366 x 768","true","1","10","","","","",""
"null","<p style=""font-size: 80px;"">+ 10 points</p>","null","html-keyboard-response","129","732952","0.0-11.0-2.128","612f4efe7a2e36e60e3254a7","duu45t","MR","31","F","{""name"":""Chrome"",""chrome"":true,""version"":""106.0"",""blink"":true,""windows"":true,""osname"":""Windows"",""osversion"":""10"",""a"":true}","9:16:16","1","4","Test_2","70","f","1","859.2000000029802","1366 x 768","1366 x 768","true","1","10","","","","",""
"null","<p style=""font-size: 80px;"">+ 10 points</p>","null","html-keyboard-response","130","735618","0.0-11.0-2.129","612f4efe7a2e36e60e3254a7","duu45t","MR","31","F","{""name"":""Chrome"",""chrome"":true,""version"":""106.0"",""blink"":true,""windows"":true,""osname"":""Windows"",""osversion"":""10"",""a"":true}","9:16:16","1","4","Test_1","74","j","1","641.7999999970198","1366 x 768","1366 x 768","true","1","10","","","","",""
"null","<p style=""font-size: 80px;"">+ 0 points</p>","null","html-keyboard-response","131","738265","0.0-11.0-2.130","612f4efe7a2e36e60e3254a7","duu45t","MR","31","F","{""name"":""Chrome"",""chrome"":true,""version"":""106.0"",""blink"":true,""windows"":true,""osname"":""Windows"",""osversion"":""10"",""a"":true}","9:16:16","1","3","Test_2","70","j","0","606.7000000029802","1366 x 768","1366 x 768","true","1","0","","","","",""
"null","<p style=""font-size: 80px;"">+ 10 points</p>","null","html-keyboard-response","132","740947","0.0-11.0-2.131","612f4efe7a2e36e60e3254a7","duu45t","MR","31","F","{""name"":""Chrome"",""chrome"":true,""version"":""106.0"",""blink"":true,""windows"":true,""osname"":""Windows"",""osversion"":""10"",""a"":true}","9:16:16","1","3","Test_3","70","f","1","646.7999999970198","1366 x 768","1366 x 768","true","1","10","","","","",""
"null","<p style=""font-size: 80px;"">+ 10 points</p>","null","html-keyboard-response","133","743796","0.0-11.0-2.132","612f4efe7a2e36e60e3254a7","duu45t","MR","31","F","{""name"":""Chrome"",""chrome"":true,""version"":""106.0"",""blink"":true,""windows"":true,""osname"":""Windows"",""osversion"":""10"",""a"":true}","9:16:16","1","3","Test_4","74","j","1","819.3999999910593","1366 x 768","1366 x 768","true","1","10","","","","",""
"null","<p style=""font-size: 80px;"">+ 10 points</p>","null","html-keyboard-response","134","746478","0.0-11.0-2.133","612f4efe7a2e36e60e3254a7","duu45t","MR","31","F","{""name"":""Chrome"",""chrome"":true,""version"":""106.0"",""blink"":true,""windows"":true,""osname"":""Windows"",""osversion"":""10"",""a"":true}","9:16:16","1","3","Test_3","70","f","1","649.1000000089407","1366 x 768","1366 x 768","true","1","10","","","","",""
"null","<p style=""font-size: 80px;"">+ 10 points</p>","null","html-keyboard-response","135","749214","0.0-11.0-2.134","612f4efe7a2e36e60e3254a7","duu45t","MR","31","F","{""name"":""Chrome"",""chrome"":true,""version"":""106.0"",""blink"":true,""windows"":true,""osname"":""Windows"",""osversion"":""10"",""a"":true}","9:16:16","1","3","Test_4","74","j","1","703.3999999910593","1366 x 768","1366 x 768","true","1","10","","","","",""
"null","<p style=""font-size: 80px;"">+ 10 points</p>","null","html-keyboard-response","136","752029","0.0-11.0-2.135","612f4efe7a2e36e60e3254a7","duu45t","MR","31","F","{""name"":""Chrome"",""chrome"":true,""version"":""106.0"",""blink"":true,""windows"":true,""osname"":""Windows"",""osversion"":""10"",""a"":true}","9:16:16","1","3","Test_4","74","j","1","793.9000000059605","1366 x 768","1366 x 768","true","1","10","","","","",""
"null","<p style=""font-size: 80px;"">+ 10 points</p>","null","html-keyboard-response","137","754811","0.0-11.0-2.136","612f4efe7a2e36e60e3254a7","duu45t","MR","31","F","{""name"":""Chrome"",""chrome"":true,""version"":""106.0"",""blink"":true,""windows"":true,""osname"":""Windows"",""osversion"":""10"",""a"":true}","9:16:16","1","3","Test_1","70","f","1","761.8999999910593","1366 x 768","1366 x 768","true","1","10","","","","",""
"null","<p style=""font-size: 80px;"">+ 10 points</p>","null","html-keyboard-response","138","757676","0.0-11.0-2.137","612f4efe7a2e36e60e3254a7","duu45t","MR","31","F","{""name"":""Chrome"",""chrome"":true,""version"":""106.0"",""blink"":true,""windows"":true,""osname"":""Windows"",""osversion"":""10"",""a"":true}","9:16:16","1","3","Test_3","70","f","1","833.4000000059605","1366 x 768","1366 x 768","true","1","10","","","","",""
"null","<p style=""font-size: 80px;"">+ 10 points</p>","null","html-keyboard-response","139","760592","0.0-11.0-2.138","612f4efe7a2e36e60e3254a7","duu45t","MR","31","F","{""name"":""Chrome"",""chrome"":true,""version"":""106.0"",""blink"":true,""windows"":true,""osname"":""Windows"",""osversion"":""10"",""a"":true}","9:16:16","1","3","Test_2","74","j","1","880.0999999940395","1366 x 768","1366 x 768","true","1","10","","","","",""
"null","<p style=""font-size: 80px;"">+ 10 points</p>","null","html-keyboard-response","140","763391","0.0-11.0-2.139","612f4efe7a2e36e60e3254a7","duu45t","MR","31","F","{""name"":""Chrome"",""chrome"":true,""version"":""106.0"",""blink"":true,""windows"":true,""osname"":""Windows"",""osversion"":""10"",""a"":true}","9:16:16","1","3","Test_1","70","f","1","763.0999999940395","1366 x 768","1366 x 768","true","1","10","","","","",""
"null","<p style=""font-size: 80px;"">+ 10 points</p>","null","html-keyboard-response","141","766243","0.0-11.0-2.140","612f4efe7a2e36e60e3254a7","duu45t","MR","31","F","{""name"":""Chrome"",""chrome"":true,""version"":""106.0"",""blink"":true,""windows"":true,""osname"":""Windows"",""osversion"":""10"",""a"":true}","9:16:16","1","3","Test_2","74","j","1","827","1366 x 768","1366 x 768","true","1","10","","","","",""
"null","<p style=""font-size: 80px;"">+ 10 points</p>","null","html-keyboard-response","142","769359","0.0-11.0-2.141","612f4efe7a2e36e60e3254a7","duu45t","MR","31","F","{""name"":""Chrome"",""chrome"":true,""version"":""106.0"",""blink"":true,""windows"":true,""osname"":""Windows"",""osversion"":""10"",""a"":true}","9:16:16","1","3","Test_2","74","j","1","1088.2000000029802","1366 x 768","1366 x 768","true","1","10","","","","",""
"null","<p style=""font-size: 80px;"">+ 10 points</p>","null","html-keyboard-response","143","772324","0.0-11.0-2.142","612f4efe7a2e36e60e3254a7","duu45t","MR","31","F","{""name"":""Chrome"",""chrome"":true,""version"":""106.0"",""blink"":true,""windows"":true,""osname"":""Windows"",""osversion"":""10"",""a"":true}","9:16:16","1","3","Test_2","74","j","1","939.5999999940395","1366 x 768","1366 x 768","true","1","10","","","","",""
"null","<p style=""font-size: 80px;"">+ 10 points</p>","null","html-keyboard-response","144","775038","0.0-11.0-2.143","612f4efe7a2e36e60e3254a7","duu45t","MR","31","F","{""name"":""Chrome"",""chrome"":true,""version"":""106.0"",""blink"":true,""windows"":true,""osname"":""Windows"",""osversion"":""10"",""a"":true}","9:16:16","1","3","Test_4","74","j","1","677.9000000059605","1366 x 768","1366 x 768","true","1","10","","","","",""
"null","<p style=""font-size: 80px;"">+ 10 points</p>","null","html-keyboard-response","145","777842","0.0-11.0-2.144","612f4efe7a2e36e60e3254a7","duu45t","MR","31","F","{""name"":""Chrome"",""chrome"":true,""version"":""106.0"",""blink"":true,""windows"":true,""osname"":""Windows"",""osversion"":""10"",""a"":true}","9:16:16","1","3","Test_3","70","f","1","794.1000000089407","1366 x 768","1366 x 768","true","1","10","","","","",""
"null","<p style=""font-size: 80px;"">+ 10 points</p>","null","html-keyboard-response","146","780938","0.0-11.0-2.145","612f4efe7a2e36e60e3254a7","duu45t","MR","31","F","{""name"":""Chrome"",""chrome"":true,""version"":""106.0"",""blink"":true,""windows"":true,""osname"":""Windows"",""osversion"":""10"",""a"":true}","9:16:16","1","3","Test_3","70","f","1","1066.3999999910593","1366 x 768","1366 x 768","true","1","10","","","","",""
"null","<p style=""font-size: 80px;"">+ 10 points</p>","null","html-keyboard-response","147","783653","0.0-11.0-2.146","612f4efe7a2e36e60e3254a7","duu45t","MR","31","F","{""name"":""Chrome"",""chrome"":true,""version"":""106.0"",""blink"":true,""windows"":true,""osname"":""Windows"",""osversion"":""10"",""a"":true}","9:16:16","1","3","Test_1","70","f","1","687.2000000029802","1366 x 768","1366 x 768","true","1","10","","","","",""
"null","<p style=""font-size: 80px;"">+ 10 points</p>","null","html-keyboard-response","148","786371","0.0-11.0-2.147","612f4efe7a2e36e60e3254a7","duu45t","MR","31","F","{""name"":""Chrome"",""chrome"":true,""version"":""106.0"",""blink"":true,""windows"":true,""osname"":""Windows"",""osversion"":""10"",""a"":true}","9:16:16","1","3","Test_4","74","j","1","691.2000000029802","1366 x 768","1366 x 768","true","1","10","","","","",""
"null","<p style=""font-size: 80px;"">+ 10 points</p>","null","html-keyboard-response","149","789153","0.0-11.0-2.148","612f4efe7a2e36e60e3254a7","duu45t","MR","31","F","{""name"":""Chrome"",""chrome"":true,""version"":""106.0"",""blink"":true,""windows"":true,""osname"":""Windows"",""osversion"":""10"",""a"":true}","9:16:16","1","3","Test_1","70","f","1","750","1366 x 768","1366 x 768","true","1","10","","","","",""
"null","<p style=""font-size: 80px;"">+ 10 points</p>","null","html-keyboard-response","150","792036","0.0-11.0-2.149","612f4efe7a2e36e60e3254a7","duu45t","MR","31","F","{""name"":""Chrome"",""chrome"":true,""version"":""106.0"",""blink"":true,""windows"":true,""osname"":""Windows"",""osversion"":""10"",""a"":true}","9:16:16","1","3","Test_3","70","f","1","845.5","1366 x 768","1366 x 768","true","1","10","","","","",""
"null","<p style=""font-size: 80px;"">+ 10 points</p>","null","html-keyboard-response","151","794786","0.0-11.0-2.150","612f4efe7a2e36e60e3254a7","duu45t","MR","31","F","{""name"":""Chrome"",""chrome"":true,""version"":""106.0"",""blink"":true,""windows"":true,""osname"":""Windows"",""osversion"":""10"",""a"":true}","9:16:16","1","3","Test_4","74","j","1","715.9000000059605","1366 x 768","1366 x 768","true","1","10","","","","",""
"null","<p style=""font-size: 80px;"">+ 10 points</p>","null","html-keyboard-response","152","797739","0.0-11.0-2.151","612f4efe7a2e36e60e3254a7","duu45t","MR","31","F","{""name"":""Chrome"",""chrome"":true,""version"":""106.0"",""blink"":true,""windows"":true,""osname"":""Windows"",""osversion"":""10"",""a"":true}","9:16:16","1","3","Test_2","74","j","1","934","1366 x 768","1366 x 768","true","1","10","","","","",""
"null","<p style=""font-size: 80px;"">+ 10 points</p>","null","html-keyboard-response","153","800521","0.0-11.0-2.152","612f4efe7a2e36e60e3254a7","duu45t","MR","31","F","{""name"":""Chrome"",""chrome"":true,""version"":""106.0"",""blink"":true,""windows"":true,""osname"":""Windows"",""osversion"":""10"",""a"":true}","9:16:16","1","3","Test_1","70","f","1","751.7999999970198","1366 x 768","1366 x 768","true","1","10","","","","",""
"null","<p style=""font-size: 80px;"">+ 10 points</p>","null","html-keyboard-response","154","803105","0.0-11.0-2.153","612f4efe7a2e36e60e3254a7","duu45t","MR","31","F","{""name"":""Chrome"",""chrome"":true,""version"":""106.0"",""blink"":true,""windows"":true,""osname"":""Windows"",""osversion"":""10"",""a"":true}","9:16:16","1","3","Test_1","70","f","1","576","1366 x 768","1366 x 768","true","1","10","","","","",""
"null","<p style=""font-size: 80px;"">+ 0 points</p>","null","html-keyboard-response","155","805987","0.0-11.0-2.154","612f4efe7a2e36e60e3254a7","duu45t","MR","31","F","{""name"":""Chrome"",""chrome"":true,""version"":""106.0"",""blink"":true,""windows"":true,""osname"":""Windows"",""osversion"":""10"",""a"":true}","9:16:16","1","4","Test_3","70","j","0","849.6999999880791","1366 x 768","1366 x 768","true","1","0","","","","",""
"null","<p style=""font-size: 80px;"">+ 10 points</p>","null","html-keyboard-response","156","808984","0.0-11.0-2.155","612f4efe7a2e36e60e3254a7","duu45t","MR","31","F","{""name"":""Chrome"",""chrome"":true,""version"":""106.0"",""blink"":true,""windows"":true,""osname"":""Windows"",""osversion"":""10"",""a"":true}","9:16:16","1","4","Test_2","70","f","1","966.7999999970198","1366 x 768","1366 x 768","true","1","10","","","","",""
"null","<p style=""font-size: 80px;"">+ 10 points</p>","null","html-keyboard-response","157","811754","0.0-11.0-2.156","612f4efe7a2e36e60e3254a7","duu45t","MR","31","F","{""name"":""Chrome"",""chrome"":true,""version"":""106.0"",""blink"":true,""windows"":true,""osname"":""Windows"",""osversion"":""10"",""a"":true}","9:16:16","1","4","Test_4","70","f","1","758.6000000089407","1366 x 768","1366 x 768","true","1","10","","","","",""
"null","<p style=""font-size: 80px;"">+ 10 points</p>","null","html-keyboard-response","158","814551","0.0-11.0-2.157","612f4efe7a2e36e60e3254a7","duu45t","MR","31","F","{""name"":""Chrome"",""chrome"":true,""version"":""106.0"",""blink"":true,""windows"":true,""osname"":""Windows"",""osversion"":""10"",""a"":true}","9:16:16","1","4","Test_1","74","j","1","770","1366 x 768","1366 x 768","true","1","10","","","","",""
"null","<p style=""font-size: 80px;"">+ 10 points</p>","null","html-keyboard-response","159","817384","0.0-11.0-2.158","612f4efe7a2e36e60e3254a7","duu45t","MR","31","F","{""name"":""Chrome"",""chrome"":true,""version"":""106.0"",""blink"":true,""windows"":true,""osname"":""Windows"",""osversion"":""10"",""a"":true}","9:16:16","1","4","Test_1","74","j","1","801.5","1366 x 768","1366 x 768","true","1","10","","","","",""
"null","<p style=""font-size: 80px;"">+ 10 points</p>","null","html-keyboard-response","160","820285","0.0-11.0-2.159","612f4efe7a2e36e60e3254a7","duu45t","MR","31","F","{""name"":""Chrome"",""chrome"":true,""version"":""106.0"",""blink"":true,""windows"":true,""osname"":""Windows"",""osversion"":""10"",""a"":true}","9:16:16","1","4","Test_3","74","j","1","873.5999999940395","1366 x 768","1366 x 768","true","1","10","","","","",""
"null","<p style=""font-size: 80px;"">+ 10 points</p>","null","html-keyboard-response","161","823117","0.0-11.0-2.160","612f4efe7a2e36e60e3254a7","duu45t","MR","31","F","{""name"":""Chrome"",""chrome"":true,""version"":""106.0"",""blink"":true,""windows"":true,""osname"":""Windows"",""osversion"":""10"",""a"":true}","9:16:16","1","4","Test_2","70","f","1","797","1366 x 768","1366 x 768","true","1","10","","","","",""
"null","<p style=""font-size: 80px;"">+ 10 points</p>","null","html-keyboard-response","162","825965","0.0-11.0-2.161","612f4efe7a2e36e60e3254a7","duu45t","MR","31","F","{""name"":""Chrome"",""chrome"":true,""version"":""106.0"",""blink"":true,""windows"":true,""osname"":""Windows"",""osversion"":""10"",""a"":true}","9:16:16","1","4","Test_3","74","j","1","817.9000000059605","1366 x 768","1366 x 768","true","1","10","","","","",""
"null","<p style=""font-size: 80px;"">+ 10 points</p>","null","html-keyboard-response","163","828866","0.0-11.0-2.162","612f4efe7a2e36e60e3254a7","duu45t","MR","31","F","{""name"":""Chrome"",""chrome"":true,""version"":""106.0"",""blink"":true,""windows"":true,""osname"":""Windows"",""osversion"":""10"",""a"":true}","9:16:16","1","4","Test_1","74","j","1","875.5999999940395","1366 x 768","1366 x 768","true","1","10","","","","",""
"null","<p style=""font-size: 80px;"">+ 10 points</p>","null","html-keyboard-response","164","832149","0.0-11.0-2.163","612f4efe7a2e36e60e3254a7","duu45t","MR","31","F","{""name"":""Chrome"",""chrome"":true,""version"":""106.0"",""blink"":true,""windows"":true,""osname"":""Windows"",""osversion"":""10"",""a"":true}","9:16:16","1","4","Test_3","74","j","1","1246.0999999940395","1366 x 768","1366 x 768","true","1","10","","","","",""
"null","<p style=""font-size: 80px;"">+ 10 points</p>","null","html-keyboard-response","165","835011","0.0-11.0-2.164","612f4efe7a2e36e60e3254a7","duu45t","MR","31","F","{""name"":""Chrome"",""chrome"":true,""version"":""106.0"",""blink"":true,""windows"":true,""osname"":""Windows"",""osversion"":""10"",""a"":true}","9:16:16","1","4","Test_2","70","f","1","836.2000000029802","1366 x 768","1366 x 768","true","1","10","","","","",""
"null","<p style=""font-size: 80px;"">+ 10 points</p>","null","html-keyboard-response","166","837814","0.0-11.0-2.165","612f4efe7a2e36e60e3254a7","duu45t","MR","31","F","{""name"":""Chrome"",""chrome"":true,""version"":""106.0"",""blink"":true,""windows"":true,""osname"":""Windows"",""osversion"":""10"",""a"":true}","9:16:16","1","4","Test_1","74","j","1","792.4000000059605","1366 x 768","1366 x 768","true","1","10","","","","",""
"null","<p style=""font-size: 80px;"">+ 10 points</p>","null","html-keyboard-response","167","840680","0.0-11.0-2.166","612f4efe7a2e36e60e3254a7","duu45t","MR","31","F","{""name"":""Chrome"",""chrome"":true,""version"":""106.0"",""blink"":true,""windows"":true,""osname"":""Windows"",""osversion"":""10"",""a"":true}","9:16:16","1","4","Test_2","70","f","1","830.8000000119209","1366 x 768","1366 x 768","true","1","10","","","","",""
"null","<p style=""font-size: 80px;"">+ 10 points</p>","null","html-keyboard-response","168","843429","0.0-11.0-2.167","612f4efe7a2e36e60e3254a7","duu45t","MR","31","F","{""name"":""Chrome"",""chrome"":true,""version"":""106.0"",""blink"":true,""windows"":true,""osname"":""Windows"",""osversion"":""10"",""a"":true}","9:16:16","1","4","Test_4","70","f","1","718.4000000059605","1366 x 768","1366 x 768","true","1","10","","","","",""
"null","<p style=""font-size: 80px;"">+ 10 points</p>","null","html-keyboard-response","169","846361","0.0-11.0-2.168","612f4efe7a2e36e60e3254a7","duu45t","MR","31","F","{""name"":""Chrome"",""chrome"":true,""version"":""106.0"",""blink"":true,""windows"":true,""osname"":""Windows"",""osversion"":""10"",""a"":true}","9:16:16","1","4","Test_4","70","f","1","904.0999999940395","1366 x 768","1366 x 768","true","1","10","","","","",""
"null","<p style=""font-size: 80px;"">+ 10 points</p>","null","html-keyboard-response","170","849161","0.0-11.0-2.169","612f4efe7a2e36e60e3254a7","duu45t","MR","31","F","{""name"":""Chrome"",""chrome"":true,""version"":""106.0"",""blink"":true,""windows"":true,""osname"":""Windows"",""osversion"":""10"",""a"":true}","9:16:16","1","4","Test_4","70","f","1","763.1999999880791","1366 x 768","1366 x 768","true","1","10","","","","",""
"null","<p style=""font-size: 80px;"">+ 0 points</p>","null","html-keyboard-response","171","851829","0.0-11.0-2.170","612f4efe7a2e36e60e3254a7","duu45t","MR","31","F","{""name"":""Chrome"",""chrome"":true,""version"":""106.0"",""blink"":true,""windows"":true,""osname"":""Windows"",""osversion"":""10"",""a"":true}","9:16:16","1","3","Test_2","70","j","0","644.3999999910593","1366 x 768","1366 x 768","true","1","0","","","","",""
"null","<p style=""font-size: 80px;"">+ 10 points</p>","null","html-keyboard-response","172","854626","0.0-11.0-2.171","612f4efe7a2e36e60e3254a7","duu45t","MR","31","F","{""name"":""Chrome"",""chrome"":true,""version"":""106.0"",""blink"":true,""windows"":true,""osname"":""Windows"",""osversion"":""10"",""a"":true}","9:16:16","1","3","Test_2","74","j","1","768.5999999940395","1366 x 768","1366 x 768","true","1","10","","","","",""
"null","<p style=""font-size: 80px;"">+ 10 points</p>","null","html-keyboard-response","173","857818","0.0-11.0-2.172","612f4efe7a2e36e60e3254a7","duu45t","MR","31","F","{""name"":""Chrome"",""chrome"":true,""version"":""106.0"",""blink"":true,""windows"":true,""osname"":""Windows"",""osversion"":""10"",""a"":true}","9:16:16","1","3","Test_4","74","j","1","1159.8999999910593","1366 x 768","1366 x 768","true","1","10","","","","",""
"null","<p style=""font-size: 80px;"">+ 10 points</p>","null","html-keyboard-response","174","860749","0.0-11.0-2.173","612f4efe7a2e36e60e3254a7","duu45t","MR","31","F","{""name"":""Chrome"",""chrome"":true,""version"":""106.0"",""blink"":true,""windows"":true,""osname"":""Windows"",""osversion"":""10"",""a"":true}","9:16:16","1","3","Test_3","70","f","1","904.2999999970198","1366 x 768","1366 x 768","true","1","10","","","","",""
"null","<p style=""font-size: 80px;"">+ 10 points</p>","null","html-keyboard-response","175","863351","0.0-11.0-2.174","612f4efe7a2e36e60e3254a7","duu45t","MR","31","F","{""name"":""Chrome"",""chrome"":true,""version"":""106.0"",""blink"":true,""windows"":true,""osname"":""Windows"",""osversion"":""10"",""a"":true}","9:16:16","1","3","Test_1","70","f","1","571.1000000089407","1366 x 768","1366 x 768","true","1","10","","","","",""
"null","<p style=""font-size: 80px;"">+ 10 points</p>","null","html-keyboard-response","176","866416","0.0-11.0-2.175","612f4efe7a2e36e60e3254a7","duu45t","MR","31","F","{""name"":""Chrome"",""chrome"":true,""version"":""106.0"",""blink"":true,""windows"":true,""osname"":""Windows"",""osversion"":""10"",""a"":true}","9:16:16","1","3","Test_2","74","j","1","1043.9000000059605","1366 x 768","1366 x 768","true","1","10","","","","",""
"null","<p style=""font-size: 80px;"">+ 10 points</p>","null","html-keyboard-response","177","869068","0.0-11.0-2.176","612f4efe7a2e36e60e3254a7","duu45t","MR","31","F","{""name"":""Chrome"",""chrome"":true,""version"":""106.0"",""blink"":true,""windows"":true,""osname"":""Windows"",""osversion"":""10"",""a"":true}","9:16:16","1","3","Test_1","70","f","1","627.2999999970198","1366 x 768","1366 x 768","true","1","10","","","","",""
"null","<p style=""font-size: 80px;"">+ 10 points</p>","null","html-keyboard-response","178","871931","0.0-11.0-2.177","612f4efe7a2e36e60e3254a7","duu45t","MR","31","F","{""name"":""Chrome"",""chrome"":true,""version"":""106.0"",""blink"":true,""windows"":true,""osname"":""Windows"",""osversion"":""10"",""a"":true}","9:16:16","1","3","Test_4","74","j","1","833.2999999970198","1366 x 768","1366 x 768","true","1","10","","","","",""
"null","<p style=""font-size: 80px;"">+ 10 points</p>","null","html-keyboard-response","179","874412","0.0-11.0-2.178","612f4efe7a2e36e60e3254a7","duu45t","MR","31","F","{""name"":""Chrome"",""chrome"":true,""version"":""106.0"",""blink"":true,""windows"":true,""osname"":""Windows"",""osversion"":""10"",""a"":true}","9:16:16","1","3","Test_3","70","f","1","455.20000000298023","1366 x 768","1366 x 768","true","1","10","","","","",""
"null","<p style=""font-size: 80px;"">+ 10 points</p>","null","html-keyboard-response","180","877164","0.0-11.0-2.179","612f4efe7a2e36e60e3254a7","duu45t","MR","31","F","{""name"":""Chrome"",""chrome"":true,""version"":""106.0"",""blink"":true,""windows"":true,""osname"":""Windows"",""osversion"":""10"",""a"":true}","9:16:16","1","3","Test_1","70","f","1","724.7000000029802","1366 x 768","1366 x 768","true","1","10","","","","",""
"null","<p style=""font-size: 80px;"">+ 10 points</p>","null","html-keyboard-response","181","879896","0.0-11.0-2.180","612f4efe7a2e36e60e3254a7","duu45t","MR","31","F","{""name"":""Chrome"",""chrome"":true,""version"":""106.0"",""blink"":true,""windows"":true,""osname"":""Windows"",""osversion"":""10"",""a"":true}","9:16:16","1","3","Test_2","74","j","1","695.7999999970198","1366 x 768","1366 x 768","true","1","10","","","","",""
"null","<p style=""font-size: 80px;"">+ 10 points</p>","null","html-keyboard-response","182","882719","0.0-11.0-2.181","612f4efe7a2e36e60e3254a7","duu45t","MR","31","F","{""name"":""Chrome"",""chrome"":true,""version"":""106.0"",""blink"":true,""windows"":true,""osname"":""Windows"",""osversion"":""10"",""a"":true}","9:16:16","1","3","Test_4","74","j","1","786.0999999940395","1366 x 768","1366 x 768","true","1","10","","","","",""
"null","<p style=""font-size: 80px;"">+ 10 points</p>","null","html-keyboard-response","183","885763","0.0-11.0-2.182","612f4efe7a2e36e60e3254a7","duu45t","MR","31","F","{""name"":""Chrome"",""chrome"":true,""version"":""106.0"",""blink"":true,""windows"":true,""osname"":""Windows"",""osversion"":""10"",""a"":true}","9:16:16","1","3","Test_1","70","f","1","1025.7000000029802","1366 x 768","1366 x 768","true","1","10","","","","",""
"null","<p style=""font-size: 80px;"">+ 10 points</p>","null","html-keyboard-response","184","888428","0.0-11.0-2.183","612f4efe7a2e36e60e3254a7","duu45t","MR","31","F","{""name"":""Chrome"",""chrome"":true,""version"":""106.0"",""blink"":true,""windows"":true,""osname"":""Windows"",""osversion"":""10"",""a"":true}","9:16:16","1","3","Test_4","74","j","1","640.7999999970198","1366 x 768","1366 x 768","true","1","10","","","","",""
"null","<p style=""font-size: 80px;"">+ 10 points</p>","null","html-keyboard-response","185","891177","0.0-11.0-2.184","612f4efe7a2e36e60e3254a7","duu45t","MR","31","F","{""name"":""Chrome"",""chrome"":true,""version"":""106.0"",""blink"":true,""windows"":true,""osname"":""Windows"",""osversion"":""10"",""a"":true}","9:16:16","1","3","Test_4","74","j","1","718.7000000029802","1366 x 768","1366 x 768","true","1","10","","","","",""
"null","<p style=""font-size: 80px;"">+ 10 points</p>","null","html-keyboard-response","186","893977","0.0-11.0-2.185","612f4efe7a2e36e60e3254a7","duu45t","MR","31","F","{""name"":""Chrome"",""chrome"":true,""version"":""106.0"",""blink"":true,""windows"":true,""osname"":""Windows"",""osversion"":""10"",""a"":true}","9:16:16","1","3","Test_3","70","f","1","777.1000000089407","1366 x 768","1366 x 768","true","1","10","","","","",""
"null","<p style=""font-size: 80px;"">+ 10 points</p>","null","html-keyboard-response","187","896694","0.0-11.0-2.186","612f4efe7a2e36e60e3254a7","duu45t","MR","31","F","{""name"":""Chrome"",""chrome"":true,""version"":""106.0"",""blink"":true,""windows"":true,""osname"":""Windows"",""osversion"":""10"",""a"":true}","9:16:16","1","3","Test_4","74","j","1","688.5","1366 x 768","1366 x 768","true","1","10","","","","",""
"null","<p style=""font-size: 80px;"">+ 10 points</p>","null","html-keyboard-response","188","899826","0.0-11.0-2.187","612f4efe7a2e36e60e3254a7","duu45t","MR","31","F","{""name"":""Chrome"",""chrome"":true,""version"":""106.0"",""blink"":true,""windows"":true,""osname"":""Windows"",""osversion"":""10"",""a"":true}","9:16:16","1","3","Test_3","70","f","1","1100","1366 x 768","1366 x 768","true","1","10","","","","",""
"null","<p style=""font-size: 80px;"">+ 10 points</p>","null","html-keyboard-response","189","902629","0.0-11.0-2.188","612f4efe7a2e36e60e3254a7","duu45t","MR","31","F","{""name"":""Chrome"",""chrome"":true,""version"":""106.0"",""blink"":true,""windows"":true,""osname"":""Windows"",""osversion"":""10"",""a"":true}","9:16:16","1","3","Test_3","70","f","1","776.1000000089407","1366 x 768","1366 x 768","true","1","10","","","","",""
