"rt","stimulus","key_press","trial_type","trial_index","time_elapsed","internal_node_id","Prolific_ID","random_ID","initials","age","gender","pc_info","start_time","Phase","Rule","Stimulus","Response","CorrResp","Accuracy","ResponseTime","screen_resolution","window_resolution","focus","relevant","Points","responses","question_order","rev_check","butterfly_check","passed_practice"
"null","<p style=""font-size: 80px;"">+ 0 points</p>","null","html-keyboard-response","1","77081","0.0-7.0-2.0","613b8c9c4ea7747655935221","fe1hm8","ds","34","f","{""name"":""Chrome"",""chrome"":true,""version"":""105.0"",""blink"":true,""mac"":true,""osname"":""macOS"",""osversion"":""10.15.7"",""a"":true}","9:22:36","0","1","Practice_4","70","j","0","841.3999999761581","1440 x 900","1440 x 900","true","1","0","","","","",""
"null","<p style=""font-size: 80px;"">+ 0 points</p>","null","html-keyboard-response","2","80127","0.0-7.0-2.1","613b8c9c4ea7747655935221","fe1hm8","ds","34","f","{""name"":""Chrome"",""chrome"":true,""version"":""105.0"",""blink"":true,""mac"":true,""osname"":""macOS"",""osversion"":""10.15.7"",""a"":true}","9:22:36","0","1","Practice_4","70","j","0","1031.0999999642372","1440 x 900","1440 x 900","true","1","0","","","","",""
"null","<p style=""font-size: 80px;"">+ 0 points</p>","null","html-keyboard-response","3","83437","0.0-7.0-2.2","613b8c9c4ea7747655935221","fe1hm8","ds","34","f","{""name"":""Chrome"",""chrome"":true,""version"":""105.0"",""blink"":true,""mac"":true,""osname"":""macOS"",""osversion"":""10.15.7"",""a"":true}","9:22:36","0","1","Practice_2","70","j","0","1298.5","1440 x 900","1440 x 900","true","1","0","","","","",""
"null","<p style=""font-size: 80px;"">+ 0 points</p>","null","html-keyboard-response","4","86814","0.0-7.0-2.3","613b8c9c4ea7747655935221","fe1hm8","ds","34","f","{""name"":""Chrome"",""chrome"":true,""version"":""105.0"",""blink"":true,""mac"":true,""osname"":""macOS"",""osversion"":""10.15.7"",""a"":true}","9:22:36","0","1","Practice_3","74","f","0","1367.300000011921","1440 x 900","1440 x 900","true","1","0","","","","",""
"null","<p style=""font-size: 80px;"">+ 10 points</p>","null","html-keyboard-response","5","90254","0.0-7.0-2.4","613b8c9c4ea7747655935221","fe1hm8","ds","34","f","{""name"":""Chrome"",""chrome"":true,""version"":""105.0"",""blink"":true,""mac"":true,""osname"":""macOS"",""osversion"":""10.15.7"",""a"":true}","9:22:36","0","1","Practice_3","70","f","1","1426.6000000238419","1440 x 900","1440 x 900","true","1","10","","","","",""
"null","<p style=""font-size: 80px;"">+ 10 points</p>","null","html-keyboard-response","6","93456","0.0-7.0-2.5","613b8c9c4ea7747655935221","fe1hm8","ds","34","f","{""name"":""Chrome"",""chrome"":true,""version"":""105.0"",""blink"":true,""mac"":true,""osname"":""macOS"",""osversion"":""10.15.7"",""a"":true}","9:22:36","0","1","Practice_4","74","j","1","1190.6000000238419","1440 x 900","1440 x 900","true","1","10","","","","",""
"null","<p style=""font-size: 80px;"">+ 10 points</p>","null","html-keyboard-response","7","96331","0.0-7.0-2.6","613b8c9c4ea7747655935221","fe1hm8","ds","34","f","{""name"":""Chrome"",""chrome"":true,""version"":""105.0"",""blink"":true,""mac"":true,""osname"":""macOS"",""osversion"":""10.15.7"",""a"":true}","9:22:36","0","1","Practice_3","70","f","1","865.1999999880791","1440 x 900","1440 x 900","true","1","10","","","","",""
"null","<p style=""font-size: 80px;"">+ 10 points</p>","null","html-keyboard-response","8","99206","0.0-7.0-2.7","613b8c9c4ea7747655935221","fe1hm8","ds","34","f","{""name"":""Chrome"",""chrome"":true,""version"":""105.0"",""blink"":true,""mac"":true,""osname"":""macOS"",""osversion"":""10.15.7"",""a"":true}","9:22:36","0","1","Practice_1","70","f","1","860.1999999880791","1440 x 900","1440 x 900","true","1","10","","","","",""
"null","<p style=""font-size: 80px;"">+ 10 points</p>","null","html-keyboard-response","9","102352","0.0-7.0-2.8","613b8c9c4ea7747655935221","fe1hm8","ds","34","f","{""name"":""Chrome"",""chrome"":true,""version"":""105.0"",""blink"":true,""mac"":true,""osname"":""macOS"",""osversion"":""10.15.7"",""a"":true}","9:22:36","0","1","Practice_2","74","j","1","1134.5999999642372","1440 x 900","1440 x 900","true","1","10","","","","",""
"null","<p style=""font-size: 80px;"">+ 10 points</p>","null","html-keyboard-response","10","105354","0.0-7.0-2.9","613b8c9c4ea7747655935221","fe1hm8","ds","34","f","{""name"":""Chrome"",""chrome"":true,""version"":""105.0"",""blink"":true,""mac"":true,""osname"":""macOS"",""osversion"":""10.15.7"",""a"":true}","9:22:36","0","1","Practice_2","74","j","1","989.3000000119209","1440 x 900","1440 x 900","true","1","10","","","","",""
"null","<p style=""font-size: 80px;"">+ 10 points</p>","null","html-keyboard-response","11","108326","0.0-7.0-2.10","613b8c9c4ea7747655935221","fe1hm8","ds","34","f","{""name"":""Chrome"",""chrome"":true,""version"":""105.0"",""blink"":true,""mac"":true,""osname"":""macOS"",""osversion"":""10.15.7"",""a"":true}","9:22:36","0","1","Practice_2","74","j","1","965","1440 x 900","1440 x 900","true","1","10","","","","",""
"null","<p style=""font-size: 80px;"">+ 10 points</p>","null","html-keyboard-response","12","111126","0.0-7.0-2.11","613b8c9c4ea7747655935221","fe1hm8","ds","34","f","{""name"":""Chrome"",""chrome"":true,""version"":""105.0"",""blink"":true,""mac"":true,""osname"":""macOS"",""osversion"":""10.15.7"",""a"":true}","9:22:36","0","1","Practice_1","70","f","1","791.3999999761581","1440 x 900","1440 x 900","true","1","10","","","","",""
"null","<p style=""font-size: 80px;"">+ 10 points</p>","null","html-keyboard-response","13","114276","0.0-7.0-2.12","613b8c9c4ea7747655935221","fe1hm8","ds","34","f","{""name"":""Chrome"",""chrome"":true,""version"":""105.0"",""blink"":true,""mac"":true,""osname"":""macOS"",""osversion"":""10.15.7"",""a"":true}","9:22:36","0","1","Practice_3","70","f","1","1138.3999999761581","1440 x 900","1440 x 900","true","1","10","","","","",""
"null","<p style=""font-size: 80px;"">+ 10 points</p>","null","html-keyboard-response","14","117110","0.0-7.0-2.13","613b8c9c4ea7747655935221","fe1hm8","ds","34","f","{""name"":""Chrome"",""chrome"":true,""version"":""105.0"",""blink"":true,""mac"":true,""osname"":""macOS"",""osversion"":""10.15.7"",""a"":true}","9:22:36","0","1","Practice_3","70","f","1","825.6000000238419","1440 x 900","1440 x 900","true","1","10","","","","",""
"null","<p style=""font-size: 80px;"">+ 10 points</p>","null","html-keyboard-response","15","119839","0.0-7.0-2.14","613b8c9c4ea7747655935221","fe1hm8","ds","34","f","{""name"":""Chrome"",""chrome"":true,""version"":""105.0"",""blink"":true,""mac"":true,""osname"":""macOS"",""osversion"":""10.15.7"",""a"":true}","9:22:36","0","1","Practice_4","74","j","1","718.5999999642372","1440 x 900","1440 x 900","true","1","10","","","","",""
"null","<p style=""font-size: 80px;"">+ 10 points</p>","null","html-keyboard-response","16","122781","0.0-7.0-2.15","613b8c9c4ea7747655935221","fe1hm8","ds","34","f","{""name"":""Chrome"",""chrome"":true,""version"":""105.0"",""blink"":true,""mac"":true,""osname"":""macOS"",""osversion"":""10.15.7"",""a"":true}","9:22:36","0","1","Practice_1","70","f","1","929","1440 x 900","1440 x 900","true","1","10","","","","",""
"null","<p style=""font-size: 80px;"">+ 10 points</p>","null","html-keyboard-response","17","125679","0.0-7.0-2.16","613b8c9c4ea7747655935221","fe1hm8","ds","34","f","{""name"":""Chrome"",""chrome"":true,""version"":""105.0"",""blink"":true,""mac"":true,""osname"":""macOS"",""osversion"":""10.15.7"",""a"":true}","9:22:36","0","1","Practice_4","74","j","1","885.6000000238419","1440 x 900","1440 x 900","true","1","10","","","","",""
"null","<p style=""font-size: 80px;"">+ 10 points</p>","null","html-keyboard-response","18","128221","0.0-7.0-2.17","613b8c9c4ea7747655935221","fe1hm8","ds","34","f","{""name"":""Chrome"",""chrome"":true,""version"":""105.0"",""blink"":true,""mac"":true,""osname"":""macOS"",""osversion"":""10.15.7"",""a"":true}","9:22:36","0","1","Practice_1","70","f","1","531.6000000238419","1440 x 900","1440 x 900","true","1","10","","","","",""
"null","<p style=""font-size: 80px;"">+ 10 points</p>","null","html-keyboard-response","19","131088","0.0-7.0-2.18","613b8c9c4ea7747655935221","fe1hm8","ds","34","f","{""name"":""Chrome"",""chrome"":true,""version"":""105.0"",""blink"":true,""mac"":true,""osname"":""macOS"",""osversion"":""10.15.7"",""a"":true}","9:22:36","0","1","Practice_2","74","j","1","857.3000000119209","1440 x 900","1440 x 900","true","1","10","","","","",""
"null","<p style=""font-size: 80px;"">+ 10 points</p>","null","html-keyboard-response","20","133693","0.0-7.0-2.19","613b8c9c4ea7747655935221","fe1hm8","ds","34","f","{""name"":""Chrome"",""chrome"":true,""version"":""105.0"",""blink"":true,""mac"":true,""osname"":""macOS"",""osversion"":""10.15.7"",""a"":true}","9:22:36","0","1","Practice_1","70","f","1","594.8999999761581","1440 x 900","1440 x 900","true","1","10","","","","",""
"null","<p style=""font-size: 80px;"">+ 0 points</p>","null","html-keyboard-response","21","136493","0.0-7.0-2.20","613b8c9c4ea7747655935221","fe1hm8","ds","34","f","{""name"":""Chrome"",""chrome"":true,""version"":""105.0"",""blink"":true,""mac"":true,""osname"":""macOS"",""osversion"":""10.15.7"",""a"":true}","9:22:36","0","2","Practice_1","70","j","0","788.8000000119209","1440 x 900","1440 x 900","true","1","0","","","","",""
"null","<p style=""font-size: 80px;"">+ 0 points</p>","null","html-keyboard-response","22","139364","0.0-7.0-2.21","613b8c9c4ea7747655935221","fe1hm8","ds","34","f","{""name"":""Chrome"",""chrome"":true,""version"":""105.0"",""blink"":true,""mac"":true,""osname"":""macOS"",""osversion"":""10.15.7"",""a"":true}","9:22:36","0","2","Practice_4","74","f","0","859","1440 x 900","1440 x 900","true","1","0","","","","",""
"null","<p style=""font-size: 80px;"">+ 10 points</p>","null","html-keyboard-response","23","142281","0.0-7.0-2.22","613b8c9c4ea7747655935221","fe1hm8","ds","34","f","{""name"":""Chrome"",""chrome"":true,""version"":""105.0"",""blink"":true,""mac"":true,""osname"":""macOS"",""osversion"":""10.15.7"",""a"":true}","9:22:36","0","2","Practice_2","70","f","1","902","1440 x 900","1440 x 900","true","1","10","","","","",""
"null","<p style=""font-size: 80px;"">+ 10 points</p>","null","html-keyboard-response","24","145252","0.0-7.0-2.23","613b8c9c4ea7747655935221","fe1hm8","ds","34","f","{""name"":""Chrome"",""chrome"":true,""version"":""105.0"",""blink"":true,""mac"":true,""osname"":""macOS"",""osversion"":""10.15.7"",""a"":true}","9:22:36","0","2","Practice_3","74","j","1","960.8000000119209","1440 x 900","1440 x 900","true","1","10","","","","",""
"null","<p style=""font-size: 80px;"">+ 10 points</p>","null","html-keyboard-response","25","148205","0.0-7.0-2.24","613b8c9c4ea7747655935221","fe1hm8","ds","34","f","{""name"":""Chrome"",""chrome"":true,""version"":""105.0"",""blink"":true,""mac"":true,""osname"":""macOS"",""osversion"":""10.15.7"",""a"":true}","9:22:36","0","2","Practice_3","74","j","1","939.2000000476837","1440 x 900","1440 x 900","true","1","10","","","","",""
"null","<p style=""font-size: 80px;"">+ 10 points</p>","null","html-keyboard-response","26","151078","0.0-7.0-2.25","613b8c9c4ea7747655935221","fe1hm8","ds","34","f","{""name"":""Chrome"",""chrome"":true,""version"":""105.0"",""blink"":true,""mac"":true,""osname"":""macOS"",""osversion"":""10.15.7"",""a"":true}","9:22:36","0","2","Practice_4","70","f","1","862","1440 x 900","1440 x 900","true","1","10","","","","",""
"null","<p style=""font-size: 80px;"">+ 10 points</p>","null","html-keyboard-response","27","153938","0.0-7.0-2.26","613b8c9c4ea7747655935221","fe1hm8","ds","34","f","{""name"":""Chrome"",""chrome"":true,""version"":""105.0"",""blink"":true,""mac"":true,""osname"":""macOS"",""osversion"":""10.15.7"",""a"":true}","9:22:36","0","2","Practice_4","70","f","1","850","1440 x 900","1440 x 900","true","1","10","","","","",""
"null","<p style=""font-size: 80px;"">+ 10 points</p>","null","html-keyboard-response","28","156639","0.0-7.0-2.27","613b8c9c4ea7747655935221","fe1hm8","ds","34","f","{""name"":""Chrome"",""chrome"":true,""version"":""105.0"",""blink"":true,""mac"":true,""osname"":""macOS"",""osversion"":""10.15.7"",""a"":true}","9:22:36","0","2","Practice_3","74","j","1","685.6999999880791","1440 x 900","1440 x 900","true","1","10","","","","",""
"null","<p style=""font-size: 80px;"">+ 10 points</p>","null","html-keyboard-response","29","159599","0.0-7.0-2.28","613b8c9c4ea7747655935221","fe1hm8","ds","34","f","{""name"":""Chrome"",""chrome"":true,""version"":""105.0"",""blink"":true,""mac"":true,""osname"":""macOS"",""osversion"":""10.15.7"",""a"":true}","9:22:36","0","2","Practice_3","74","j","1","949.4000000357628","1440 x 900","1440 x 900","true","1","10","","","","",""
"null","<p style=""font-size: 80px;"">+ 10 points</p>","null","html-keyboard-response","30","162224","0.0-7.0-2.29","613b8c9c4ea7747655935221","fe1hm8","ds","34","f","{""name"":""Chrome"",""chrome"":true,""version"":""105.0"",""blink"":true,""mac"":true,""osname"":""macOS"",""osversion"":""10.15.7"",""a"":true}","9:22:36","0","2","Practice_3","74","j","1","613.5","1440 x 900","1440 x 900","true","1","10","","","","",""
"null","<p style=""font-size: 80px;"">+ 10 points</p>","null","html-keyboard-response","31","165387","0.0-7.0-2.30","613b8c9c4ea7747655935221","fe1hm8","ds","34","f","{""name"":""Chrome"",""chrome"":true,""version"":""105.0"",""blink"":true,""mac"":true,""osname"":""macOS"",""osversion"":""10.15.7"",""a"":true}","9:22:36","0","2","Practice_1","74","j","1","1151.6000000238419","1440 x 900","1440 x 900","true","1","10","","","","",""
"null","<p style=""font-size: 80px;"">+ 10 points</p>","null","html-keyboard-response","32","168173","0.0-7.0-2.31","613b8c9c4ea7747655935221","fe1hm8","ds","34","f","{""name"":""Chrome"",""chrome"":true,""version"":""105.0"",""blink"":true,""mac"":true,""osname"":""macOS"",""osversion"":""10.15.7"",""a"":true}","9:22:36","0","2","Practice_2","70","f","1","774.0999999642372","1440 x 900","1440 x 900","true","1","10","","","","",""
"null","<p style=""font-size: 80px;"">+ 10 points</p>","null","html-keyboard-response","33","171198","0.0-7.0-2.32","613b8c9c4ea7747655935221","fe1hm8","ds","34","f","{""name"":""Chrome"",""chrome"":true,""version"":""105.0"",""blink"":true,""mac"":true,""osname"":""macOS"",""osversion"":""10.15.7"",""a"":true}","9:22:36","0","2","Practice_1","74","j","1","1010.1000000238419","1440 x 900","1440 x 900","true","1","10","","","","",""
"null","<p style=""font-size: 80px;"">+ 10 points</p>","null","html-keyboard-response","34","174192","0.0-7.0-2.33","613b8c9c4ea7747655935221","fe1hm8","ds","34","f","{""name"":""Chrome"",""chrome"":true,""version"":""105.0"",""blink"":true,""mac"":true,""osname"":""macOS"",""osversion"":""10.15.7"",""a"":true}","9:22:36","0","2","Practice_4","70","f","1","984","1440 x 900","1440 x 900","true","1","10","","","","",""
"null","<p style=""font-size: 80px;"">+ 0 points</p>","null","html-keyboard-response","35","176973","0.0-7.0-2.34","613b8c9c4ea7747655935221","fe1hm8","ds","34","f","{""name"":""Chrome"",""chrome"":true,""version"":""105.0"",""blink"":true,""mac"":true,""osname"":""macOS"",""osversion"":""10.15.7"",""a"":true}","9:22:36","0","2","Practice_2","74","f","0","769","1440 x 900","1440 x 900","true","1","0","","","","",""
"null","<p style=""font-size: 80px;"">+ 10 points</p>","null","html-keyboard-response","36","180001","0.0-7.0-2.35","613b8c9c4ea7747655935221","fe1hm8","ds","34","f","{""name"":""Chrome"",""chrome"":true,""version"":""105.0"",""blink"":true,""mac"":true,""osname"":""macOS"",""osversion"":""10.15.7"",""a"":true}","9:22:36","0","2","Practice_2","70","f","1","1016","1440 x 900","1440 x 900","true","1","10","","","","",""
"null","<p style=""font-size: 80px;"">+ 10 points</p>","null","html-keyboard-response","37","182693","0.0-7.0-2.36","613b8c9c4ea7747655935221","fe1hm8","ds","34","f","{""name"":""Chrome"",""chrome"":true,""version"":""105.0"",""blink"":true,""mac"":true,""osname"":""macOS"",""osversion"":""10.15.7"",""a"":true}","9:22:36","0","2","Practice_2","70","f","1","682.1000000238419","1440 x 900","1440 x 900","true","1","10","","","","",""
"null","<p style=""font-size: 80px;"">+ 10 points</p>","null","html-keyboard-response","38","185464","0.0-7.0-2.37","613b8c9c4ea7747655935221","fe1hm8","ds","34","f","{""name"":""Chrome"",""chrome"":true,""version"":""105.0"",""blink"":true,""mac"":true,""osname"":""macOS"",""osversion"":""10.15.7"",""a"":true}","9:22:36","0","2","Practice_1","74","j","1","760.0999999642372","1440 x 900","1440 x 900","true","1","10","","","","",""
"null","<p style=""font-size: 80px;"">+ 10 points</p>","null","html-keyboard-response","39","188482","0.0-7.0-2.38","613b8c9c4ea7747655935221","fe1hm8","ds","34","f","{""name"":""Chrome"",""chrome"":true,""version"":""105.0"",""blink"":true,""mac"":true,""osname"":""macOS"",""osversion"":""10.15.7"",""a"":true}","9:22:36","0","2","Practice_1","74","j","1","1009.7000000476837","1440 x 900","1440 x 900","true","1","10","","","","",""
"null","<p style=""font-size: 80px;"">+ 10 points</p>","null","html-keyboard-response","40","191222","0.0-7.0-2.39","613b8c9c4ea7747655935221","fe1hm8","ds","34","f","{""name"":""Chrome"",""chrome"":true,""version"":""105.0"",""blink"":true,""mac"":true,""osname"":""macOS"",""osversion"":""10.15.7"",""a"":true}","9:22:36","0","2","Practice_4","70","f","1","727.6000000238419","1440 x 900","1440 x 900","true","1","10","","","","",""
"10466.600000023842","","","survey-multi-choice","127","201693","0.0-8.0","613b8c9c4ea7747655935221","fe1hm8","ds","34","f","{""name"":""Chrome"",""chrome"":true,""version"":""105.0"",""blink"":true,""mac"":true,""osname"":""macOS"",""osversion"":""10.15.7"",""a"":true}","9:22:36","","","","","","","","","","","1","","{""Q0"":""The red one"",""Q1"":""1""}","[0,1]","1","The red one","2"
"null","<p style=""font-size: 80px;"">+ 10 points</p>","null","html-keyboard-response","1","214201","0.0-11.0-2.0","613b8c9c4ea7747655935221","fe1hm8","ds","34","f","{""name"":""Chrome"",""chrome"":true,""version"":""105.0"",""blink"":true,""mac"":true,""osname"":""macOS"",""osversion"":""10.15.7"",""a"":true}","9:22:36","1","3","Test_3","70","f","1","1014.2999999523163","1440 x 900","1440 x 900","true","1","10","","","","",""
"null","<p style=""font-size: 80px;"">+ 10 points</p>","null","html-keyboard-response","2","217042","0.0-11.0-2.1","613b8c9c4ea7747655935221","fe1hm8","ds","34","f","{""name"":""Chrome"",""chrome"":true,""version"":""105.0"",""blink"":true,""mac"":true,""osname"":""macOS"",""osversion"":""10.15.7"",""a"":true}","9:22:36","1","3","Test_2","74","j","1","831","1440 x 900","1440 x 900","true","1","10","","","","",""
"null","<p style=""font-size: 80px;"">+ 10 points</p>","null","html-keyboard-response","3","220122","0.0-11.0-2.2","613b8c9c4ea7747655935221","fe1hm8","ds","34","f","{""name"":""Chrome"",""chrome"":true,""version"":""105.0"",""blink"":true,""mac"":true,""osname"":""macOS"",""osversion"":""10.15.7"",""a"":true}","9:22:36","1","3","Test_2","74","j","1","1068.300000011921","1440 x 900","1440 x 900","true","1","10","","","","",""
"null","<p style=""font-size: 80px;"">+ 10 points</p>","null","html-keyboard-response","4","223726","0.0-11.0-2.3","613b8c9c4ea7747655935221","fe1hm8","ds","34","f","{""name"":""Chrome"",""chrome"":true,""version"":""105.0"",""blink"":true,""mac"":true,""osname"":""macOS"",""osversion"":""10.15.7"",""a"":true}","9:22:36","1","3","Test_4","74","j","1","1589.9000000357628","1440 x 900","1440 x 900","true","1","10","","","","",""
"null","<p style=""font-size: 80px;"">+ 10 points</p>","null","html-keyboard-response","5","227074","0.0-11.0-2.4","613b8c9c4ea7747655935221","fe1hm8","ds","34","f","{""name"":""Chrome"",""chrome"":true,""version"":""105.0"",""blink"":true,""mac"":true,""osname"":""macOS"",""osversion"":""10.15.7"",""a"":true}","9:22:36","1","3","Test_1","70","f","1","1334.8999999761581","1440 x 900","1440 x 900","true","1","10","","","","",""
"null","<p style=""font-size: 80px;"">+ 10 points</p>","null","html-keyboard-response","6","229996","0.0-11.0-2.5","613b8c9c4ea7747655935221","fe1hm8","ds","34","f","{""name"":""Chrome"",""chrome"":true,""version"":""105.0"",""blink"":true,""mac"":true,""osname"":""macOS"",""osversion"":""10.15.7"",""a"":true}","9:22:36","1","3","Test_4","74","j","1","907.8000000119209","1440 x 900","1440 x 900","true","1","10","","","","",""
"null","<p style=""font-size: 80px;"">+ 10 points</p>","null","html-keyboard-response","7","232890","0.0-11.0-2.6","613b8c9c4ea7747655935221","fe1hm8","ds","34","f","{""name"":""Chrome"",""chrome"":true,""version"":""105.0"",""blink"":true,""mac"":true,""osname"":""macOS"",""osversion"":""10.15.7"",""a"":true}","9:22:36","1","3","Test_1","70","f","1","880.6999999880791","1440 x 900","1440 x 900","true","1","10","","","","",""
"null","<p style=""font-size: 80px;"">+ 10 points</p>","null","html-keyboard-response","8","235625","0.0-11.0-2.7","613b8c9c4ea7747655935221","fe1hm8","ds","34","f","{""name"":""Chrome"",""chrome"":true,""version"":""105.0"",""blink"":true,""mac"":true,""osname"":""macOS"",""osversion"":""10.15.7"",""a"":true}","9:22:36","1","3","Test_4","74","j","1","723.5999999642372","1440 x 900","1440 x 900","true","1","10","","","","",""
"null","<p style=""font-size: 80px;"">+ 10 points</p>","null","html-keyboard-response","9","238531","0.0-11.0-2.8","613b8c9c4ea7747655935221","fe1hm8","ds","34","f","{""name"":""Chrome"",""chrome"":true,""version"":""105.0"",""blink"":true,""mac"":true,""osname"":""macOS"",""osversion"":""10.15.7"",""a"":true}","9:22:36","1","3","Test_4","74","j","1","894.8000000119209","1440 x 900","1440 x 900","true","1","10","","","","",""
"null","<p style=""font-size: 80px;"">+ 10 points</p>","null","html-keyboard-response","10","241643","0.0-11.0-2.9","613b8c9c4ea7747655935221","fe1hm8","ds","34","f","{""name"":""Chrome"",""chrome"":true,""version"":""105.0"",""blink"":true,""mac"":true,""osname"":""macOS"",""osversion"":""10.15.7"",""a"":true}","9:22:36","1","3","Test_2","74","j","1","1098.5","1440 x 900","1440 x 900","true","1","10","","","","",""
"null","<p style=""font-size: 80px;"">+ 10 points</p>","null","html-keyboard-response","11","244643","0.0-11.0-2.10","613b8c9c4ea7747655935221","fe1hm8","ds","34","f","{""name"":""Chrome"",""chrome"":true,""version"":""105.0"",""blink"":true,""mac"":true,""osname"":""macOS"",""osversion"":""10.15.7"",""a"":true}","9:22:36","1","3","Test_2","74","j","1","990.2000000476837","1440 x 900","1440 x 900","true","1","10","","","","",""
"null","<p style=""font-size: 80px;"">+ 10 points</p>","null","html-keyboard-response","12","247504","0.0-11.0-2.11","613b8c9c4ea7747655935221","fe1hm8","ds","34","f","{""name"":""Chrome"",""chrome"":true,""version"":""105.0"",""blink"":true,""mac"":true,""osname"":""macOS"",""osversion"":""10.15.7"",""a"":true}","9:22:36","1","3","Test_1","70","f","1","849.9000000357628","1440 x 900","1440 x 900","true","1","10","","","","",""
"null","<p style=""font-size: 80px;"">+ 0 points</p>","null","html-keyboard-response","13","250298","0.0-11.0-2.12","613b8c9c4ea7747655935221","fe1hm8","ds","34","f","{""name"":""Chrome"",""chrome"":true,""version"":""105.0"",""blink"":true,""mac"":true,""osname"":""macOS"",""osversion"":""10.15.7"",""a"":true}","9:22:36","1","3","Test_3","74","f","0","784.1000000238419","1440 x 900","1440 x 900","true","1","0","","","","",""
"null","<p style=""font-size: 80px;"">+ 10 points</p>","null","html-keyboard-response","14","252958","0.0-11.0-2.13","613b8c9c4ea7747655935221","fe1hm8","ds","34","f","{""name"":""Chrome"",""chrome"":true,""version"":""105.0"",""blink"":true,""mac"":true,""osname"":""macOS"",""osversion"":""10.15.7"",""a"":true}","9:22:36","1","3","Test_3","70","f","1","645.1000000238419","1440 x 900","1440 x 900","true","1","10","","","","",""
"null","<p style=""font-size: 80px;"">+ 10 points</p>","null","html-keyboard-response","15","255581","0.0-11.0-2.14","613b8c9c4ea7747655935221","fe1hm8","ds","34","f","{""name"":""Chrome"",""chrome"":true,""version"":""105.0"",""blink"":true,""mac"":true,""osname"":""macOS"",""osversion"":""10.15.7"",""a"":true}","9:22:36","1","3","Test_3","70","f","1","608.3000000119209","1440 x 900","1440 x 900","true","1","10","","","","",""
"null","<p style=""font-size: 80px;"">+ 10 points</p>","null","html-keyboard-response","16","258298","0.0-11.0-2.15","613b8c9c4ea7747655935221","fe1hm8","ds","34","f","{""name"":""Chrome"",""chrome"":true,""version"":""105.0"",""blink"":true,""mac"":true,""osname"":""macOS"",""osversion"":""10.15.7"",""a"":true}","9:22:36","1","3","Test_1","70","f","1","706","1440 x 900","1440 x 900","true","1","10","","","","",""
"null","<p style=""font-size: 80px;"">+ 0 points</p>","null","html-keyboard-response","17","261046","0.0-11.0-2.16","613b8c9c4ea7747655935221","fe1hm8","ds","34","f","{""name"":""Chrome"",""chrome"":true,""version"":""105.0"",""blink"":true,""mac"":true,""osname"":""macOS"",""osversion"":""10.15.7"",""a"":true}","9:22:36","1","4","Test_3","70","j","0","734.5","1440 x 900","1440 x 900","true","1","0","","","","",""
"null","<p style=""font-size: 80px;"">+ 0 points</p>","null","html-keyboard-response","18","263935","0.0-11.0-2.17","613b8c9c4ea7747655935221","fe1hm8","ds","34","f","{""name"":""Chrome"",""chrome"":true,""version"":""105.0"",""blink"":true,""mac"":true,""osname"":""macOS"",""osversion"":""10.15.7"",""a"":true}","9:22:36","1","4","Test_1","70","j","0","881.8000000119209","1440 x 900","1440 x 900","true","1","0","","","","",""
"null","<p style=""font-size: 80px;"">+ 10 points</p>","null","html-keyboard-response","19","266731","0.0-11.0-2.18","613b8c9c4ea7747655935221","fe1hm8","ds","34","f","{""name"":""Chrome"",""chrome"":true,""version"":""105.0"",""blink"":true,""mac"":true,""osname"":""macOS"",""osversion"":""10.15.7"",""a"":true}","9:22:36","1","4","Test_1","74","j","1","780.6000000238419","1440 x 900","1440 x 900","true","1","10","","","","",""
"null","<p style=""font-size: 80px;"">+ 10 points</p>","null","html-keyboard-response","20","269442","0.0-11.0-2.19","613b8c9c4ea7747655935221","fe1hm8","ds","34","f","{""name"":""Chrome"",""chrome"":true,""version"":""105.0"",""blink"":true,""mac"":true,""osname"":""macOS"",""osversion"":""10.15.7"",""a"":true}","9:22:36","1","4","Test_1","74","j","1","700.6000000238419","1440 x 900","1440 x 900","true","1","10","","","","",""
"null","<p style=""font-size: 80px;"">+ 10 points</p>","null","html-keyboard-response","21","272662","0.0-11.0-2.20","613b8c9c4ea7747655935221","fe1hm8","ds","34","f","{""name"":""Chrome"",""chrome"":true,""version"":""105.0"",""blink"":true,""mac"":true,""osname"":""macOS"",""osversion"":""10.15.7"",""a"":true}","9:22:36","1","4","Test_2","70","f","1","1205.5","1440 x 900","1440 x 900","true","1","10","","","","",""
"null","<p style=""font-size: 80px;"">+ 10 points</p>","null","html-keyboard-response","22","275289","0.0-11.0-2.21","613b8c9c4ea7747655935221","fe1hm8","ds","34","f","{""name"":""Chrome"",""chrome"":true,""version"":""105.0"",""blink"":true,""mac"":true,""osname"":""macOS"",""osversion"":""10.15.7"",""a"":true}","9:22:36","1","4","Test_2","70","f","1","616.5","1440 x 900","1440 x 900","true","1","10","","","","",""
"null","<p style=""font-size: 80px;"">+ 10 points</p>","null","html-keyboard-response","23","277989","0.0-11.0-2.22","613b8c9c4ea7747655935221","fe1hm8","ds","34","f","{""name"":""Chrome"",""chrome"":true,""version"":""105.0"",""blink"":true,""mac"":true,""osname"":""macOS"",""osversion"":""10.15.7"",""a"":true}","9:22:36","1","4","Test_1","74","j","1","686.8000000119209","1440 x 900","1440 x 900","true","1","10","","","","",""
"null","<p style=""font-size: 80px;"">+ 10 points</p>","null","html-keyboard-response","24","281267","0.0-11.0-2.23","613b8c9c4ea7747655935221","fe1hm8","ds","34","f","{""name"":""Chrome"",""chrome"":true,""version"":""105.0"",""blink"":true,""mac"":true,""osname"":""macOS"",""osversion"":""10.15.7"",""a"":true}","9:22:36","1","4","Test_4","70","f","1","1264.699999988079","1440 x 900","1440 x 900","true","1","10","","","","",""
"null","<p style=""font-size: 80px;"">+ 10 points</p>","null","html-keyboard-response","25","283933","0.0-11.0-2.24","613b8c9c4ea7747655935221","fe1hm8","ds","34","f","{""name"":""Chrome"",""chrome"":true,""version"":""105.0"",""blink"":true,""mac"":true,""osname"":""macOS"",""osversion"":""10.15.7"",""a"":true}","9:22:36","1","4","Test_2","70","f","1","655.7999999523163","1440 x 900","1440 x 900","true","1","10","","","","",""
"null","<p style=""font-size: 80px;"">+ 10 points</p>","null","html-keyboard-response","26","286770","0.0-11.0-2.25","613b8c9c4ea7747655935221","fe1hm8","ds","34","f","{""name"":""Chrome"",""chrome"":true,""version"":""105.0"",""blink"":true,""mac"":true,""osname"":""macOS"",""osversion"":""10.15.7"",""a"":true}","9:22:36","1","4","Test_4","70","f","1","826.5999999642372","1440 x 900","1440 x 900","true","1","10","","","","",""
"null","<p style=""font-size: 80px;"">+ 10 points</p>","null","html-keyboard-response","27","289798","0.0-11.0-2.26","613b8c9c4ea7747655935221","fe1hm8","ds","34","f","{""name"":""Chrome"",""chrome"":true,""version"":""105.0"",""blink"":true,""mac"":true,""osname"":""macOS"",""osversion"":""10.15.7"",""a"":true}","9:22:36","1","4","Test_2","70","f","1","1015.1000000238419","1440 x 900","1440 x 900","true","1","10","","","","",""
"null","<p style=""font-size: 80px;"">+ 10 points</p>","null","html-keyboard-response","28","292647","0.0-11.0-2.27","613b8c9c4ea7747655935221","fe1hm8","ds","34","f","{""name"":""Chrome"",""chrome"":true,""version"":""105.0"",""blink"":true,""mac"":true,""osname"":""macOS"",""osversion"":""10.15.7"",""a"":true}","9:22:36","1","4","Test_4","70","f","1","837.6999999880791","1440 x 900","1440 x 900","true","1","10","","","","",""
"null","<p style=""font-size: 80px;"">+ 10 points</p>","null","html-keyboard-response","29","295487","0.0-11.0-2.28","613b8c9c4ea7747655935221","fe1hm8","ds","34","f","{""name"":""Chrome"",""chrome"":true,""version"":""105.0"",""blink"":true,""mac"":true,""osname"":""macOS"",""osversion"":""10.15.7"",""a"":true}","9:22:36","1","4","Test_4","70","f","1","825.5","1440 x 900","1440 x 900","true","1","10","","","","",""
"null","<p style=""font-size: 80px;"">+ 0 points</p>","null","html-keyboard-response","30","298664","0.0-11.0-2.29","613b8c9c4ea7747655935221","fe1hm8","ds","34","f","{""name"":""Chrome"",""chrome"":true,""version"":""105.0"",""blink"":true,""mac"":true,""osname"":""macOS"",""osversion"":""10.15.7"",""a"":true}","9:22:36","1","4","Test_2","74","f","0","1168.5999999642372","1440 x 900","1440 x 900","true","1","0","","","","",""
"null","<p style=""font-size: 80px;"">+ 10 points</p>","null","html-keyboard-response","31","301945","0.0-11.0-2.30","613b8c9c4ea7747655935221","fe1hm8","ds","34","f","{""name"":""Chrome"",""chrome"":true,""version"":""105.0"",""blink"":true,""mac"":true,""osname"":""macOS"",""osversion"":""10.15.7"",""a"":true}","9:22:36","1","4","Test_4","70","f","1","1270.0999999642372","1440 x 900","1440 x 900","true","1","10","","","","",""
"null","<p style=""font-size: 80px;"">+ 10 points</p>","null","html-keyboard-response","32","304907","0.0-11.0-2.31","613b8c9c4ea7747655935221","fe1hm8","ds","34","f","{""name"":""Chrome"",""chrome"":true,""version"":""105.0"",""blink"":true,""mac"":true,""osname"":""macOS"",""osversion"":""10.15.7"",""a"":true}","9:22:36","1","4","Test_4","70","f","1","955","1440 x 900","1440 x 900","true","1","10","","","","",""
"null","<p style=""font-size: 80px;"">+ 10 points</p>","null","html-keyboard-response","33","307914","0.0-11.0-2.32","613b8c9c4ea7747655935221","fe1hm8","ds","34","f","{""name"":""Chrome"",""chrome"":true,""version"":""105.0"",""blink"":true,""mac"":true,""osname"":""macOS"",""osversion"":""10.15.7"",""a"":true}","9:22:36","1","4","Test_1","74","j","1","995.4000000357628","1440 x 900","1440 x 900","true","1","10","","","","",""
"null","<p style=""font-size: 80px;"">+ 10 points</p>","null","html-keyboard-response","34","310562","0.0-11.0-2.33","613b8c9c4ea7747655935221","fe1hm8","ds","34","f","{""name"":""Chrome"",""chrome"":true,""version"":""105.0"",""blink"":true,""mac"":true,""osname"":""macOS"",""osversion"":""10.15.7"",""a"":true}","9:22:36","1","4","Test_3","74","j","1","638.3000000119209","1440 x 900","1440 x 900","true","1","10","","","","",""
"null","<p style=""font-size: 80px;"">+ 10 points</p>","null","html-keyboard-response","35","313742","0.0-11.0-2.34","613b8c9c4ea7747655935221","fe1hm8","ds","34","f","{""name"":""Chrome"",""chrome"":true,""version"":""105.0"",""blink"":true,""mac"":true,""osname"":""macOS"",""osversion"":""10.15.7"",""a"":true}","9:22:36","1","4","Test_1","74","j","1","1174.4000000357628","1440 x 900","1440 x 900","true","1","10","","","","",""
"null","<p style=""font-size: 80px;"">+ 10 points</p>","null","html-keyboard-response","36","316825","0.0-11.0-2.35","613b8c9c4ea7747655935221","fe1hm8","ds","34","f","{""name"":""Chrome"",""chrome"":true,""version"":""105.0"",""blink"":true,""mac"":true,""osname"":""macOS"",""osversion"":""10.15.7"",""a"":true}","9:22:36","1","4","Test_2","70","f","1","1069.2999999523163","1440 x 900","1440 x 900","true","1","10","","","","",""
"null","<p style=""font-size: 80px;"">+ 10 points</p>","null","html-keyboard-response","37","320172","0.0-11.0-2.36","613b8c9c4ea7747655935221","fe1hm8","ds","34","f","{""name"":""Chrome"",""chrome"":true,""version"":""105.0"",""blink"":true,""mac"":true,""osname"":""macOS"",""osversion"":""10.15.7"",""a"":true}","9:22:36","1","4","Test_3","74","j","1","1332.699999988079","1440 x 900","1440 x 900","true","1","10","","","","",""
"null","<p style=""font-size: 80px;"">+ 10 points</p>","null","html-keyboard-response","38","323122","0.0-11.0-2.37","613b8c9c4ea7747655935221","fe1hm8","ds","34","f","{""name"":""Chrome"",""chrome"":true,""version"":""105.0"",""blink"":true,""mac"":true,""osname"":""macOS"",""osversion"":""10.15.7"",""a"":true}","9:22:36","1","4","Test_3","74","j","1","934.1000000238419","1440 x 900","1440 x 900","true","1","10","","","","",""
"null","<p style=""font-size: 80px;"">+ 0 points</p>","null","html-keyboard-response","39","326491","0.0-11.0-2.38","613b8c9c4ea7747655935221","fe1hm8","ds","34","f","{""name"":""Chrome"",""chrome"":true,""version"":""105.0"",""blink"":true,""mac"":true,""osname"":""macOS"",""osversion"":""10.15.7"",""a"":true}","9:22:36","1","3","Test_3","74","f","0","1362.300000011921","1440 x 900","1440 x 900","true","1","0","","","","",""
"null","<p style=""font-size: 80px;"">+ 10 points</p>","null","html-keyboard-response","40","329660","0.0-11.0-2.39","613b8c9c4ea7747655935221","fe1hm8","ds","34","f","{""name"":""Chrome"",""chrome"":true,""version"":""105.0"",""blink"":true,""mac"":true,""osname"":""macOS"",""osversion"":""10.15.7"",""a"":true}","9:22:36","1","3","Test_1","70","f","1","1153.6000000238419","1440 x 900","1440 x 900","true","1","10","","","","",""
"null","<p style=""font-size: 80px;"">+ 10 points</p>","null","html-keyboard-response","41","332463","0.0-11.0-2.40","613b8c9c4ea7747655935221","fe1hm8","ds","34","f","{""name"":""Chrome"",""chrome"":true,""version"":""105.0"",""blink"":true,""mac"":true,""osname"":""macOS"",""osversion"":""10.15.7"",""a"":true}","9:22:36","1","3","Test_3","70","f","1","790.3000000119209","1440 x 900","1440 x 900","true","1","10","","","","",""
"null","<p style=""font-size: 80px;"">+ 10 points</p>","null","html-keyboard-response","42","335121","0.0-11.0-2.41","613b8c9c4ea7747655935221","fe1hm8","ds","34","f","{""name"":""Chrome"",""chrome"":true,""version"":""105.0"",""blink"":true,""mac"":true,""osname"":""macOS"",""osversion"":""10.15.7"",""a"":true}","9:22:36","1","3","Test_3","70","f","1","647.8999999761581","1440 x 900","1440 x 900","true","1","10","","","","",""
"null","<p style=""font-size: 80px;"">+ 10 points</p>","null","html-keyboard-response","43","337710","0.0-11.0-2.42","613b8c9c4ea7747655935221","fe1hm8","ds","34","f","{""name"":""Chrome"",""chrome"":true,""version"":""105.0"",""blink"":true,""mac"":true,""osname"":""macOS"",""osversion"":""10.15.7"",""a"":true}","9:22:36","1","3","Test_4","74","j","1","573.0999999642372","1440 x 900","1440 x 900","true","1","10","","","","",""
"null","<p style=""font-size: 80px;"">+ 10 points</p>","null","html-keyboard-response","44","340228","0.0-11.0-2.43","613b8c9c4ea7747655935221","fe1hm8","ds","34","f","{""name"":""Chrome"",""chrome"":true,""version"":""105.0"",""blink"":true,""mac"":true,""osname"":""macOS"",""osversion"":""10.15.7"",""a"":true}","9:22:36","1","3","Test_3","70","f","1","505.4000000357628","1440 x 900","1440 x 900","true","1","10","","","","",""
"null","<p style=""font-size: 80px;"">+ 10 points</p>","null","html-keyboard-response","45","342899","0.0-11.0-2.44","613b8c9c4ea7747655935221","fe1hm8","ds","34","f","{""name"":""Chrome"",""chrome"":true,""version"":""105.0"",""blink"":true,""mac"":true,""osname"":""macOS"",""osversion"":""10.15.7"",""a"":true}","9:22:36","1","3","Test_4","74","j","1","663.8999999761581","1440 x 900","1440 x 900","true","1","10","","","","",""
"null","<p style=""font-size: 80px;"">+ 10 points</p>","null","html-keyboard-response","46","345634","0.0-11.0-2.45","613b8c9c4ea7747655935221","fe1hm8","ds","34","f","{""name"":""Chrome"",""chrome"":true,""version"":""105.0"",""blink"":true,""mac"":true,""osname"":""macOS"",""osversion"":""10.15.7"",""a"":true}","9:22:36","1","3","Test_2","74","j","1","722.8999999761581","1440 x 900","1440 x 900","true","1","10","","","","",""
"null","<p style=""font-size: 80px;"">+ 10 points</p>","null","html-keyboard-response","47","348414","0.0-11.0-2.46","613b8c9c4ea7747655935221","fe1hm8","ds","34","f","{""name"":""Chrome"",""chrome"":true,""version"":""105.0"",""blink"":true,""mac"":true,""osname"":""macOS"",""osversion"":""10.15.7"",""a"":true}","9:22:36","1","3","Test_1","70","f","1","769.5","1440 x 900","1440 x 900","true","1","10","","","","",""
"null","<p style=""font-size: 80px;"">+ 0 points</p>","null","html-keyboard-response","48","351314","0.0-11.0-2.47","613b8c9c4ea7747655935221","fe1hm8","ds","34","f","{""name"":""Chrome"",""chrome"":true,""version"":""105.0"",""blink"":true,""mac"":true,""osname"":""macOS"",""osversion"":""10.15.7"",""a"":true}","9:22:36","1","3","Test_4","70","j","0","884.8000000119209","1440 x 900","1440 x 900","true","1","0","","","","",""
"null","<p style=""font-size: 80px;"">+ 10 points</p>","null","html-keyboard-response","49","354823","0.0-11.0-2.48","613b8c9c4ea7747655935221","fe1hm8","ds","34","f","{""name"":""Chrome"",""chrome"":true,""version"":""105.0"",""blink"":true,""mac"":true,""osname"":""macOS"",""osversion"":""10.15.7"",""a"":true}","9:22:36","1","3","Test_1","70","f","1","1498.300000011921","1440 x 900","1440 x 900","true","1","10","","","","",""
"null","<p style=""font-size: 80px;"">+ 0 points</p>","null","html-keyboard-response","50","357895","0.0-11.0-2.49","613b8c9c4ea7747655935221","fe1hm8","ds","34","f","{""name"":""Chrome"",""chrome"":true,""version"":""105.0"",""blink"":true,""mac"":true,""osname"":""macOS"",""osversion"":""10.15.7"",""a"":true}","9:22:36","1","3","Test_4","70","j","0","1057.5999999642372","1440 x 900","1440 x 900","true","1","0","","","","",""
"null","<p style=""font-size: 80px;"">+ 10 points</p>","null","html-keyboard-response","51","360960","0.0-11.0-2.50","613b8c9c4ea7747655935221","fe1hm8","ds","34","f","{""name"":""Chrome"",""chrome"":true,""version"":""105.0"",""blink"":true,""mac"":true,""osname"":""macOS"",""osversion"":""10.15.7"",""a"":true}","9:22:36","1","3","Test_3","70","f","1","1054","1440 x 900","1440 x 900","true","1","10","","","","",""
"null","<p style=""font-size: 80px;"">+ 10 points</p>","null","html-keyboard-response","52","363680","0.0-11.0-2.51","613b8c9c4ea7747655935221","fe1hm8","ds","34","f","{""name"":""Chrome"",""chrome"":true,""version"":""105.0"",""blink"":true,""mac"":true,""osname"":""macOS"",""osversion"":""10.15.7"",""a"":true}","9:22:36","1","3","Test_2","74","j","1","712.1999999880791","1440 x 900","1440 x 900","true","1","10","","","","",""
"null","<p style=""font-size: 80px;"">+ 10 points</p>","null","html-keyboard-response","53","366931","0.0-11.0-2.52","613b8c9c4ea7747655935221","fe1hm8","ds","34","f","{""name"":""Chrome"",""chrome"":true,""version"":""105.0"",""blink"":true,""mac"":true,""osname"":""macOS"",""osversion"":""10.15.7"",""a"":true}","9:22:36","1","3","Test_1","70","f","1","1239.800000011921","1440 x 900","1440 x 900","true","1","10","","","","",""
"null","<p style=""font-size: 80px;"">+ 10 points</p>","null","html-keyboard-response","54","369831","0.0-11.0-2.53","613b8c9c4ea7747655935221","fe1hm8","ds","34","f","{""name"":""Chrome"",""chrome"":true,""version"":""105.0"",""blink"":true,""mac"":true,""osname"":""macOS"",""osversion"":""10.15.7"",""a"":true}","9:22:36","1","3","Test_2","74","j","1","890.1000000238419","1440 x 900","1440 x 900","true","1","10","","","","",""
"null","<p style=""font-size: 80px;"">+ 10 points</p>","null","html-keyboard-response","55","372892","0.0-11.0-2.54","613b8c9c4ea7747655935221","fe1hm8","ds","34","f","{""name"":""Chrome"",""chrome"":true,""version"":""105.0"",""blink"":true,""mac"":true,""osname"":""macOS"",""osversion"":""10.15.7"",""a"":true}","9:22:36","1","3","Test_4","74","j","1","1051.5","1440 x 900","1440 x 900","true","1","10","","","","",""
"null","<p style=""font-size: 80px;"">+ 0 points</p>","null","html-keyboard-response","56","375712","0.0-11.0-2.55","613b8c9c4ea7747655935221","fe1hm8","ds","34","f","{""name"":""Chrome"",""chrome"":true,""version"":""105.0"",""blink"":true,""mac"":true,""osname"":""macOS"",""osversion"":""10.15.7"",""a"":true}","9:22:36","1","3","Test_1","74","f","0","806.4000000357628","1440 x 900","1440 x 900","true","1","0","","","","",""
"null","<p style=""font-size: 80px;"">+ 0 points</p>","null","html-keyboard-response","57","378904","0.0-11.0-2.56","613b8c9c4ea7747655935221","fe1hm8","ds","34","f","{""name"":""Chrome"",""chrome"":true,""version"":""105.0"",""blink"":true,""mac"":true,""osname"":""macOS"",""osversion"":""10.15.7"",""a"":true}","9:22:36","1","4","Test_3","70","j","0","1181.7999999523163","1440 x 900","1440 x 900","true","1","0","","","","",""
"null","<p style=""font-size: 80px;"">+ 0 points</p>","null","html-keyboard-response","58","382231","0.0-11.0-2.57","613b8c9c4ea7747655935221","fe1hm8","ds","34","f","{""name"":""Chrome"",""chrome"":true,""version"":""105.0"",""blink"":true,""mac"":true,""osname"":""macOS"",""osversion"":""10.15.7"",""a"":true}","9:22:36","1","4","Test_1","70","j","0","1317.199999988079","1440 x 900","1440 x 900","true","1","0","","","","",""
"null","<p style=""font-size: 80px;"">+ 10 points</p>","null","html-keyboard-response","59","385030","0.0-11.0-2.58","613b8c9c4ea7747655935221","fe1hm8","ds","34","f","{""name"":""Chrome"",""chrome"":true,""version"":""105.0"",""blink"":true,""mac"":true,""osname"":""macOS"",""osversion"":""10.15.7"",""a"":true}","9:22:36","1","4","Test_4","70","f","1","789.0999999642372","1440 x 900","1440 x 900","true","1","10","","","","",""
"null","<p style=""font-size: 80px;"">+ 10 points</p>","null","html-keyboard-response","60","387918","0.0-11.0-2.59","613b8c9c4ea7747655935221","fe1hm8","ds","34","f","{""name"":""Chrome"",""chrome"":true,""version"":""105.0"",""blink"":true,""mac"":true,""osname"":""macOS"",""osversion"":""10.15.7"",""a"":true}","9:22:36","1","4","Test_1","74","j","1","882.1999999880791","1440 x 900","1440 x 900","true","1","10","","","","",""
"null","<p style=""font-size: 80px;"">+ 10 points</p>","null","html-keyboard-response","61","390704","0.0-11.0-2.60","613b8c9c4ea7747655935221","fe1hm8","ds","34","f","{""name"":""Chrome"",""chrome"":true,""version"":""105.0"",""blink"":true,""mac"":true,""osname"":""macOS"",""osversion"":""10.15.7"",""a"":true}","9:22:36","1","4","Test_2","70","f","1","776.5","1440 x 900","1440 x 900","true","1","10","","","","",""
"null","<p style=""font-size: 80px;"">+ 10 points</p>","null","html-keyboard-response","62","393582","0.0-11.0-2.61","613b8c9c4ea7747655935221","fe1hm8","ds","34","f","{""name"":""Chrome"",""chrome"":true,""version"":""105.0"",""blink"":true,""mac"":true,""osname"":""macOS"",""osversion"":""10.15.7"",""a"":true}","9:22:36","1","4","Test_4","70","f","1","864.5","1440 x 900","1440 x 900","true","1","10","","","","",""
"null","<p style=""font-size: 80px;"">+ 10 points</p>","null","html-keyboard-response","63","396537","0.0-11.0-2.62","613b8c9c4ea7747655935221","fe1hm8","ds","34","f","{""name"":""Chrome"",""chrome"":true,""version"":""105.0"",""blink"":true,""mac"":true,""osname"":""macOS"",""osversion"":""10.15.7"",""a"":true}","9:22:36","1","4","Test_1","74","j","1","943.4000000357628","1440 x 900","1440 x 900","true","1","10","","","","",""
"null","<p style=""font-size: 80px;"">+ 10 points</p>","null","html-keyboard-response","64","399680","0.0-11.0-2.63","613b8c9c4ea7747655935221","fe1hm8","ds","34","f","{""name"":""Chrome"",""chrome"":true,""version"":""105.0"",""blink"":true,""mac"":true,""osname"":""macOS"",""osversion"":""10.15.7"",""a"":true}","9:22:36","1","4","Test_2","70","f","1","1134.5","1440 x 900","1440 x 900","true","1","10","","","","",""
"null","<p style=""font-size: 80px;"">+ 10 points</p>","null","html-keyboard-response","65","402877","0.0-11.0-2.64","613b8c9c4ea7747655935221","fe1hm8","ds","34","f","{""name"":""Chrome"",""chrome"":true,""version"":""105.0"",""blink"":true,""mac"":true,""osname"":""macOS"",""osversion"":""10.15.7"",""a"":true}","9:22:36","1","4","Test_1","74","j","1","1183","1440 x 900","1440 x 900","true","1","10","","","","",""
"null","<p style=""font-size: 80px;"">+ 10 points</p>","null","html-keyboard-response","66","405930","0.0-11.0-2.65","613b8c9c4ea7747655935221","fe1hm8","ds","34","f","{""name"":""Chrome"",""chrome"":true,""version"":""105.0"",""blink"":true,""mac"":true,""osname"":""macOS"",""osversion"":""10.15.7"",""a"":true}","9:22:36","1","4","Test_1","74","j","1","1041.6000000238419","1440 x 900","1440 x 900","true","1","10","","","","",""
"null","<p style=""font-size: 80px;"">+ 10 points</p>","null","html-keyboard-response","67","409186","0.0-11.0-2.66","613b8c9c4ea7747655935221","fe1hm8","ds","34","f","{""name"":""Chrome"",""chrome"":true,""version"":""105.0"",""blink"":true,""mac"":true,""osname"":""macOS"",""osversion"":""10.15.7"",""a"":true}","9:22:36","1","4","Test_3","74","j","1","1245.300000011921","1440 x 900","1440 x 900","true","1","10","","","","",""
"null","<p style=""font-size: 80px;"">+ 10 points</p>","null","html-keyboard-response","68","412757","0.0-11.0-2.67","613b8c9c4ea7747655935221","fe1hm8","ds","34","f","{""name"":""Chrome"",""chrome"":true,""version"":""105.0"",""blink"":true,""mac"":true,""osname"":""macOS"",""osversion"":""10.15.7"",""a"":true}","9:22:36","1","4","Test_1","74","j","1","1557.4000000357628","1440 x 900","1440 x 900","true","1","10","","","","",""
"null","<p style=""font-size: 80px;"">+ 10 points</p>","null","html-keyboard-response","69","415736","0.0-11.0-2.68","613b8c9c4ea7747655935221","fe1hm8","ds","34","f","{""name"":""Chrome"",""chrome"":true,""version"":""105.0"",""blink"":true,""mac"":true,""osname"":""macOS"",""osversion"":""10.15.7"",""a"":true}","9:22:36","1","4","Test_4","70","f","1","970.3000000119209","1440 x 900","1440 x 900","true","1","10","","","","",""
"null","<p style=""font-size: 80px;"">+ 10 points</p>","null","html-keyboard-response","70","418814","0.0-11.0-2.69","613b8c9c4ea7747655935221","fe1hm8","ds","34","f","{""name"":""Chrome"",""chrome"":true,""version"":""105.0"",""blink"":true,""mac"":true,""osname"":""macOS"",""osversion"":""10.15.7"",""a"":true}","9:22:36","1","4","Test_3","74","j","1","1064.9000000357628","1440 x 900","1440 x 900","true","1","10","","","","",""
"null","<p style=""font-size: 80px;"">+ 10 points</p>","null","html-keyboard-response","71","421521","0.0-11.0-2.70","613b8c9c4ea7747655935221","fe1hm8","ds","34","f","{""name"":""Chrome"",""chrome"":true,""version"":""105.0"",""blink"":true,""mac"":true,""osname"":""macOS"",""osversion"":""10.15.7"",""a"":true}","9:22:36","1","4","Test_4","70","f","1","695.8000000119209","1440 x 900","1440 x 900","true","1","10","","","","",""
"null","<p style=""font-size: 80px;"">+ 0 points</p>","null","html-keyboard-response","72","424513","0.0-11.0-2.71","613b8c9c4ea7747655935221","fe1hm8","ds","34","f","{""name"":""Chrome"",""chrome"":true,""version"":""105.0"",""blink"":true,""mac"":true,""osname"":""macOS"",""osversion"":""10.15.7"",""a"":true}","9:22:36","1","4","Test_4","74","f","0","978.4000000357628","1440 x 900","1440 x 900","true","1","0","","","","",""
"null","<p style=""font-size: 80px;"">+ 10 points</p>","null","html-keyboard-response","73","427577","0.0-11.0-2.72","613b8c9c4ea7747655935221","fe1hm8","ds","34","f","{""name"":""Chrome"",""chrome"":true,""version"":""105.0"",""blink"":true,""mac"":true,""osname"":""macOS"",""osversion"":""10.15.7"",""a"":true}","9:22:36","1","4","Test_3","74","j","1","1051.699999988079","1440 x 900","1440 x 900","true","1","10","","","","",""
"null","<p style=""font-size: 80px;"">+ 10 points</p>","null","html-keyboard-response","74","430571","0.0-11.0-2.73","613b8c9c4ea7747655935221","fe1hm8","ds","34","f","{""name"":""Chrome"",""chrome"":true,""version"":""105.0"",""blink"":true,""mac"":true,""osname"":""macOS"",""osversion"":""10.15.7"",""a"":true}","9:22:36","1","4","Test_2","70","f","1","982.1999999880791","1440 x 900","1440 x 900","true","1","10","","","","",""
"null","<p style=""font-size: 80px;"">+ 10 points</p>","null","html-keyboard-response","75","433231","0.0-11.0-2.74","613b8c9c4ea7747655935221","fe1hm8","ds","34","f","{""name"":""Chrome"",""chrome"":true,""version"":""105.0"",""blink"":true,""mac"":true,""osname"":""macOS"",""osversion"":""10.15.7"",""a"":true}","9:22:36","1","4","Test_4","70","f","1","648.5999999642372","1440 x 900","1440 x 900","true","1","10","","","","",""
"null","<p style=""font-size: 80px;"">+ 10 points</p>","null","html-keyboard-response","76","436428","0.0-11.0-2.75","613b8c9c4ea7747655935221","fe1hm8","ds","34","f","{""name"":""Chrome"",""chrome"":true,""version"":""105.0"",""blink"":true,""mac"":true,""osname"":""macOS"",""osversion"":""10.15.7"",""a"":true}","9:22:36","1","4","Test_2","70","f","1","1181.8999999761581","1440 x 900","1440 x 900","true","1","10","","","","",""
"null","<p style=""font-size: 80px;"">+ 0 points</p>","null","html-keyboard-response","77","439697","0.0-11.0-2.76","613b8c9c4ea7747655935221","fe1hm8","ds","34","f","{""name"":""Chrome"",""chrome"":true,""version"":""105.0"",""blink"":true,""mac"":true,""osname"":""macOS"",""osversion"":""10.15.7"",""a"":true}","9:22:36","1","4","Test_3","70","j","0","1260.5","1440 x 900","1440 x 900","true","1","0","","","","",""
"null","<p style=""font-size: 80px;"">+ 10 points</p>","null","html-keyboard-response","78","442738","0.0-11.0-2.77","613b8c9c4ea7747655935221","fe1hm8","ds","34","f","{""name"":""Chrome"",""chrome"":true,""version"":""105.0"",""blink"":true,""mac"":true,""osname"":""macOS"",""osversion"":""10.15.7"",""a"":true}","9:22:36","1","4","Test_2","70","f","1","1027.7999999523163","1440 x 900","1440 x 900","true","1","10","","","","",""
"null","<p style=""font-size: 80px;"">+ 10 points</p>","null","html-keyboard-response","79","446059","0.0-11.0-2.78","613b8c9c4ea7747655935221","fe1hm8","ds","34","f","{""name"":""Chrome"",""chrome"":true,""version"":""105.0"",""blink"":true,""mac"":true,""osname"":""macOS"",""osversion"":""10.15.7"",""a"":true}","9:22:36","1","4","Test_3","74","j","1","1306.5","1440 x 900","1440 x 900","true","1","10","","","","",""
"null","<p style=""font-size: 80px;"">+ 0 points</p>","null","html-keyboard-response","80","449693","0.0-11.0-2.79","613b8c9c4ea7747655935221","fe1hm8","ds","34","f","{""name"":""Chrome"",""chrome"":true,""version"":""105.0"",""blink"":true,""mac"":true,""osname"":""macOS"",""osversion"":""10.15.7"",""a"":true}","9:22:36","1","4","Test_2","74","f","0","1621","1440 x 900","1440 x 900","true","1","0","","","","",""
"null","<p style=""font-size: 80px;"">+ 0 points</p>","null","html-keyboard-response","81","452568","0.0-11.0-2.80","613b8c9c4ea7747655935221","fe1hm8","ds","34","f","{""name"":""Chrome"",""chrome"":true,""version"":""105.0"",""blink"":true,""mac"":true,""osname"":""macOS"",""osversion"":""10.15.7"",""a"":true}","9:22:36","1","3","Test_2","70","j","0","863.6000000238419","1440 x 900","1440 x 900","true","1","0","","","","",""
"null","<p style=""font-size: 80px;"">+ 10 points</p>","null","html-keyboard-response","82","455203","0.0-11.0-2.81","613b8c9c4ea7747655935221","fe1hm8","ds","34","f","{""name"":""Chrome"",""chrome"":true,""version"":""105.0"",""blink"":true,""mac"":true,""osname"":""macOS"",""osversion"":""10.15.7"",""a"":true}","9:22:36","1","3","Test_3","70","f","1","621.6000000238419","1440 x 900","1440 x 900","true","1","10","","","","",""
"null","<p style=""font-size: 80px;"">+ 10 points</p>","null","html-keyboard-response","83","458471","0.0-11.0-2.82","613b8c9c4ea7747655935221","fe1hm8","ds","34","f","{""name"":""Chrome"",""chrome"":true,""version"":""105.0"",""blink"":true,""mac"":true,""osname"":""macOS"",""osversion"":""10.15.7"",""a"":true}","9:22:36","1","3","Test_1","70","f","1","1255.5999999642372","1440 x 900","1440 x 900","true","1","10","","","","",""
"null","<p style=""font-size: 80px;"">+ 10 points</p>","null","html-keyboard-response","84","461317","0.0-11.0-2.83","613b8c9c4ea7747655935221","fe1hm8","ds","34","f","{""name"":""Chrome"",""chrome"":true,""version"":""105.0"",""blink"":true,""mac"":true,""osname"":""macOS"",""osversion"":""10.15.7"",""a"":true}","9:22:36","1","3","Test_2","74","j","1","830.9000000357628","1440 x 900","1440 x 900","true","1","10","","","","",""
"null","<p style=""font-size: 80px;"">+ 10 points</p>","null","html-keyboard-response","85","464187","0.0-11.0-2.84","613b8c9c4ea7747655935221","fe1hm8","ds","34","f","{""name"":""Chrome"",""chrome"":true,""version"":""105.0"",""blink"":true,""mac"":true,""osname"":""macOS"",""osversion"":""10.15.7"",""a"":true}","9:22:36","1","3","Test_4","74","j","1","857","1440 x 900","1440 x 900","true","1","10","","","","",""
"null","<p style=""font-size: 80px;"">+ 10 points</p>","null","html-keyboard-response","86","467303","0.0-11.0-2.85","613b8c9c4ea7747655935221","fe1hm8","ds","34","f","{""name"":""Chrome"",""chrome"":true,""version"":""105.0"",""blink"":true,""mac"":true,""osname"":""macOS"",""osversion"":""10.15.7"",""a"":true}","9:22:36","1","3","Test_4","74","j","1","1104","1440 x 900","1440 x 900","true","1","10","","","","",""
"null","<p style=""font-size: 80px;"">+ 10 points</p>","null","html-keyboard-response","87","469914","0.0-11.0-2.86","613b8c9c4ea7747655935221","fe1hm8","ds","34","f","{""name"":""Chrome"",""chrome"":true,""version"":""105.0"",""blink"":true,""mac"":true,""osname"":""macOS"",""osversion"":""10.15.7"",""a"":true}","9:22:36","1","3","Test_3","70","f","1","596.7000000476837","1440 x 900","1440 x 900","true","1","10","","","","",""
"null","<p style=""font-size: 80px;"">+ 10 points</p>","null","html-keyboard-response","88","472580","0.0-11.0-2.87","613b8c9c4ea7747655935221","fe1hm8","ds","34","f","{""name"":""Chrome"",""chrome"":true,""version"":""105.0"",""blink"":true,""mac"":true,""osname"":""macOS"",""osversion"":""10.15.7"",""a"":true}","9:22:36","1","3","Test_1","70","f","1","653.8000000119209","1440 x 900","1440 x 900","true","1","10","","","","",""
"null","<p style=""font-size: 80px;"">+ 10 points</p>","null","html-keyboard-response","89","475355","0.0-11.0-2.88","613b8c9c4ea7747655935221","fe1hm8","ds","34","f","{""name"":""Chrome"",""chrome"":true,""version"":""105.0"",""blink"":true,""mac"":true,""osname"":""macOS"",""osversion"":""10.15.7"",""a"":true}","9:22:36","1","3","Test_1","70","f","1","761.9000000357628","1440 x 900","1440 x 900","true","1","10","","","","",""
"null","<p style=""font-size: 80px;"">+ 10 points</p>","null","html-keyboard-response","90","478124","0.0-11.0-2.89","613b8c9c4ea7747655935221","fe1hm8","ds","34","f","{""name"":""Chrome"",""chrome"":true,""version"":""105.0"",""blink"":true,""mac"":true,""osname"":""macOS"",""osversion"":""10.15.7"",""a"":true}","9:22:36","1","3","Test_4","74","j","1","758.8000000119209","1440 x 900","1440 x 900","true","1","10","","","","",""
"null","<p style=""font-size: 80px;"">+ 10 points</p>","null","html-keyboard-response","91","480865","0.0-11.0-2.90","613b8c9c4ea7747655935221","fe1hm8","ds","34","f","{""name"":""Chrome"",""chrome"":true,""version"":""105.0"",""blink"":true,""mac"":true,""osname"":""macOS"",""osversion"":""10.15.7"",""a"":true}","9:22:36","1","3","Test_2","74","j","1","726.8999999761581","1440 x 900","1440 x 900","true","1","10","","","","",""
"null","<p style=""font-size: 80px;"">+ 10 points</p>","null","html-keyboard-response","92","483839","0.0-11.0-2.91","613b8c9c4ea7747655935221","fe1hm8","ds","34","f","{""name"":""Chrome"",""chrome"":true,""version"":""105.0"",""blink"":true,""mac"":true,""osname"":""macOS"",""osversion"":""10.15.7"",""a"":true}","9:22:36","1","3","Test_4","74","j","1","961.6999999880791","1440 x 900","1440 x 900","true","1","10","","","","",""
"null","<p style=""font-size: 80px;"">+ 10 points</p>","null","html-keyboard-response","93","486966","0.0-11.0-2.92","613b8c9c4ea7747655935221","fe1hm8","ds","34","f","{""name"":""Chrome"",""chrome"":true,""version"":""105.0"",""blink"":true,""mac"":true,""osname"":""macOS"",""osversion"":""10.15.7"",""a"":true}","9:22:36","1","3","Test_3","70","f","1","1118.8999999761581","1440 x 900","1440 x 900","true","1","10","","","","",""
"null","<p style=""font-size: 80px;"">+ 10 points</p>","null","html-keyboard-response","94","490317","0.0-11.0-2.93","613b8c9c4ea7747655935221","fe1hm8","ds","34","f","{""name"":""Chrome"",""chrome"":true,""version"":""105.0"",""blink"":true,""mac"":true,""osname"":""macOS"",""osversion"":""10.15.7"",""a"":true}","9:22:36","1","3","Test_1","70","f","1","1338.1000000238419","1440 x 900","1440 x 900","true","1","10","","","","",""
"null","<p style=""font-size: 80px;"">+ 10 points</p>","null","html-keyboard-response","95","493109","0.0-11.0-2.94","613b8c9c4ea7747655935221","fe1hm8","ds","34","f","{""name"":""Chrome"",""chrome"":true,""version"":""105.0"",""blink"":true,""mac"":true,""osname"":""macOS"",""osversion"":""10.15.7"",""a"":true}","9:22:36","1","3","Test_3","70","f","1","779","1440 x 900","1440 x 900","true","1","10","","","","",""
"null","<p style=""font-size: 80px;"">+ 10 points</p>","null","html-keyboard-response","96","495747","0.0-11.0-2.95","613b8c9c4ea7747655935221","fe1hm8","ds","34","f","{""name"":""Chrome"",""chrome"":true,""version"":""105.0"",""blink"":true,""mac"":true,""osname"":""macOS"",""osversion"":""10.15.7"",""a"":true}","9:22:36","1","3","Test_2","74","j","1","629.2999999523163","1440 x 900","1440 x 900","true","1","10","","","","",""
"null","<p style=""font-size: 80px;"">+ 0 points</p>","null","html-keyboard-response","97","498247","0.0-11.0-2.96","613b8c9c4ea7747655935221","fe1hm8","ds","34","f","{""name"":""Chrome"",""chrome"":true,""version"":""105.0"",""blink"":true,""mac"":true,""osname"":""macOS"",""osversion"":""10.15.7"",""a"":true}","9:22:36","1","4","Test_2","74","f","0","487.9000000357628","1440 x 900","1440 x 900","true","1","0","","","","",""
"null","<p style=""font-size: 80px;"">+ 0 points</p>","null","html-keyboard-response","98","500930","0.0-11.0-2.97","613b8c9c4ea7747655935221","fe1hm8","ds","34","f","{""name"":""Chrome"",""chrome"":true,""version"":""105.0"",""blink"":true,""mac"":true,""osname"":""macOS"",""osversion"":""10.15.7"",""a"":true}","9:22:36","1","4","Test_4","74","f","0","671.1000000238419","1440 x 900","1440 x 900","true","1","0","","","","",""
"null","<p style=""font-size: 80px;"">+ 10 points</p>","null","html-keyboard-response","99","503751","0.0-11.0-2.98","613b8c9c4ea7747655935221","fe1hm8","ds","34","f","{""name"":""Chrome"",""chrome"":true,""version"":""105.0"",""blink"":true,""mac"":true,""osname"":""macOS"",""osversion"":""10.15.7"",""a"":true}","9:22:36","1","4","Test_2","70","f","1","813.2000000476837","1440 x 900","1440 x 900","true","1","10","","","","",""
"null","<p style=""font-size: 80px;"">+ 10 points</p>","null","html-keyboard-response","100","506657","0.0-11.0-2.99","613b8c9c4ea7747655935221","fe1hm8","ds","34","f","{""name"":""Chrome"",""chrome"":true,""version"":""105.0"",""blink"":true,""mac"":true,""osname"":""macOS"",""osversion"":""10.15.7"",""a"":true}","9:22:36","1","4","Test_3","74","j","1","890","1440 x 900","1440 x 900","true","1","10","","","","",""
"null","<p style=""font-size: 80px;"">+ 10 points</p>","null","html-keyboard-response","101","509379","0.0-11.0-2.100","613b8c9c4ea7747655935221","fe1hm8","ds","34","f","{""name"":""Chrome"",""chrome"":true,""version"":""105.0"",""blink"":true,""mac"":true,""osname"":""macOS"",""osversion"":""10.15.7"",""a"":true}","9:22:36","1","4","Test_1","74","j","1","710.6000000238419","1440 x 900","1440 x 900","true","1","10","","","","",""
"null","<p style=""font-size: 80px;"">+ 10 points</p>","null","html-keyboard-response","102","512231","0.0-11.0-2.101","613b8c9c4ea7747655935221","fe1hm8","ds","34","f","{""name"":""Chrome"",""chrome"":true,""version"":""105.0"",""blink"":true,""mac"":true,""osname"":""macOS"",""osversion"":""10.15.7"",""a"":true}","9:22:36","1","4","Test_4","70","f","1","842","1440 x 900","1440 x 900","true","1","10","","","","",""
"null","<p style=""font-size: 80px;"">+ 10 points</p>","null","html-keyboard-response","103","515080","0.0-11.0-2.102","613b8c9c4ea7747655935221","fe1hm8","ds","34","f","{""name"":""Chrome"",""chrome"":true,""version"":""105.0"",""blink"":true,""mac"":true,""osname"":""macOS"",""osversion"":""10.15.7"",""a"":true}","9:22:36","1","4","Test_3","74","j","1","835.1999999880791","1440 x 900","1440 x 900","true","1","10","","","","",""
"null","<p style=""font-size: 80px;"">+ 0 points</p>","null","html-keyboard-response","104","517783","0.0-11.0-2.103","613b8c9c4ea7747655935221","fe1hm8","ds","34","f","{""name"":""Chrome"",""chrome"":true,""version"":""105.0"",""blink"":true,""mac"":true,""osname"":""macOS"",""osversion"":""10.15.7"",""a"":true}","9:22:36","1","4","Test_3","70","j","0","693","1440 x 900","1440 x 900","true","1","0","","","","",""
"null","<p style=""font-size: 80px;"">+ 10 points</p>","null","html-keyboard-response","105","520774","0.0-11.0-2.104","613b8c9c4ea7747655935221","fe1hm8","ds","34","f","{""name"":""Chrome"",""chrome"":true,""version"":""105.0"",""blink"":true,""mac"":true,""osname"":""macOS"",""osversion"":""10.15.7"",""a"":true}","9:22:36","1","4","Test_1","74","j","1","976.0999999642372","1440 x 900","1440 x 900","true","1","10","","","","",""
"null","<p style=""font-size: 80px;"">+ 10 points</p>","null","html-keyboard-response","106","523513","0.0-11.0-2.105","613b8c9c4ea7747655935221","fe1hm8","ds","34","f","{""name"":""Chrome"",""chrome"":true,""version"":""105.0"",""blink"":true,""mac"":true,""osname"":""macOS"",""osversion"":""10.15.7"",""a"":true}","9:22:36","1","4","Test_2","70","f","1","727","1440 x 900","1440 x 900","true","1","10","","","","",""
"null","<p style=""font-size: 80px;"">+ 10 points</p>","null","html-keyboard-response","107","526380","0.0-11.0-2.106","613b8c9c4ea7747655935221","fe1hm8","ds","34","f","{""name"":""Chrome"",""chrome"":true,""version"":""105.0"",""blink"":true,""mac"":true,""osname"":""macOS"",""osversion"":""10.15.7"",""a"":true}","9:22:36","1","4","Test_4","70","f","1","853.6000000238419","1440 x 900","1440 x 900","true","1","10","","","","",""
"null","<p style=""font-size: 80px;"">+ 10 points</p>","null","html-keyboard-response","108","529234","0.0-11.0-2.107","613b8c9c4ea7747655935221","fe1hm8","ds","34","f","{""name"":""Chrome"",""chrome"":true,""version"":""105.0"",""blink"":true,""mac"":true,""osname"":""macOS"",""osversion"":""10.15.7"",""a"":true}","9:22:36","1","4","Test_3","74","j","1","844.1999999880791","1440 x 900","1440 x 900","true","1","10","","","","",""
"null","<p style=""font-size: 80px;"">+ 10 points</p>","null","html-keyboard-response","109","532192","0.0-11.0-2.108","613b8c9c4ea7747655935221","fe1hm8","ds","34","f","{""name"":""Chrome"",""chrome"":true,""version"":""105.0"",""blink"":true,""mac"":true,""osname"":""macOS"",""osversion"":""10.15.7"",""a"":true}","9:22:36","1","4","Test_2","70","f","1","945","1440 x 900","1440 x 900","true","1","10","","","","",""
"null","<p style=""font-size: 80px;"">+ 0 points</p>","null","html-keyboard-response","110","538489","0.0-11.0-2.109","613b8c9c4ea7747655935221","fe1hm8","ds","34","f","{""name"":""Chrome"",""chrome"":true,""version"":""105.0"",""blink"":true,""mac"":true,""osname"":""macOS"",""osversion"":""10.15.7"",""a"":true}","9:22:36","1","4","Test_3","70","j","0","1051.300000011921","1440 x 900","1440 x 900","true","1","0","","","","",""
"null","<p style=""font-size: 80px;"">+ 10 points</p>","null","html-keyboard-response","111","541612","0.0-11.0-2.110","613b8c9c4ea7747655935221","fe1hm8","ds","34","f","{""name"":""Chrome"",""chrome"":true,""version"":""105.0"",""blink"":true,""mac"":true,""osname"":""macOS"",""osversion"":""10.15.7"",""a"":true}","9:22:36","1","4","Test_4","70","f","1","1110.2000000476837","1440 x 900","1440 x 900","true","1","10","","","","",""
"null","<p style=""font-size: 80px;"">+ 10 points</p>","null","html-keyboard-response","112","544474","0.0-11.0-2.111","613b8c9c4ea7747655935221","fe1hm8","ds","34","f","{""name"":""Chrome"",""chrome"":true,""version"":""105.0"",""blink"":true,""mac"":true,""osname"":""macOS"",""osversion"":""10.15.7"",""a"":true}","9:22:36","1","4","Test_1","74","j","1","856.8999999761581","1440 x 900","1440 x 900","true","1","10","","","","",""
"null","<p style=""font-size: 80px;"">+ 10 points</p>","null","html-keyboard-response","113","547380","0.0-11.0-2.112","613b8c9c4ea7747655935221","fe1hm8","ds","34","f","{""name"":""Chrome"",""chrome"":true,""version"":""105.0"",""blink"":true,""mac"":true,""osname"":""macOS"",""osversion"":""10.15.7"",""a"":true}","9:22:36","1","4","Test_1","74","j","1","894.6999999880791","1440 x 900","1440 x 900","true","1","10","","","","",""
"null","<p style=""font-size: 80px;"">+ 10 points</p>","null","html-keyboard-response","114","550219","0.0-11.0-2.113","613b8c9c4ea7747655935221","fe1hm8","ds","34","f","{""name"":""Chrome"",""chrome"":true,""version"":""105.0"",""blink"":true,""mac"":true,""osname"":""macOS"",""osversion"":""10.15.7"",""a"":true}","9:22:36","1","4","Test_2","70","f","1","828.3999999761581","1440 x 900","1440 x 900","true","1","10","","","","",""
"null","<p style=""font-size: 80px;"">+ 10 points</p>","null","html-keyboard-response","115","553278","0.0-11.0-2.114","613b8c9c4ea7747655935221","fe1hm8","ds","34","f","{""name"":""Chrome"",""chrome"":true,""version"":""105.0"",""blink"":true,""mac"":true,""osname"":""macOS"",""osversion"":""10.15.7"",""a"":true}","9:22:36","1","4","Test_2","70","f","1","1044","1440 x 900","1440 x 900","true","1","10","","","","",""
"null","<p style=""font-size: 80px;"">+ 10 points</p>","null","html-keyboard-response","116","556083","0.0-11.0-2.115","613b8c9c4ea7747655935221","fe1hm8","ds","34","f","{""name"":""Chrome"",""chrome"":true,""version"":""105.0"",""blink"":true,""mac"":true,""osname"":""macOS"",""osversion"":""10.15.7"",""a"":true}","9:22:36","1","4","Test_4","70","f","1","792.8000000119209","1440 x 900","1440 x 900","true","1","10","","","","",""
"null","<p style=""font-size: 80px;"">+ 10 points</p>","null","html-keyboard-response","117","559690","0.0-11.0-2.116","613b8c9c4ea7747655935221","fe1hm8","ds","34","f","{""name"":""Chrome"",""chrome"":true,""version"":""105.0"",""blink"":true,""mac"":true,""osname"":""macOS"",""osversion"":""10.15.7"",""a"":true}","9:22:36","1","4","Test_1","74","j","1","1594.699999988079","1440 x 900","1440 x 900","true","1","10","","","","",""
"null","<p style=""font-size: 80px;"">+ 10 points</p>","null","html-keyboard-response","118","562595","0.0-11.0-2.117","613b8c9c4ea7747655935221","fe1hm8","ds","34","f","{""name"":""Chrome"",""chrome"":true,""version"":""105.0"",""blink"":true,""mac"":true,""osname"":""macOS"",""osversion"":""10.15.7"",""a"":true}","9:22:36","1","4","Test_1","74","j","1","889.4000000357628","1440 x 900","1440 x 900","true","1","10","","","","",""
"null","<p style=""font-size: 80px;"">+ 10 points</p>","null","html-keyboard-response","119","565497","0.0-11.0-2.118","613b8c9c4ea7747655935221","fe1hm8","ds","34","f","{""name"":""Chrome"",""chrome"":true,""version"":""105.0"",""blink"":true,""mac"":true,""osname"":""macOS"",""osversion"":""10.15.7"",""a"":true}","9:22:36","1","4","Test_3","74","j","1","892.8000000119209","1440 x 900","1440 x 900","true","1","10","","","","",""
"null","<p style=""font-size: 80px;"">+ 10 points</p>","null","html-keyboard-response","120","568233","0.0-11.0-2.119","613b8c9c4ea7747655935221","fe1hm8","ds","34","f","{""name"":""Chrome"",""chrome"":true,""version"":""105.0"",""blink"":true,""mac"":true,""osname"":""macOS"",""osversion"":""10.15.7"",""a"":true}","9:22:36","1","4","Test_4","70","f","1","726.1000000238419","1440 x 900","1440 x 900","true","1","10","","","","",""
"null","<p style=""font-size: 80px;"">+ 10 points</p>","null","html-keyboard-response","121","571082","0.0-11.0-2.120","613b8c9c4ea7747655935221","fe1hm8","ds","34","f","{""name"":""Chrome"",""chrome"":true,""version"":""105.0"",""blink"":true,""mac"":true,""osname"":""macOS"",""osversion"":""10.15.7"",""a"":true}","9:22:36","1","3","Test_4","74","j","1","839.6999999880791","1440 x 900","1440 x 900","true","1","10","","","","",""
"null","<p style=""font-size: 80px;"">+ 10 points</p>","null","html-keyboard-response","122","573714","0.0-11.0-2.121","613b8c9c4ea7747655935221","fe1hm8","ds","34","f","{""name"":""Chrome"",""chrome"":true,""version"":""105.0"",""blink"":true,""mac"":true,""osname"":""macOS"",""osversion"":""10.15.7"",""a"":true}","9:22:36","1","3","Test_1","70","f","1","617.1999999880791","1440 x 900","1440 x 900","true","1","10","","","","",""
"null","<p style=""font-size: 80px;"">+ 10 points</p>","null","html-keyboard-response","123","576282","0.0-11.0-2.122","613b8c9c4ea7747655935221","fe1hm8","ds","34","f","{""name"":""Chrome"",""chrome"":true,""version"":""105.0"",""blink"":true,""mac"":true,""osname"":""macOS"",""osversion"":""10.15.7"",""a"":true}","9:22:36","1","3","Test_3","70","f","1","556","1440 x 900","1440 x 900","true","1","10","","","","",""
"null","<p style=""font-size: 80px;"">+ 10 points</p>","null","html-keyboard-response","124","578878","0.0-11.0-2.123","613b8c9c4ea7747655935221","fe1hm8","ds","34","f","{""name"":""Chrome"",""chrome"":true,""version"":""105.0"",""blink"":true,""mac"":true,""osname"":""macOS"",""osversion"":""10.15.7"",""a"":true}","9:22:36","1","3","Test_1","70","f","1","583.7000000476837","1440 x 900","1440 x 900","true","1","10","","","","",""
"null","<p style=""font-size: 80px;"">+ 0 points</p>","null","html-keyboard-response","125","581757","0.0-11.0-2.124","613b8c9c4ea7747655935221","fe1hm8","ds","34","f","{""name"":""Chrome"",""chrome"":true,""version"":""105.0"",""blink"":true,""mac"":true,""osname"":""macOS"",""osversion"":""10.15.7"",""a"":true}","9:22:36","1","3","Test_1","74","f","0","865.1999999880791","1440 x 900","1440 x 900","true","1","0","","","","",""
"null","<p style=""font-size: 80px;"">+ 10 points</p>","null","html-keyboard-response","126","584409","0.0-11.0-2.125","613b8c9c4ea7747655935221","fe1hm8","ds","34","f","{""name"":""Chrome"",""chrome"":true,""version"":""105.0"",""blink"":true,""mac"":true,""osname"":""macOS"",""osversion"":""10.15.7"",""a"":true}","9:22:36","1","3","Test_1","70","f","1","640.1999999880791","1440 x 900","1440 x 900","true","1","10","","","","",""
"null","<p style=""font-size: 80px;"">+ 10 points</p>","null","html-keyboard-response","127","586997","0.0-11.0-2.126","613b8c9c4ea7747655935221","fe1hm8","ds","34","f","{""name"":""Chrome"",""chrome"":true,""version"":""105.0"",""blink"":true,""mac"":true,""osname"":""macOS"",""osversion"":""10.15.7"",""a"":true}","9:22:36","1","3","Test_1","70","f","1","576.0999999642372","1440 x 900","1440 x 900","true","1","10","","","","",""
"null","<p style=""font-size: 80px;"">+ 10 points</p>","null","html-keyboard-response","128","589682","0.0-11.0-2.127","613b8c9c4ea7747655935221","fe1hm8","ds","34","f","{""name"":""Chrome"",""chrome"":true,""version"":""105.0"",""blink"":true,""mac"":true,""osname"":""macOS"",""osversion"":""10.15.7"",""a"":true}","9:22:36","1","3","Test_3","70","f","1","677.8000000119209","1440 x 900","1440 x 900","true","1","10","","","","",""
"null","<p style=""font-size: 80px;"">+ 0 points</p>","null","html-keyboard-response","129","592582","0.0-11.0-2.128","613b8c9c4ea7747655935221","fe1hm8","ds","34","f","{""name"":""Chrome"",""chrome"":true,""version"":""105.0"",""blink"":true,""mac"":true,""osname"":""macOS"",""osversion"":""10.15.7"",""a"":true}","9:22:36","1","3","Test_3","74","f","0","887","1440 x 900","1440 x 900","true","1","0","","","","",""
"null","<p style=""font-size: 80px;"">+ 10 points</p>","null","html-keyboard-response","130","595135","0.0-11.0-2.129","613b8c9c4ea7747655935221","fe1hm8","ds","34","f","{""name"":""Chrome"",""chrome"":true,""version"":""105.0"",""blink"":true,""mac"":true,""osname"":""macOS"",""osversion"":""10.15.7"",""a"":true}","9:22:36","1","3","Test_2","74","j","1","544.8000000119209","1440 x 900","1440 x 900","true","1","10","","","","",""
"null","<p style=""font-size: 80px;"">+ 10 points</p>","null","html-keyboard-response","131","597953","0.0-11.0-2.130","613b8c9c4ea7747655935221","fe1hm8","ds","34","f","{""name"":""Chrome"",""chrome"":true,""version"":""105.0"",""blink"":true,""mac"":true,""osname"":""macOS"",""osversion"":""10.15.7"",""a"":true}","9:22:36","1","3","Test_3","70","f","1","804.5","1440 x 900","1440 x 900","true","1","10","","","","",""
"null","<p style=""font-size: 80px;"">+ 10 points</p>","null","html-keyboard-response","132","601014","0.0-11.0-2.131","613b8c9c4ea7747655935221","fe1hm8","ds","34","f","{""name"":""Chrome"",""chrome"":true,""version"":""105.0"",""blink"":true,""mac"":true,""osname"":""macOS"",""osversion"":""10.15.7"",""a"":true}","9:22:36","1","3","Test_4","74","j","1","1048.2000000476837","1440 x 900","1440 x 900","true","1","10","","","","",""
"null","<p style=""font-size: 80px;"">+ 0 points</p>","null","html-keyboard-response","133","603564","0.0-11.0-2.132","613b8c9c4ea7747655935221","fe1hm8","ds","34","f","{""name"":""Chrome"",""chrome"":true,""version"":""105.0"",""blink"":true,""mac"":true,""osname"":""macOS"",""osversion"":""10.15.7"",""a"":true}","9:22:36","1","3","Test_1","74","f","0","539.5","1440 x 900","1440 x 900","true","1","0","","","","",""
"null","<p style=""font-size: 80px;"">+ 10 points</p>","null","html-keyboard-response","134","606645","0.0-11.0-2.133","613b8c9c4ea7747655935221","fe1hm8","ds","34","f","{""name"":""Chrome"",""chrome"":true,""version"":""105.0"",""blink"":true,""mac"":true,""osname"":""macOS"",""osversion"":""10.15.7"",""a"":true}","9:22:36","1","3","Test_2","74","j","1","1068.4000000357628","1440 x 900","1440 x 900","true","1","10","","","","",""
"null","<p style=""font-size: 80px;"">+ 10 points</p>","null","html-keyboard-response","135","609521","0.0-11.0-2.134","613b8c9c4ea7747655935221","fe1hm8","ds","34","f","{""name"":""Chrome"",""chrome"":true,""version"":""105.0"",""blink"":true,""mac"":true,""osname"":""macOS"",""osversion"":""10.15.7"",""a"":true}","9:22:36","1","3","Test_2","74","j","1","871","1440 x 900","1440 x 900","true","1","10","","","","",""
"null","<p style=""font-size: 80px;"">+ 10 points</p>","null","html-keyboard-response","136","612180","0.0-11.0-2.135","613b8c9c4ea7747655935221","fe1hm8","ds","34","f","{""name"":""Chrome"",""chrome"":true,""version"":""105.0"",""blink"":true,""mac"":true,""osname"":""macOS"",""osversion"":""10.15.7"",""a"":true}","9:22:36","1","3","Test_4","74","j","1","643.4000000357628","1440 x 900","1440 x 900","true","1","10","","","","",""
"null","<p style=""font-size: 80px;"">+ 10 points</p>","null","html-keyboard-response","137","614824","0.0-11.0-2.136","613b8c9c4ea7747655935221","fe1hm8","ds","34","f","{""name"":""Chrome"",""chrome"":true,""version"":""105.0"",""blink"":true,""mac"":true,""osname"":""macOS"",""osversion"":""10.15.7"",""a"":true}","9:22:36","1","3","Test_4","74","j","1","633.9000000357628","1440 x 900","1440 x 900","true","1","10","","","","",""
"null","<p style=""font-size: 80px;"">+ 10 points</p>","null","html-keyboard-response","138","617675","0.0-11.0-2.137","613b8c9c4ea7747655935221","fe1hm8","ds","34","f","{""name"":""Chrome"",""chrome"":true,""version"":""105.0"",""blink"":true,""mac"":true,""osname"":""macOS"",""osversion"":""10.15.7"",""a"":true}","9:22:36","1","3","Test_2","74","j","1","836.2999999523163","1440 x 900","1440 x 900","true","1","10","","","","",""
"null","<p style=""font-size: 80px;"">+ 10 points</p>","null","html-keyboard-response","139","620361","0.0-11.0-2.138","613b8c9c4ea7747655935221","fe1hm8","ds","34","f","{""name"":""Chrome"",""chrome"":true,""version"":""105.0"",""blink"":true,""mac"":true,""osname"":""macOS"",""osversion"":""10.15.7"",""a"":true}","9:22:36","1","3","Test_4","74","j","1","672","1440 x 900","1440 x 900","true","1","10","","","","",""
"null","<p style=""font-size: 80px;"">+ 10 points</p>","null","html-keyboard-response","140","623013","0.0-11.0-2.139","613b8c9c4ea7747655935221","fe1hm8","ds","34","f","{""name"":""Chrome"",""chrome"":true,""version"":""105.0"",""blink"":true,""mac"":true,""osname"":""macOS"",""osversion"":""10.15.7"",""a"":true}","9:22:36","1","3","Test_3","70","f","1","640.6999999880791","1440 x 900","1440 x 900","true","1","10","","","","",""
"null","<p style=""font-size: 80px;"">+ 10 points</p>","null","html-keyboard-response","141","626492","0.0-11.0-2.140","613b8c9c4ea7747655935221","fe1hm8","ds","34","f","{""name"":""Chrome"",""chrome"":true,""version"":""105.0"",""blink"":true,""mac"":true,""osname"":""macOS"",""osversion"":""10.15.7"",""a"":true}","9:22:36","1","3","Test_2","74","j","1","1464.699999988079","1440 x 900","1440 x 900","true","1","10","","","","",""
"null","<p style=""font-size: 80px;"">+ 10 points</p>","null","html-keyboard-response","142","628980","0.0-11.0-2.141","613b8c9c4ea7747655935221","fe1hm8","ds","34","f","{""name"":""Chrome"",""chrome"":true,""version"":""105.0"",""blink"":true,""mac"":true,""osname"":""macOS"",""osversion"":""10.15.7"",""a"":true}","9:22:36","1","3","Test_2","74","j","1","478.80000001192093","1440 x 900","1440 x 900","true","1","10","","","","",""
"null","<p style=""font-size: 80px;"">+ 10 points</p>","null","html-keyboard-response","143","631610","0.0-11.0-2.142","613b8c9c4ea7747655935221","fe1hm8","ds","34","f","{""name"":""Chrome"",""chrome"":true,""version"":""105.0"",""blink"":true,""mac"":true,""osname"":""macOS"",""osversion"":""10.15.7"",""a"":true}","9:22:36","1","3","Test_4","74","j","1","614.6999999880791","1440 x 900","1440 x 900","true","1","10","","","","",""
"null","<p style=""font-size: 80px;"">+ 0 points</p>","null","html-keyboard-response","144","634240","0.0-11.0-2.143","613b8c9c4ea7747655935221","fe1hm8","ds","34","f","{""name"":""Chrome"",""chrome"":true,""version"":""105.0"",""blink"":true,""mac"":true,""osname"":""macOS"",""osversion"":""10.15.7"",""a"":true}","9:22:36","1","4","Test_3","70","j","0","622.1999999880791","1440 x 900","1440 x 900","true","1","0","","","","",""
"null","<p style=""font-size: 80px;"">+ 10 points</p>","null","html-keyboard-response","145","637211","0.0-11.0-2.144","613b8c9c4ea7747655935221","fe1hm8","ds","34","f","{""name"":""Chrome"",""chrome"":true,""version"":""105.0"",""blink"":true,""mac"":true,""osname"":""macOS"",""osversion"":""10.15.7"",""a"":true}","9:22:36","1","4","Test_1","74","j","1","955.8000000119209","1440 x 900","1440 x 900","true","1","10","","","","",""
"null","<p style=""font-size: 80px;"">+ 10 points</p>","null","html-keyboard-response","146","639983","0.0-11.0-2.145","613b8c9c4ea7747655935221","fe1hm8","ds","34","f","{""name"":""Chrome"",""chrome"":true,""version"":""105.0"",""blink"":true,""mac"":true,""osname"":""macOS"",""osversion"":""10.15.7"",""a"":true}","9:22:36","1","4","Test_1","74","j","1","765.3000000119209","1440 x 900","1440 x 900","true","1","10","","","","",""
"null","<p style=""font-size: 80px;"">+ 10 points</p>","null","html-keyboard-response","147","642942","0.0-11.0-2.146","613b8c9c4ea7747655935221","fe1hm8","ds","34","f","{""name"":""Chrome"",""chrome"":true,""version"":""105.0"",""blink"":true,""mac"":true,""osname"":""macOS"",""osversion"":""10.15.7"",""a"":true}","9:22:36","1","4","Test_4","70","f","1","947.6999999880791","1440 x 900","1440 x 900","true","1","10","","","","",""
"null","<p style=""font-size: 80px;"">+ 0 points</p>","null","html-keyboard-response","148","646145","0.0-11.0-2.147","613b8c9c4ea7747655935221","fe1hm8","ds","34","f","{""name"":""Chrome"",""chrome"":true,""version"":""105.0"",""blink"":true,""mac"":true,""osname"":""macOS"",""osversion"":""10.15.7"",""a"":true}","9:22:36","1","4","Test_4","74","f","0","1188.699999988079","1440 x 900","1440 x 900","true","1","0","","","","",""
"null","<p style=""font-size: 80px;"">+ 10 points</p>","null","html-keyboard-response","149","649052","0.0-11.0-2.148","613b8c9c4ea7747655935221","fe1hm8","ds","34","f","{""name"":""Chrome"",""chrome"":true,""version"":""105.0"",""blink"":true,""mac"":true,""osname"":""macOS"",""osversion"":""10.15.7"",""a"":true}","9:22:36","1","4","Test_2","70","f","1","900.0999999642372","1440 x 900","1440 x 900","true","1","10","","","","",""
"null","<p style=""font-size: 80px;"">+ 10 points</p>","null","html-keyboard-response","150","651730","0.0-11.0-2.149","613b8c9c4ea7747655935221","fe1hm8","ds","34","f","{""name"":""Chrome"",""chrome"":true,""version"":""105.0"",""blink"":true,""mac"":true,""osname"":""macOS"",""osversion"":""10.15.7"",""a"":true}","9:22:36","1","4","Test_1","74","j","1","666.1999999880791","1440 x 900","1440 x 900","true","1","10","","","","",""
"null","<p style=""font-size: 80px;"">+ 10 points</p>","null","html-keyboard-response","151","654671","0.0-11.0-2.150","613b8c9c4ea7747655935221","fe1hm8","ds","34","f","{""name"":""Chrome"",""chrome"":true,""version"":""105.0"",""blink"":true,""mac"":true,""osname"":""macOS"",""osversion"":""10.15.7"",""a"":true}","9:22:36","1","4","Test_4","70","f","1","936.1000000238419","1440 x 900","1440 x 900","true","1","10","","","","",""
"null","<p style=""font-size: 80px;"">+ 10 points</p>","null","html-keyboard-response","152","657980","0.0-11.0-2.151","613b8c9c4ea7747655935221","fe1hm8","ds","34","f","{""name"":""Chrome"",""chrome"":true,""version"":""105.0"",""blink"":true,""mac"":true,""osname"":""macOS"",""osversion"":""10.15.7"",""a"":true}","9:22:36","1","4","Test_3","74","j","1","1297.300000011921","1440 x 900","1440 x 900","true","1","10","","","","",""
"null","<p style=""font-size: 80px;"">+ 10 points</p>","null","html-keyboard-response","153","660847","0.0-11.0-2.152","613b8c9c4ea7747655935221","fe1hm8","ds","34","f","{""name"":""Chrome"",""chrome"":true,""version"":""105.0"",""blink"":true,""mac"":true,""osname"":""macOS"",""osversion"":""10.15.7"",""a"":true}","9:22:36","1","4","Test_2","70","f","1","852.0999999642372","1440 x 900","1440 x 900","true","1","10","","","","",""
"null","<p style=""font-size: 80px;"">+ 10 points</p>","null","html-keyboard-response","154","663823","0.0-11.0-2.153","613b8c9c4ea7747655935221","fe1hm8","ds","34","f","{""name"":""Chrome"",""chrome"":true,""version"":""105.0"",""blink"":true,""mac"":true,""osname"":""macOS"",""osversion"":""10.15.7"",""a"":true}","9:22:36","1","4","Test_2","70","f","1","961.5","1440 x 900","1440 x 900","true","1","10","","","","",""
"null","<p style=""font-size: 80px;"">+ 10 points</p>","null","html-keyboard-response","155","667357","0.0-11.0-2.154","613b8c9c4ea7747655935221","fe1hm8","ds","34","f","{""name"":""Chrome"",""chrome"":true,""version"":""105.0"",""blink"":true,""mac"":true,""osname"":""macOS"",""osversion"":""10.15.7"",""a"":true}","9:22:36","1","4","Test_3","74","j","1","1519.199999988079","1440 x 900","1440 x 900","true","1","10","","","","",""
"null","<p style=""font-size: 80px;"">+ 10 points</p>","null","html-keyboard-response","156","670153","0.0-11.0-2.155","613b8c9c4ea7747655935221","fe1hm8","ds","34","f","{""name"":""Chrome"",""chrome"":true,""version"":""105.0"",""blink"":true,""mac"":true,""osname"":""macOS"",""osversion"":""10.15.7"",""a"":true}","9:22:36","1","4","Test_1","74","j","1","781.6000000238419","1440 x 900","1440 x 900","true","1","10","","","","",""
"null","<p style=""font-size: 80px;"">+ 10 points</p>","null","html-keyboard-response","157","673039","0.0-11.0-2.156","613b8c9c4ea7747655935221","fe1hm8","ds","34","f","{""name"":""Chrome"",""chrome"":true,""version"":""105.0"",""blink"":true,""mac"":true,""osname"":""macOS"",""osversion"":""10.15.7"",""a"":true}","9:22:36","1","4","Test_4","70","f","1","873.1999999880791","1440 x 900","1440 x 900","true","1","10","","","","",""
"null","<p style=""font-size: 80px;"">+ 10 points</p>","null","html-keyboard-response","158","676079","0.0-11.0-2.157","613b8c9c4ea7747655935221","fe1hm8","ds","34","f","{""name"":""Chrome"",""chrome"":true,""version"":""105.0"",""blink"":true,""mac"":true,""osname"":""macOS"",""osversion"":""10.15.7"",""a"":true}","9:22:36","1","4","Test_4","70","f","1","1024.800000011921","1440 x 900","1440 x 900","true","1","10","","","","",""
"null","<p style=""font-size: 80px;"">+ 10 points</p>","null","html-keyboard-response","159","678894","0.0-11.0-2.158","613b8c9c4ea7747655935221","fe1hm8","ds","34","f","{""name"":""Chrome"",""chrome"":true,""version"":""105.0"",""blink"":true,""mac"":true,""osname"":""macOS"",""osversion"":""10.15.7"",""a"":true}","9:22:36","1","4","Test_3","74","j","1","800","1440 x 900","1440 x 900","true","1","10","","","","",""
"null","<p style=""font-size: 80px;"">+ 10 points</p>","null","html-keyboard-response","160","682097","0.0-11.0-2.159","613b8c9c4ea7747655935221","fe1hm8","ds","34","f","{""name"":""Chrome"",""chrome"":true,""version"":""105.0"",""blink"":true,""mac"":true,""osname"":""macOS"",""osversion"":""10.15.7"",""a"":true}","9:22:36","1","4","Test_1","74","j","1","1192.699999988079","1440 x 900","1440 x 900","true","1","10","","","","",""
"null","<p style=""font-size: 80px;"">+ 10 points</p>","null","html-keyboard-response","161","684780","0.0-11.0-2.160","613b8c9c4ea7747655935221","fe1hm8","ds","34","f","{""name"":""Chrome"",""chrome"":true,""version"":""105.0"",""blink"":true,""mac"":true,""osname"":""macOS"",""osversion"":""10.15.7"",""a"":true}","9:22:36","1","4","Test_4","70","f","1","670.8000000119209","1440 x 900","1440 x 900","true","1","10","","","","",""
"null","<p style=""font-size: 80px;"">+ 10 points</p>","null","html-keyboard-response","162","688347","0.0-11.0-2.161","613b8c9c4ea7747655935221","fe1hm8","ds","34","f","{""name"":""Chrome"",""chrome"":true,""version"":""105.0"",""blink"":true,""mac"":true,""osname"":""macOS"",""osversion"":""10.15.7"",""a"":true}","9:22:36","1","4","Test_2","70","f","1","1552.8999999761581","1440 x 900","1440 x 900","true","1","10","","","","",""
"null","<p style=""font-size: 80px;"">+ 10 points</p>","null","html-keyboard-response","163","691031","0.0-11.0-2.162","613b8c9c4ea7747655935221","fe1hm8","ds","34","f","{""name"":""Chrome"",""chrome"":true,""version"":""105.0"",""blink"":true,""mac"":true,""osname"":""macOS"",""osversion"":""10.15.7"",""a"":true}","9:22:36","1","4","Test_3","74","j","1","674.4000000357628","1440 x 900","1440 x 900","true","1","10","","","","",""
"null","<p style=""font-size: 80px;"">+ 10 points</p>","null","html-keyboard-response","164","693792","0.0-11.0-2.163","613b8c9c4ea7747655935221","fe1hm8","ds","34","f","{""name"":""Chrome"",""chrome"":true,""version"":""105.0"",""blink"":true,""mac"":true,""osname"":""macOS"",""osversion"":""10.15.7"",""a"":true}","9:22:36","1","4","Test_2","70","f","1","745.3000000119209","1440 x 900","1440 x 900","true","1","10","","","","",""
"null","<p style=""font-size: 80px;"">+ 10 points</p>","null","html-keyboard-response","165","696492","0.0-11.0-2.164","613b8c9c4ea7747655935221","fe1hm8","ds","34","f","{""name"":""Chrome"",""chrome"":true,""version"":""105.0"",""blink"":true,""mac"":true,""osname"":""macOS"",""osversion"":""10.15.7"",""a"":true}","9:22:36","1","4","Test_1","74","j","1","690.1999999880791","1440 x 900","1440 x 900","true","1","10","","","","",""
"null","<p style=""font-size: 80px;"">+ 10 points</p>","null","html-keyboard-response","166","699393","0.0-11.0-2.165","613b8c9c4ea7747655935221","fe1hm8","ds","34","f","{""name"":""Chrome"",""chrome"":true,""version"":""105.0"",""blink"":true,""mac"":true,""osname"":""macOS"",""osversion"":""10.15.7"",""a"":true}","9:22:36","1","4","Test_2","70","f","1","887.8000000119209","1440 x 900","1440 x 900","true","1","10","","","","",""
"null","<p style=""font-size: 80px;"">+ 10 points</p>","null","html-keyboard-response","167","702104","0.0-11.0-2.166","613b8c9c4ea7747655935221","fe1hm8","ds","34","f","{""name"":""Chrome"",""chrome"":true,""version"":""105.0"",""blink"":true,""mac"":true,""osname"":""macOS"",""osversion"":""10.15.7"",""a"":true}","9:22:36","1","4","Test_3","74","j","1","701.8999999761581","1440 x 900","1440 x 900","true","1","10","","","","",""
"null","<p style=""font-size: 80px;"">+ 0 points</p>","null","html-keyboard-response","168","704856","0.0-11.0-2.167","613b8c9c4ea7747655935221","fe1hm8","ds","34","f","{""name"":""Chrome"",""chrome"":true,""version"":""105.0"",""blink"":true,""mac"":true,""osname"":""macOS"",""osversion"":""10.15.7"",""a"":true}","9:22:36","1","3","Test_1","74","f","0","737","1440 x 900","1440 x 900","true","1","0","","","","",""
"null","<p style=""font-size: 80px;"">+ 10 points</p>","null","html-keyboard-response","169","707654","0.0-11.0-2.168","613b8c9c4ea7747655935221","fe1hm8","ds","34","f","{""name"":""Chrome"",""chrome"":true,""version"":""105.0"",""blink"":true,""mac"":true,""osname"":""macOS"",""osversion"":""10.15.7"",""a"":true}","9:22:36","1","3","Test_2","74","j","1","787.4000000357628","1440 x 900","1440 x 900","true","1","10","","","","",""
"null","<p style=""font-size: 80px;"">+ 10 points</p>","null","html-keyboard-response","170","710658","0.0-11.0-2.169","613b8c9c4ea7747655935221","fe1hm8","ds","34","f","{""name"":""Chrome"",""chrome"":true,""version"":""105.0"",""blink"":true,""mac"":true,""osname"":""macOS"",""osversion"":""10.15.7"",""a"":true}","9:22:36","1","3","Test_4","74","j","1","995","1440 x 900","1440 x 900","true","1","10","","","","",""
"null","<p style=""font-size: 80px;"">+ 10 points</p>","null","html-keyboard-response","171","713780","0.0-11.0-2.170","613b8c9c4ea7747655935221","fe1hm8","ds","34","f","{""name"":""Chrome"",""chrome"":true,""version"":""105.0"",""blink"":true,""mac"":true,""osname"":""macOS"",""osversion"":""10.15.7"",""a"":true}","9:22:36","1","3","Test_2","74","j","1","1109.800000011921","1440 x 900","1440 x 900","true","1","10","","","","",""
"null","<p style=""font-size: 80px;"">+ 10 points</p>","null","html-keyboard-response","172","716480","0.0-11.0-2.171","613b8c9c4ea7747655935221","fe1hm8","ds","34","f","{""name"":""Chrome"",""chrome"":true,""version"":""105.0"",""blink"":true,""mac"":true,""osname"":""macOS"",""osversion"":""10.15.7"",""a"":true}","9:22:36","1","3","Test_4","74","j","1","686.8000000119209","1440 x 900","1440 x 900","true","1","10","","","","",""
"null","<p style=""font-size: 80px;"">+ 10 points</p>","null","html-keyboard-response","173","719112","0.0-11.0-2.172","613b8c9c4ea7747655935221","fe1hm8","ds","34","f","{""name"":""Chrome"",""chrome"":true,""version"":""105.0"",""blink"":true,""mac"":true,""osname"":""macOS"",""osversion"":""10.15.7"",""a"":true}","9:22:36","1","3","Test_3","70","f","1","618.9000000357628","1440 x 900","1440 x 900","true","1","10","","","","",""
"null","<p style=""font-size: 80px;"">+ 10 points</p>","null","html-keyboard-response","174","721833","0.0-11.0-2.173","613b8c9c4ea7747655935221","fe1hm8","ds","34","f","{""name"":""Chrome"",""chrome"":true,""version"":""105.0"",""blink"":true,""mac"":true,""osname"":""macOS"",""osversion"":""10.15.7"",""a"":true}","9:22:36","1","3","Test_2","74","j","1","716.6999999880791","1440 x 900","1440 x 900","true","1","10","","","","",""
"null","<p style=""font-size: 80px;"">+ 10 points</p>","null","html-keyboard-response","175","724513","0.0-11.0-2.174","613b8c9c4ea7747655935221","fe1hm8","ds","34","f","{""name"":""Chrome"",""chrome"":true,""version"":""105.0"",""blink"":true,""mac"":true,""osname"":""macOS"",""osversion"":""10.15.7"",""a"":true}","9:22:36","1","3","Test_1","70","f","1","674.8000000119209","1440 x 900","1440 x 900","true","1","10","","","","",""
"null","<p style=""font-size: 80px;"">+ 10 points</p>","null","html-keyboard-response","176","727263","0.0-11.0-2.175","613b8c9c4ea7747655935221","fe1hm8","ds","34","f","{""name"":""Chrome"",""chrome"":true,""version"":""105.0"",""blink"":true,""mac"":true,""osname"":""macOS"",""osversion"":""10.15.7"",""a"":true}","9:22:36","1","3","Test_2","74","j","1","737.8000000119209","1440 x 900","1440 x 900","true","1","10","","","","",""
"null","<p style=""font-size: 80px;"">+ 10 points</p>","null","html-keyboard-response","177","730086","0.0-11.0-2.176","613b8c9c4ea7747655935221","fe1hm8","ds","34","f","{""name"":""Chrome"",""chrome"":true,""version"":""105.0"",""blink"":true,""mac"":true,""osname"":""macOS"",""osversion"":""10.15.7"",""a"":true}","9:22:36","1","3","Test_3","70","f","1","813","1440 x 900","1440 x 900","true","1","10","","","","",""
"null","<p style=""font-size: 80px;"">+ 10 points</p>","null","html-keyboard-response","178","732766","0.0-11.0-2.177","613b8c9c4ea7747655935221","fe1hm8","ds","34","f","{""name"":""Chrome"",""chrome"":true,""version"":""105.0"",""blink"":true,""mac"":true,""osname"":""macOS"",""osversion"":""10.15.7"",""a"":true}","9:22:36","1","3","Test_4","74","j","1","669.2000000476837","1440 x 900","1440 x 900","true","1","10","","","","",""
"null","<p style=""font-size: 80px;"">+ 10 points</p>","null","html-keyboard-response","179","735428","0.0-11.0-2.178","613b8c9c4ea7747655935221","fe1hm8","ds","34","f","{""name"":""Chrome"",""chrome"":true,""version"":""105.0"",""blink"":true,""mac"":true,""osname"":""macOS"",""osversion"":""10.15.7"",""a"":true}","9:22:36","1","3","Test_1","70","f","1","649.8000000119209","1440 x 900","1440 x 900","true","1","10","","","","",""
"null","<p style=""font-size: 80px;"">+ 10 points</p>","null","html-keyboard-response","180","738141","0.0-11.0-2.179","613b8c9c4ea7747655935221","fe1hm8","ds","34","f","{""name"":""Chrome"",""chrome"":true,""version"":""105.0"",""blink"":true,""mac"":true,""osname"":""macOS"",""osversion"":""10.15.7"",""a"":true}","9:22:36","1","3","Test_3","70","f","1","705.8000000119209","1440 x 900","1440 x 900","true","1","10","","","","",""
"null","<p style=""font-size: 80px;"">+ 10 points</p>","null","html-keyboard-response","181","741075","0.0-11.0-2.180","613b8c9c4ea7747655935221","fe1hm8","ds","34","f","{""name"":""Chrome"",""chrome"":true,""version"":""105.0"",""blink"":true,""mac"":true,""osname"":""macOS"",""osversion"":""10.15.7"",""a"":true}","9:22:36","1","3","Test_1","70","f","1","920.6000000238419","1440 x 900","1440 x 900","true","1","10","","","","",""
"null","<p style=""font-size: 80px;"">+ 10 points</p>","null","html-keyboard-response","182","743723","0.0-11.0-2.181","613b8c9c4ea7747655935221","fe1hm8","ds","34","f","{""name"":""Chrome"",""chrome"":true,""version"":""105.0"",""blink"":true,""mac"":true,""osname"":""macOS"",""osversion"":""10.15.7"",""a"":true}","9:22:36","1","3","Test_1","70","f","1","635.7000000476837","1440 x 900","1440 x 900","true","1","10","","","","",""
"null","<p style=""font-size: 80px;"">+ 10 points</p>","null","html-keyboard-response","183","746381","0.0-11.0-2.182","613b8c9c4ea7747655935221","fe1hm8","ds","34","f","{""name"":""Chrome"",""chrome"":true,""version"":""105.0"",""blink"":true,""mac"":true,""osname"":""macOS"",""osversion"":""10.15.7"",""a"":true}","9:22:36","1","3","Test_2","74","j","1","647.8999999761581","1440 x 900","1440 x 900","true","1","10","","","","",""
"null","<p style=""font-size: 80px;"">+ 10 points</p>","null","html-keyboard-response","184","749047","0.0-11.0-2.183","613b8c9c4ea7747655935221","fe1hm8","ds","34","f","{""name"":""Chrome"",""chrome"":true,""version"":""105.0"",""blink"":true,""mac"":true,""osname"":""macOS"",""osversion"":""10.15.7"",""a"":true}","9:22:36","1","3","Test_4","74","j","1","652.8000000119209","1440 x 900","1440 x 900","true","1","10","","","","",""
"null","<p style=""font-size: 80px;"">+ 10 points</p>","null","html-keyboard-response","185","751699","0.0-11.0-2.184","613b8c9c4ea7747655935221","fe1hm8","ds","34","f","{""name"":""Chrome"",""chrome"":true,""version"":""105.0"",""blink"":true,""mac"":true,""osname"":""macOS"",""osversion"":""10.15.7"",""a"":true}","9:22:36","1","3","Test_3","70","f","1","644.5999999642372","1440 x 900","1440 x 900","true","1","10","","","","",""
"null","<p style=""font-size: 80px;"">+ 10 points</p>","null","html-keyboard-response","186","754271","0.0-11.0-2.185","613b8c9c4ea7747655935221","fe1hm8","ds","34","f","{""name"":""Chrome"",""chrome"":true,""version"":""105.0"",""blink"":true,""mac"":true,""osname"":""macOS"",""osversion"":""10.15.7"",""a"":true}","9:22:36","1","3","Test_2","74","j","1","558.1999999880791","1440 x 900","1440 x 900","true","1","10","","","","",""
"null","<p style=""font-size: 80px;"">+ 10 points</p>","null","html-keyboard-response","187","757055","0.0-11.0-2.186","613b8c9c4ea7747655935221","fe1hm8","ds","34","f","{""name"":""Chrome"",""chrome"":true,""version"":""105.0"",""blink"":true,""mac"":true,""osname"":""macOS"",""osversion"":""10.15.7"",""a"":true}","9:22:36","1","3","Test_4","74","j","1","772.1999999880791","1440 x 900","1440 x 900","true","1","10","","","","",""
"null","<p style=""font-size: 80px;"">+ 10 points</p>","null","html-keyboard-response","188","759789","0.0-11.0-2.187","613b8c9c4ea7747655935221","fe1hm8","ds","34","f","{""name"":""Chrome"",""chrome"":true,""version"":""105.0"",""blink"":true,""mac"":true,""osname"":""macOS"",""osversion"":""10.15.7"",""a"":true}","9:22:36","1","3","Test_3","70","f","1","721.3000000119209","1440 x 900","1440 x 900","true","1","10","","","","",""
"null","<p style=""font-size: 80px;"">+ 0 points</p>","null","html-keyboard-response","189","762980","0.0-11.0-2.188","613b8c9c4ea7747655935221","fe1hm8","ds","34","f","{""name"":""Chrome"",""chrome"":true,""version"":""105.0"",""blink"":true,""mac"":true,""osname"":""macOS"",""osversion"":""10.15.7"",""a"":true}","9:22:36","1","4","Test_3","70","j","0","1177.7000000476837","1440 x 900","1440 x 900","true","1","0","","","","",""
"null","<p style=""font-size: 80px;"">+ 10 points</p>","null","html-keyboard-response","190","766363","0.0-11.0-2.189","613b8c9c4ea7747655935221","fe1hm8","ds","34","f","{""name"":""Chrome"",""chrome"":true,""version"":""105.0"",""blink"":true,""mac"":true,""osname"":""macOS"",""osversion"":""10.15.7"",""a"":true}","9:22:36","1","4","Test_1","74","j","1","1372.800000011921","1440 x 900","1440 x 900","true","1","10","","","","",""
