"rt","stimulus","key_press","trial_type","trial_index","time_elapsed","internal_node_id","Prolific_ID","random_ID","initials","age","gender","pc_info","start_time","Phase","Rule","Stimulus","Response","CorrResp","Accuracy","ResponseTime","screen_resolution","window_resolution","focus","relevant","Points","responses","question_order","rev_check","butterfly_check","passed_practice"
"null","<p style=""font-size: 80px;"">+ 0 points</p>","null","html-keyboard-response","1","268852","0.0-7.0-2.0","60c739d1b402ae0d42b37c66","3krg0x","LG","30","X","{""name"":""Chrome"",""chrome"":true,""version"":""105.0"",""blink"":true,""windows"":true,""osname"":""Windows"",""osversion"":""10"",""a"":true}","1:14:6","0","1","Practice_4","70","j","0","1211.0999999642372","1220 x 686","1220 x 686","true","1","0","","","","",""
"null","<p style=""font-size: 80px;"">+ 10 points</p>","null","html-keyboard-response","2","272010","0.0-7.0-2.1","60c739d1b402ae0d42b37c66","3krg0x","LG","30","X","{""name"":""Chrome"",""chrome"":true,""version"":""105.0"",""blink"":true,""windows"":true,""osname"":""Windows"",""osversion"":""10"",""a"":true}","1:14:6","0","1","Practice_4","74","j","1","1147.9000000357628","1220 x 686","1220 x 686","true","1","10","","","","",""
"null","<p style=""font-size: 80px;"">+ 0 points</p>","null","html-keyboard-response","3","275566","0.0-7.0-2.2","60c739d1b402ae0d42b37c66","3krg0x","LG","30","X","{""name"":""Chrome"",""chrome"":true,""version"":""105.0"",""blink"":true,""windows"":true,""osname"":""Windows"",""osversion"":""10"",""a"":true}","1:14:6","0","1","Practice_2","70","j","0","1545.199999988079","1220 x 686","1220 x 686","true","1","0","","","","",""
"null","<p style=""font-size: 80px;"">+ 0 points</p>","null","html-keyboard-response","4","278618","0.0-7.0-2.3","60c739d1b402ae0d42b37c66","3krg0x","LG","30","X","{""name"":""Chrome"",""chrome"":true,""version"":""105.0"",""blink"":true,""windows"":true,""osname"":""Windows"",""osversion"":""10"",""a"":true}","1:14:6","0","1","Practice_3","74","f","0","1043.6000000238419","1220 x 686","1220 x 686","true","1","0","","","","",""
"null","<p style=""font-size: 80px;"">+ 10 points</p>","null","html-keyboard-response","5","281373","0.0-7.0-2.4","60c739d1b402ae0d42b37c66","3krg0x","LG","30","X","{""name"":""Chrome"",""chrome"":true,""version"":""105.0"",""blink"":true,""windows"":true,""osname"":""Windows"",""osversion"":""10"",""a"":true}","1:14:6","0","1","Practice_3","70","f","1","731.3999999761581","1220 x 686","1220 x 686","true","1","10","","","","",""
"null","<p style=""font-size: 80px;"">+ 10 points</p>","null","html-keyboard-response","6","284647","0.0-7.0-2.5","60c739d1b402ae0d42b37c66","3krg0x","LG","30","X","{""name"":""Chrome"",""chrome"":true,""version"":""105.0"",""blink"":true,""windows"":true,""osname"":""Windows"",""osversion"":""10"",""a"":true}","1:14:6","0","1","Practice_1","70","f","1","1246.9000000357628","1220 x 686","1220 x 686","true","1","10","","","","",""
"null","<p style=""font-size: 80px;"">+ 10 points</p>","null","html-keyboard-response","7","287725","0.0-7.0-2.6","60c739d1b402ae0d42b37c66","3krg0x","LG","30","X","{""name"":""Chrome"",""chrome"":true,""version"":""105.0"",""blink"":true,""windows"":true,""osname"":""Windows"",""osversion"":""10"",""a"":true}","1:14:6","0","1","Practice_4","74","j","1","1052.4000000357628","1220 x 686","1220 x 686","true","1","10","","","","",""
"null","<p style=""font-size: 80px;"">+ 10 points</p>","null","html-keyboard-response","8","290780","0.0-7.0-2.7","60c739d1b402ae0d42b37c66","3krg0x","LG","30","X","{""name"":""Chrome"",""chrome"":true,""version"":""105.0"",""blink"":true,""windows"":true,""osname"":""Windows"",""osversion"":""10"",""a"":true}","1:14:6","0","1","Practice_3","70","f","1","1029.199999988079","1220 x 686","1220 x 686","true","1","10","","","","",""
"null","<p style=""font-size: 80px;"">+ 10 points</p>","null","html-keyboard-response","9","294422","0.0-7.0-2.8","60c739d1b402ae0d42b37c66","3krg0x","LG","30","X","{""name"":""Chrome"",""chrome"":true,""version"":""105.0"",""blink"":true,""windows"":true,""osname"":""Windows"",""osversion"":""10"",""a"":true}","1:14:6","0","1","Practice_1","70","f","1","1619","1220 x 686","1220 x 686","true","1","10","","","","",""
"null","<p style=""font-size: 80px;"">+ 10 points</p>","null","html-keyboard-response","10","297879","0.0-7.0-2.9","60c739d1b402ae0d42b37c66","3krg0x","LG","30","X","{""name"":""Chrome"",""chrome"":true,""version"":""105.0"",""blink"":true,""windows"":true,""osname"":""Windows"",""osversion"":""10"",""a"":true}","1:14:6","0","1","Practice_1","70","f","1","1437.9000000357628","1220 x 686","1220 x 686","true","1","10","","","","",""
"null","<p style=""font-size: 80px;"">+ 10 points</p>","null","html-keyboard-response","11","300649","0.0-7.0-2.10","60c739d1b402ae0d42b37c66","3krg0x","LG","30","X","{""name"":""Chrome"",""chrome"":true,""version"":""105.0"",""blink"":true,""windows"":true,""osname"":""Windows"",""osversion"":""10"",""a"":true}","1:14:6","0","1","Practice_2","74","j","1","748.6999999880791","1220 x 686","1220 x 686","true","1","10","","","","",""
"null","<p style=""font-size: 80px;"">+ 10 points</p>","null","html-keyboard-response","12","304117","0.0-7.0-2.11","60c739d1b402ae0d42b37c66","3krg0x","LG","30","X","{""name"":""Chrome"",""chrome"":true,""version"":""105.0"",""blink"":true,""windows"":true,""osname"":""Windows"",""osversion"":""10"",""a"":true}","1:14:6","0","1","Practice_1","70","f","1","1443.6000000238419","1220 x 686","1220 x 686","true","1","10","","","","",""
"null","<p style=""font-size: 80px;"">+ 10 points</p>","null","html-keyboard-response","13","306808","0.0-7.0-2.12","60c739d1b402ae0d42b37c66","3krg0x","LG","30","X","{""name"":""Chrome"",""chrome"":true,""version"":""105.0"",""blink"":true,""windows"":true,""osname"":""Windows"",""osversion"":""10"",""a"":true}","1:14:6","0","1","Practice_1","70","f","1","672.5","1220 x 686","1220 x 686","true","1","10","","","","",""
"null","<p style=""font-size: 80px;"">+ 10 points</p>","null","html-keyboard-response","14","309567","0.0-7.0-2.13","60c739d1b402ae0d42b37c66","3krg0x","LG","30","X","{""name"":""Chrome"",""chrome"":true,""version"":""105.0"",""blink"":true,""windows"":true,""osname"":""Windows"",""osversion"":""10"",""a"":true}","1:14:6","0","1","Practice_2","74","j","1","744.6999999880791","1220 x 686","1220 x 686","true","1","10","","","","",""
"null","<p style=""font-size: 80px;"">+ 0 points</p>","null","html-keyboard-response","15","312696","0.0-7.0-2.14","60c739d1b402ae0d42b37c66","3krg0x","LG","30","X","{""name"":""Chrome"",""chrome"":true,""version"":""105.0"",""blink"":true,""windows"":true,""osname"":""Windows"",""osversion"":""10"",""a"":true}","1:14:6","0","1","Practice_4","70","j","0","1106.699999988079","1220 x 686","1220 x 686","true","1","0","","","","",""
"null","<p style=""font-size: 80px;"">+ 10 points</p>","null","html-keyboard-response","16","316077","0.0-7.0-2.15","60c739d1b402ae0d42b37c66","3krg0x","LG","30","X","{""name"":""Chrome"",""chrome"":true,""version"":""105.0"",""blink"":true,""windows"":true,""osname"":""Windows"",""osversion"":""10"",""a"":true}","1:14:6","0","1","Practice_4","74","j","1","1372","1220 x 686","1220 x 686","true","1","10","","","","",""
"null","<p style=""font-size: 80px;"">+ 10 points</p>","null","html-keyboard-response","17","319774","0.0-7.0-2.16","60c739d1b402ae0d42b37c66","3krg0x","LG","30","X","{""name"":""Chrome"",""chrome"":true,""version"":""105.0"",""blink"":true,""windows"":true,""osname"":""Windows"",""osversion"":""10"",""a"":true}","1:14:6","0","1","Practice_2","74","j","1","1676.6000000238419","1220 x 686","1220 x 686","true","1","10","","","","",""
"null","<p style=""font-size: 80px;"">+ 10 points</p>","null","html-keyboard-response","18","322514","0.0-7.0-2.17","60c739d1b402ae0d42b37c66","3krg0x","LG","30","X","{""name"":""Chrome"",""chrome"":true,""version"":""105.0"",""blink"":true,""windows"":true,""osname"":""Windows"",""osversion"":""10"",""a"":true}","1:14:6","0","1","Practice_2","74","j","1","727.6999999880791","1220 x 686","1220 x 686","true","1","10","","","","",""
"null","<p style=""font-size: 80px;"">+ 10 points</p>","null","html-keyboard-response","19","325544","0.0-7.0-2.18","60c739d1b402ae0d42b37c66","3krg0x","LG","30","X","{""name"":""Chrome"",""chrome"":true,""version"":""105.0"",""blink"":true,""windows"":true,""osname"":""Windows"",""osversion"":""10"",""a"":true}","1:14:6","0","1","Practice_3","70","f","1","1016.8000000119209","1220 x 686","1220 x 686","true","1","10","","","","",""
"null","<p style=""font-size: 80px;"">+ 10 points</p>","null","html-keyboard-response","20","328233","0.0-7.0-2.19","60c739d1b402ae0d42b37c66","3krg0x","LG","30","X","{""name"":""Chrome"",""chrome"":true,""version"":""105.0"",""blink"":true,""windows"":true,""osname"":""Windows"",""osversion"":""10"",""a"":true}","1:14:6","0","1","Practice_3","70","f","1","671.4000000357628","1220 x 686","1220 x 686","true","1","10","","","","",""
"null","<p style=""font-size: 80px;"">+ 0 points</p>","null","html-keyboard-response","21","330814","0.0-7.0-2.20","60c739d1b402ae0d42b37c66","3krg0x","LG","30","X","{""name"":""Chrome"",""chrome"":true,""version"":""105.0"",""blink"":true,""windows"":true,""osname"":""Windows"",""osversion"":""10"",""a"":true}","1:14:6","0","2","Practice_3","70","j","0","560.1999999880791","1220 x 686","1220 x 686","true","1","0","","","","",""
"null","<p style=""font-size: 80px;"">+ 0 points</p>","null","html-keyboard-response","22","334192","0.0-7.0-2.21","60c739d1b402ae0d42b37c66","3krg0x","LG","30","X","{""name"":""Chrome"",""chrome"":true,""version"":""105.0"",""blink"":true,""windows"":true,""osname"":""Windows"",""osversion"":""10"",""a"":true}","1:14:6","0","2","Practice_4","74","f","0","1359.1000000238419","1220 x 686","1220 x 686","true","1","0","","","","",""
"null","<p style=""font-size: 80px;"">+ 10 points</p>","null","html-keyboard-response","23","337378","0.0-7.0-2.22","60c739d1b402ae0d42b37c66","3krg0x","LG","30","X","{""name"":""Chrome"",""chrome"":true,""version"":""105.0"",""blink"":true,""windows"":true,""osname"":""Windows"",""osversion"":""10"",""a"":true}","1:14:6","0","2","Practice_1","74","j","1","1168.699999988079","1220 x 686","1220 x 686","true","1","10","","","","",""
"null","<p style=""font-size: 80px;"">+ 10 points</p>","null","html-keyboard-response","24","340243","0.0-7.0-2.23","60c739d1b402ae0d42b37c66","3krg0x","LG","30","X","{""name"":""Chrome"",""chrome"":true,""version"":""105.0"",""blink"":true,""windows"":true,""osname"":""Windows"",""osversion"":""10"",""a"":true}","1:14:6","0","2","Practice_2","70","f","1","850.3000000119209","1220 x 686","1220 x 686","true","1","10","","","","",""
"null","<p style=""font-size: 80px;"">+ 0 points</p>","null","html-keyboard-response","25","342931","0.0-7.0-2.24","60c739d1b402ae0d42b37c66","3krg0x","LG","30","X","{""name"":""Chrome"",""chrome"":true,""version"":""105.0"",""blink"":true,""windows"":true,""osname"":""Windows"",""osversion"":""10"",""a"":true}","1:14:6","0","2","Practice_3","70","j","0","668.1000000238419","1220 x 686","1220 x 686","true","1","0","","","","",""
"null","<p style=""font-size: 80px;"">+ 0 points</p>","null","html-keyboard-response","26","346084","0.0-7.0-2.25","60c739d1b402ae0d42b37c66","3krg0x","LG","30","X","{""name"":""Chrome"",""chrome"":true,""version"":""105.0"",""blink"":true,""windows"":true,""osname"":""Windows"",""osversion"":""10"",""a"":true}","1:14:6","0","2","Practice_4","74","f","0","1136.699999988079","1220 x 686","1220 x 686","true","1","0","","","","",""
"null","<p style=""font-size: 80px;"">+ 0 points</p>","null","html-keyboard-response","27","348948","0.0-7.0-2.26","60c739d1b402ae0d42b37c66","3krg0x","LG","30","X","{""name"":""Chrome"",""chrome"":true,""version"":""105.0"",""blink"":true,""windows"":true,""osname"":""Windows"",""osversion"":""10"",""a"":true}","1:14:6","0","2","Practice_4","74","f","0","852","1220 x 686","1220 x 686","true","1","0","","","","",""
"null","<p style=""font-size: 80px;"">+ 10 points</p>","null","html-keyboard-response","28","352051","0.0-7.0-2.27","60c739d1b402ae0d42b37c66","3krg0x","LG","30","X","{""name"":""Chrome"",""chrome"":true,""version"":""105.0"",""blink"":true,""windows"":true,""osname"":""Windows"",""osversion"":""10"",""a"":true}","1:14:6","0","2","Practice_2","70","f","1","1093.300000011921","1220 x 686","1220 x 686","true","1","10","","","","",""
"null","<p style=""font-size: 80px;"">+ 10 points</p>","null","html-keyboard-response","29","355280","0.0-7.0-2.28","60c739d1b402ae0d42b37c66","3krg0x","LG","30","X","{""name"":""Chrome"",""chrome"":true,""version"":""105.0"",""blink"":true,""windows"":true,""osname"":""Windows"",""osversion"":""10"",""a"":true}","1:14:6","0","2","Practice_1","74","j","1","1220","1220 x 686","1220 x 686","true","1","10","","","","",""
"null","<p style=""font-size: 80px;"">+ 0 points</p>","null","html-keyboard-response","30","358286","0.0-7.0-2.29","60c739d1b402ae0d42b37c66","3krg0x","LG","30","X","{""name"":""Chrome"",""chrome"":true,""version"":""105.0"",""blink"":true,""windows"":true,""osname"":""Windows"",""osversion"":""10"",""a"":true}","1:14:6","0","2","Practice_3","70","j","0","998","1220 x 686","1220 x 686","true","1","0","","","","",""
"null","<p style=""font-size: 80px;"">+ 10 points</p>","null","html-keyboard-response","31","361284","0.0-7.0-2.30","60c739d1b402ae0d42b37c66","3krg0x","LG","30","X","{""name"":""Chrome"",""chrome"":true,""version"":""105.0"",""blink"":true,""windows"":true,""osname"":""Windows"",""osversion"":""10"",""a"":true}","1:14:6","0","2","Practice_1","74","j","1","980.0999999642372","1220 x 686","1220 x 686","true","1","10","","","","",""
"null","<p style=""font-size: 80px;"">+ 0 points</p>","null","html-keyboard-response","32","364506","0.0-7.0-2.31","60c739d1b402ae0d42b37c66","3krg0x","LG","30","X","{""name"":""Chrome"",""chrome"":true,""version"":""105.0"",""blink"":true,""windows"":true,""osname"":""Windows"",""osversion"":""10"",""a"":true}","1:14:6","0","2","Practice_4","74","f","0","1203.800000011921","1220 x 686","1220 x 686","true","1","0","","","","",""
"null","<p style=""font-size: 80px;"">+ 10 points</p>","null","html-keyboard-response","33","367634","0.0-7.0-2.32","60c739d1b402ae0d42b37c66","3krg0x","LG","30","X","{""name"":""Chrome"",""chrome"":true,""version"":""105.0"",""blink"":true,""windows"":true,""osname"":""Windows"",""osversion"":""10"",""a"":true}","1:14:6","0","2","Practice_2","70","f","1","1105.6000000238419","1220 x 686","1220 x 686","true","1","10","","","","",""
"null","<p style=""font-size: 80px;"">+ 0 points</p>","null","html-keyboard-response","34","371218","0.0-7.0-2.33","60c739d1b402ae0d42b37c66","3krg0x","LG","30","X","{""name"":""Chrome"",""chrome"":true,""version"":""105.0"",""blink"":true,""windows"":true,""osname"":""Windows"",""osversion"":""10"",""a"":true}","1:14:6","0","2","Practice_2","74","f","0","1562.6000000238419","1220 x 686","1220 x 686","true","1","0","","","","",""
"null","<p style=""font-size: 80px;"">+ 0 points</p>","null","html-keyboard-response","35","373996","0.0-7.0-2.34","60c739d1b402ae0d42b37c66","3krg0x","LG","30","X","{""name"":""Chrome"",""chrome"":true,""version"":""105.0"",""blink"":true,""windows"":true,""osname"":""Windows"",""osversion"":""10"",""a"":true}","1:14:6","0","2","Practice_3","70","j","0","758.4000000357628","1220 x 686","1220 x 686","true","1","0","","","","",""
"null","<p style=""font-size: 80px;"">+ 0 points</p>","null","html-keyboard-response","36","376680","0.0-7.0-2.35","60c739d1b402ae0d42b37c66","3krg0x","LG","30","X","{""name"":""Chrome"",""chrome"":true,""version"":""105.0"",""blink"":true,""windows"":true,""osname"":""Windows"",""osversion"":""10"",""a"":true}","1:14:6","0","2","Practice_4","74","f","0","667.2999999523163","1220 x 686","1220 x 686","true","1","0","","","","",""
"null","<p style=""font-size: 80px;"">+ 0 points</p>","null","html-keyboard-response","37","379431","0.0-7.0-2.36","60c739d1b402ae0d42b37c66","3krg0x","LG","30","X","{""name"":""Chrome"",""chrome"":true,""version"":""105.0"",""blink"":true,""windows"":true,""osname"":""Windows"",""osversion"":""10"",""a"":true}","1:14:6","0","2","Practice_3","70","j","0","736.8000000119209","1220 x 686","1220 x 686","true","1","0","","","","",""
"null","<p style=""font-size: 80px;"">+ 0 points</p>","null","html-keyboard-response","38","382350","0.0-7.0-2.37","60c739d1b402ae0d42b37c66","3krg0x","LG","30","X","{""name"":""Chrome"",""chrome"":true,""version"":""105.0"",""blink"":true,""windows"":true,""osname"":""Windows"",""osversion"":""10"",""a"":true}","1:14:6","0","2","Practice_2","74","f","0","909.0999999642372","1220 x 686","1220 x 686","true","1","0","","","","",""
"null","<p style=""font-size: 80px;"">+ 10 points</p>","null","html-keyboard-response","39","385364","0.0-7.0-2.38","60c739d1b402ae0d42b37c66","3krg0x","LG","30","X","{""name"":""Chrome"",""chrome"":true,""version"":""105.0"",""blink"":true,""windows"":true,""osname"":""Windows"",""osversion"":""10"",""a"":true}","1:14:6","0","2","Practice_1","74","j","1","1005.5","1220 x 686","1220 x 686","true","1","10","","","","",""
"null","<p style=""font-size: 80px;"">+ 10 points</p>","null","html-keyboard-response","40","389066","0.0-7.0-2.39","60c739d1b402ae0d42b37c66","3krg0x","LG","30","X","{""name"":""Chrome"",""chrome"":true,""version"":""105.0"",""blink"":true,""windows"":true,""osname"":""Windows"",""osversion"":""10"",""a"":true}","1:14:6","0","2","Practice_1","74","j","1","1682.2000000476837","1220 x 686","1220 x 686","true","1","10","","","","",""
"21393.100000023842","","","survey-multi-choice","127","410461","0.0-8.0","60c739d1b402ae0d42b37c66","3krg0x","LG","30","X","{""name"":""Chrome"",""chrome"":true,""version"":""105.0"",""blink"":true,""windows"":true,""osname"":""Windows"",""osversion"":""10"",""a"":true}","1:14:6","","","","","","","","","","","1","","{""Q0"":""The green one"",""Q1"":""5""}","[0,1]","5","The green one","0"
"null","<p style=""font-size: 80px;"">+ 10 points</p>","null","html-keyboard-response","1","433181","0.0-9.0-1.0-2.0","60c739d1b402ae0d42b37c66","3krg0x","LG","30","X","{""name"":""Chrome"",""chrome"":true,""version"":""105.0"",""blink"":true,""windows"":true,""osname"":""Windows"",""osversion"":""10"",""a"":true}","1:14:6","0","1","Practice_4","74","j","1","1170.300000011921","1220 x 686","1220 x 686","true","1","10","","","","",""
"null","<p style=""font-size: 80px;"">+ 10 points</p>","null","html-keyboard-response","2","435912","0.0-9.0-1.0-2.1","60c739d1b402ae0d42b37c66","3krg0x","LG","30","X","{""name"":""Chrome"",""chrome"":true,""version"":""105.0"",""blink"":true,""windows"":true,""osname"":""Windows"",""osversion"":""10"",""a"":true}","1:14:6","0","1","Practice_4","74","j","1","716.5","1220 x 686","1220 x 686","true","1","10","","","","",""
"null","<p style=""font-size: 80px;"">+ 0 points</p>","null","html-keyboard-response","3","438667","0.0-9.0-1.0-2.2","60c739d1b402ae0d42b37c66","3krg0x","LG","30","X","{""name"":""Chrome"",""chrome"":true,""version"":""105.0"",""blink"":true,""windows"":true,""osname"":""Windows"",""osversion"":""10"",""a"":true}","1:14:6","0","1","Practice_2","70","j","0","745","1220 x 686","1220 x 686","true","1","0","","","","",""
"null","<p style=""font-size: 80px;"">+ 10 points</p>","null","html-keyboard-response","4","441437","0.0-9.0-1.0-2.3","60c739d1b402ae0d42b37c66","3krg0x","LG","30","X","{""name"":""Chrome"",""chrome"":true,""version"":""105.0"",""blink"":true,""windows"":true,""osname"":""Windows"",""osversion"":""10"",""a"":true}","1:14:6","0","1","Practice_3","70","f","1","749","1220 x 686","1220 x 686","true","1","10","","","","",""
"null","<p style=""font-size: 80px;"">+ 10 points</p>","null","html-keyboard-response","5","444148","0.0-9.0-1.0-2.4","60c739d1b402ae0d42b37c66","3krg0x","LG","30","X","{""name"":""Chrome"",""chrome"":true,""version"":""105.0"",""blink"":true,""windows"":true,""osname"":""Windows"",""osversion"":""10"",""a"":true}","1:14:6","0","1","Practice_3","70","f","1","695.4000000357628","1220 x 686","1220 x 686","true","1","10","","","","",""
"null","<p style=""font-size: 80px;"">+ 0 points</p>","null","html-keyboard-response","6","447273","0.0-9.0-1.0-2.5","60c739d1b402ae0d42b37c66","3krg0x","LG","30","X","{""name"":""Chrome"",""chrome"":true,""version"":""105.0"",""blink"":true,""windows"":true,""osname"":""Windows"",""osversion"":""10"",""a"":true}","1:14:6","0","1","Practice_1","74","f","0","1109.699999988079","1220 x 686","1220 x 686","true","1","0","","","","",""
"null","<p style=""font-size: 80px;"">+ 10 points</p>","null","html-keyboard-response","7","450959","0.0-9.0-1.0-2.6","60c739d1b402ae0d42b37c66","3krg0x","LG","30","X","{""name"":""Chrome"",""chrome"":true,""version"":""105.0"",""blink"":true,""windows"":true,""osname"":""Windows"",""osversion"":""10"",""a"":true}","1:14:6","0","1","Practice_4","74","j","1","1671.1000000238419","1220 x 686","1220 x 686","true","1","10","","","","",""
"null","<p style=""font-size: 80px;"">+ 10 points</p>","null","html-keyboard-response","8","453945","0.0-9.0-1.0-2.7","60c739d1b402ae0d42b37c66","3krg0x","LG","30","X","{""name"":""Chrome"",""chrome"":true,""version"":""105.0"",""blink"":true,""windows"":true,""osname"":""Windows"",""osversion"":""10"",""a"":true}","1:14:6","0","1","Practice_3","70","f","1","960.8000000119209","1220 x 686","1220 x 686","true","1","10","","","","",""
"null","<p style=""font-size: 80px;"">+ 0 points</p>","null","html-keyboard-response","9","457191","0.0-9.0-1.0-2.8","60c739d1b402ae0d42b37c66","3krg0x","LG","30","X","{""name"":""Chrome"",""chrome"":true,""version"":""105.0"",""blink"":true,""windows"":true,""osname"":""Windows"",""osversion"":""10"",""a"":true}","1:14:6","0","1","Practice_1","74","f","0","1237.699999988079","1220 x 686","1220 x 686","true","1","0","","","","",""
"null","<p style=""font-size: 80px;"">+ 10 points</p>","null","html-keyboard-response","10","460547","0.0-9.0-1.0-2.9","60c739d1b402ae0d42b37c66","3krg0x","LG","30","X","{""name"":""Chrome"",""chrome"":true,""version"":""105.0"",""blink"":true,""windows"":true,""osname"":""Windows"",""osversion"":""10"",""a"":true}","1:14:6","0","1","Practice_1","70","f","1","1343.699999988079","1220 x 686","1220 x 686","true","1","10","","","","",""
"null","<p style=""font-size: 80px;"">+ 10 points</p>","null","html-keyboard-response","11","464138","0.0-9.0-1.0-2.10","60c739d1b402ae0d42b37c66","3krg0x","LG","30","X","{""name"":""Chrome"",""chrome"":true,""version"":""105.0"",""blink"":true,""windows"":true,""osname"":""Windows"",""osversion"":""10"",""a"":true}","1:14:6","0","1","Practice_2","74","j","1","1569.2000000476837","1220 x 686","1220 x 686","true","1","10","","","","",""
"null","<p style=""font-size: 80px;"">+ 10 points</p>","null","html-keyboard-response","12","467576","0.0-9.0-1.0-2.11","60c739d1b402ae0d42b37c66","3krg0x","LG","30","X","{""name"":""Chrome"",""chrome"":true,""version"":""105.0"",""blink"":true,""windows"":true,""osname"":""Windows"",""osversion"":""10"",""a"":true}","1:14:6","0","1","Practice_1","70","f","1","1413.8999999761581","1220 x 686","1220 x 686","true","1","10","","","","",""
"null","<p style=""font-size: 80px;"">+ 10 points</p>","null","html-keyboard-response","13","470473","0.0-9.0-1.0-2.12","60c739d1b402ae0d42b37c66","3krg0x","LG","30","X","{""name"":""Chrome"",""chrome"":true,""version"":""105.0"",""blink"":true,""windows"":true,""osname"":""Windows"",""osversion"":""10"",""a"":true}","1:14:6","0","1","Practice_1","70","f","1","874.3999999761581","1220 x 686","1220 x 686","true","1","10","","","","",""
"null","<p style=""font-size: 80px;"">+ 10 points</p>","null","html-keyboard-response","14","473476","0.0-9.0-1.0-2.13","60c739d1b402ae0d42b37c66","3krg0x","LG","30","X","{""name"":""Chrome"",""chrome"":true,""version"":""105.0"",""blink"":true,""windows"":true,""osname"":""Windows"",""osversion"":""10"",""a"":true}","1:14:6","0","1","Practice_2","74","j","1","977","1220 x 686","1220 x 686","true","1","10","","","","",""
"null","<p style=""font-size: 80px;"">+ 10 points</p>","null","html-keyboard-response","15","476349","0.0-9.0-1.0-2.14","60c739d1b402ae0d42b37c66","3krg0x","LG","30","X","{""name"":""Chrome"",""chrome"":true,""version"":""105.0"",""blink"":true,""windows"":true,""osname"":""Windows"",""osversion"":""10"",""a"":true}","1:14:6","0","1","Practice_4","74","j","1","858.6999999880791","1220 x 686","1220 x 686","true","1","10","","","","",""
"null","<p style=""font-size: 80px;"">+ 10 points</p>","null","html-keyboard-response","16","479500","0.0-9.0-1.0-2.15","60c739d1b402ae0d42b37c66","3krg0x","LG","30","X","{""name"":""Chrome"",""chrome"":true,""version"":""105.0"",""blink"":true,""windows"":true,""osname"":""Windows"",""osversion"":""10"",""a"":true}","1:14:6","0","1","Practice_4","74","j","1","1131.8999999761581","1220 x 686","1220 x 686","true","1","10","","","","",""
"null","<p style=""font-size: 80px;"">+ 10 points</p>","null","html-keyboard-response","17","482579","0.0-9.0-1.0-2.16","60c739d1b402ae0d42b37c66","3krg0x","LG","30","X","{""name"":""Chrome"",""chrome"":true,""version"":""105.0"",""blink"":true,""windows"":true,""osname"":""Windows"",""osversion"":""10"",""a"":true}","1:14:6","0","1","Practice_2","74","j","1","1066.5","1220 x 686","1220 x 686","true","1","10","","","","",""
"null","<p style=""font-size: 80px;"">+ 10 points</p>","null","html-keyboard-response","18","485350","0.0-9.0-1.0-2.17","60c739d1b402ae0d42b37c66","3krg0x","LG","30","X","{""name"":""Chrome"",""chrome"":true,""version"":""105.0"",""blink"":true,""windows"":true,""osname"":""Windows"",""osversion"":""10"",""a"":true}","1:14:6","0","1","Practice_2","74","j","1","757","1220 x 686","1220 x 686","true","1","10","","","","",""
"null","<p style=""font-size: 80px;"">+ 10 points</p>","null","html-keyboard-response","19","488133","0.0-9.0-1.0-2.18","60c739d1b402ae0d42b37c66","3krg0x","LG","30","X","{""name"":""Chrome"",""chrome"":true,""version"":""105.0"",""blink"":true,""windows"":true,""osname"":""Windows"",""osversion"":""10"",""a"":true}","1:14:6","0","1","Practice_3","70","f","1","764.1999999880791","1220 x 686","1220 x 686","true","1","10","","","","",""
"null","<p style=""font-size: 80px;"">+ 10 points</p>","null","html-keyboard-response","20","490861","0.0-9.0-1.0-2.19","60c739d1b402ae0d42b37c66","3krg0x","LG","30","X","{""name"":""Chrome"",""chrome"":true,""version"":""105.0"",""blink"":true,""windows"":true,""osname"":""Windows"",""osversion"":""10"",""a"":true}","1:14:6","0","1","Practice_3","70","f","1","706.5","1220 x 686","1220 x 686","true","1","10","","","","",""
"null","<p style=""font-size: 80px;"">+ 0 points</p>","null","html-keyboard-response","21","493990","0.0-9.0-1.0-2.20","60c739d1b402ae0d42b37c66","3krg0x","LG","30","X","{""name"":""Chrome"",""chrome"":true,""version"":""105.0"",""blink"":true,""windows"":true,""osname"":""Windows"",""osversion"":""10"",""a"":true}","1:14:6","0","2","Practice_3","70","j","0","1117.8999999761581","1220 x 686","1220 x 686","true","1","0","","","","",""
"null","<p style=""font-size: 80px;"">+ 0 points</p>","null","html-keyboard-response","22","496769","0.0-9.0-1.0-2.21","60c739d1b402ae0d42b37c66","3krg0x","LG","30","X","{""name"":""Chrome"",""chrome"":true,""version"":""105.0"",""blink"":true,""windows"":true,""osname"":""Windows"",""osversion"":""10"",""a"":true}","1:14:6","0","2","Practice_4","74","f","0","757.6999999880791","1220 x 686","1220 x 686","true","1","0","","","","",""
"null","<p style=""font-size: 80px;"">+ 0 points</p>","null","html-keyboard-response","23","500642","0.0-9.0-1.0-2.22","60c739d1b402ae0d42b37c66","3krg0x","LG","30","X","{""name"":""Chrome"",""chrome"":true,""version"":""105.0"",""blink"":true,""windows"":true,""osname"":""Windows"",""osversion"":""10"",""a"":true}","1:14:6","0","2","Practice_1","70","j","0","1848.0999999642372","1220 x 686","1220 x 686","true","1","0","","","","",""
"null","<p style=""font-size: 80px;"">+ 0 points</p>","null","html-keyboard-response","24","504058","0.0-9.0-1.0-2.23","60c739d1b402ae0d42b37c66","3krg0x","LG","30","X","{""name"":""Chrome"",""chrome"":true,""version"":""105.0"",""blink"":true,""windows"":true,""osname"":""Windows"",""osversion"":""10"",""a"":true}","1:14:6","0","2","Practice_2","74","f","0","1405.5","1220 x 686","1220 x 686","true","1","0","","","","",""
"null","<p style=""font-size: 80px;"">+ 0 points</p>","null","html-keyboard-response","25","507184","0.0-9.0-1.0-2.24","60c739d1b402ae0d42b37c66","3krg0x","LG","30","X","{""name"":""Chrome"",""chrome"":true,""version"":""105.0"",""blink"":true,""windows"":true,""osname"":""Windows"",""osversion"":""10"",""a"":true}","1:14:6","0","2","Practice_3","70","j","0","1102.800000011921","1220 x 686","1220 x 686","true","1","0","","","","",""
"null","<p style=""font-size: 80px;"">+ 0 points</p>","null","html-keyboard-response","26","510934","0.0-9.0-1.0-2.25","60c739d1b402ae0d42b37c66","3krg0x","LG","30","X","{""name"":""Chrome"",""chrome"":true,""version"":""105.0"",""blink"":true,""windows"":true,""osname"":""Windows"",""osversion"":""10"",""a"":true}","1:14:6","0","2","Practice_4","74","f","0","1732.5999999642372","1220 x 686","1220 x 686","true","1","0","","","","",""
"null","<p style=""font-size: 80px;"">+ 0 points</p>","null","html-keyboard-response","27","513845","0.0-9.0-1.0-2.26","60c739d1b402ae0d42b37c66","3krg0x","LG","30","X","{""name"":""Chrome"",""chrome"":true,""version"":""105.0"",""blink"":true,""windows"":true,""osname"":""Windows"",""osversion"":""10"",""a"":true}","1:14:6","0","2","Practice_4","74","f","0","895.5999999642372","1220 x 686","1220 x 686","true","1","0","","","","",""
"null","<p style=""font-size: 80px;"">+ 0 points</p>","null","html-keyboard-response","28","517097","0.0-9.0-1.0-2.27","60c739d1b402ae0d42b37c66","3krg0x","LG","30","X","{""name"":""Chrome"",""chrome"":true,""version"":""105.0"",""blink"":true,""windows"":true,""osname"":""Windows"",""osversion"":""10"",""a"":true}","1:14:6","0","2","Practice_2","74","f","0","1226.2000000476837","1220 x 686","1220 x 686","true","1","0","","","","",""
"null","<p style=""font-size: 80px;"">+ 0 points</p>","null","html-keyboard-response","29","520064","0.0-9.0-1.0-2.28","60c739d1b402ae0d42b37c66","3krg0x","LG","30","X","{""name"":""Chrome"",""chrome"":true,""version"":""105.0"",""blink"":true,""windows"":true,""osname"":""Windows"",""osversion"":""10"",""a"":true}","1:14:6","0","2","Practice_1","70","j","0","949.3999999761581","1220 x 686","1220 x 686","true","1","0","","","","",""
"null","<p style=""font-size: 80px;"">+ 0 points</p>","null","html-keyboard-response","30","523158","0.0-9.0-1.0-2.29","60c739d1b402ae0d42b37c66","3krg0x","LG","30","X","{""name"":""Chrome"",""chrome"":true,""version"":""105.0"",""blink"":true,""windows"":true,""osname"":""Windows"",""osversion"":""10"",""a"":true}","1:14:6","0","2","Practice_3","70","j","0","1075.699999988079","1220 x 686","1220 x 686","true","1","0","","","","",""
"null","<p style=""font-size: 80px;"">+ 0 points</p>","null","html-keyboard-response","31","527216","0.0-9.0-1.0-2.30","60c739d1b402ae0d42b37c66","3krg0x","LG","30","X","{""name"":""Chrome"",""chrome"":true,""version"":""105.0"",""blink"":true,""windows"":true,""osname"":""Windows"",""osversion"":""10"",""a"":true}","1:14:6","0","2","Practice_1","70","j","0","2045.0999999642372","1220 x 686","1220 x 686","true","1","0","","","","",""
"null","<p style=""font-size: 80px;"">+ 0 points</p>","null","html-keyboard-response","32","530503","0.0-9.0-1.0-2.31","60c739d1b402ae0d42b37c66","3krg0x","LG","30","X","{""name"":""Chrome"",""chrome"":true,""version"":""105.0"",""blink"":true,""windows"":true,""osname"":""Windows"",""osversion"":""10"",""a"":true}","1:14:6","0","2","Practice_4","74","f","0","1268.8999999761581","1220 x 686","1220 x 686","true","1","0","","","","",""
"null","<p style=""font-size: 80px;"">+ 0 points</p>","null","html-keyboard-response","33","534137","0.0-9.0-1.0-2.32","60c739d1b402ae0d42b37c66","3krg0x","LG","30","X","{""name"":""Chrome"",""chrome"":true,""version"":""105.0"",""blink"":true,""windows"":true,""osname"":""Windows"",""osversion"":""10"",""a"":true}","1:14:6","0","2","Practice_2","74","f","0","1622.300000011921","1220 x 686","1220 x 686","true","1","0","","","","",""
"null","<p style=""font-size: 80px;"">+ 10 points</p>","null","html-keyboard-response","34","537912","0.0-9.0-1.0-2.33","60c739d1b402ae0d42b37c66","3krg0x","LG","30","X","{""name"":""Chrome"",""chrome"":true,""version"":""105.0"",""blink"":true,""windows"":true,""osname"":""Windows"",""osversion"":""10"",""a"":true}","1:14:6","0","2","Practice_2","70","f","1","1771.2999999523163","1220 x 686","1220 x 686","true","1","10","","","","",""
"null","<p style=""font-size: 80px;"">+ 0 points</p>","null","html-keyboard-response","35","540667","0.0-9.0-1.0-2.34","60c739d1b402ae0d42b37c66","3krg0x","LG","30","X","{""name"":""Chrome"",""chrome"":true,""version"":""105.0"",""blink"":true,""windows"":true,""osname"":""Windows"",""osversion"":""10"",""a"":true}","1:14:6","0","2","Practice_3","70","j","0","739.8000000119209","1220 x 686","1220 x 686","true","1","0","","","","",""
"null","<p style=""font-size: 80px;"">+ 0 points</p>","null","html-keyboard-response","36","543390","0.0-9.0-1.0-2.35","60c739d1b402ae0d42b37c66","3krg0x","LG","30","X","{""name"":""Chrome"",""chrome"":true,""version"":""105.0"",""blink"":true,""windows"":true,""osname"":""Windows"",""osversion"":""10"",""a"":true}","1:14:6","0","2","Practice_4","74","f","0","698.1000000238419","1220 x 686","1220 x 686","true","1","0","","","","",""
"null","<p style=""font-size: 80px;"">+ 0 points</p>","null","html-keyboard-response","37","546317","0.0-9.0-1.0-2.36","60c739d1b402ae0d42b37c66","3krg0x","LG","30","X","{""name"":""Chrome"",""chrome"":true,""version"":""105.0"",""blink"":true,""windows"":true,""osname"":""Windows"",""osversion"":""10"",""a"":true}","1:14:6","0","2","Practice_3","70","j","0","910.1000000238419","1220 x 686","1220 x 686","true","1","0","","","","",""
"null","<p style=""font-size: 80px;"">+ 0 points</p>","null","html-keyboard-response","38","549308","0.0-9.0-1.0-2.37","60c739d1b402ae0d42b37c66","3krg0x","LG","30","X","{""name"":""Chrome"",""chrome"":true,""version"":""105.0"",""blink"":true,""windows"":true,""osname"":""Windows"",""osversion"":""10"",""a"":true}","1:14:6","0","2","Practice_2","74","f","0","971.6999999880791","1220 x 686","1220 x 686","true","1","0","","","","",""
"null","<p style=""font-size: 80px;"">+ 0 points</p>","null","html-keyboard-response","39","552834","0.0-9.0-1.0-2.38","60c739d1b402ae0d42b37c66","3krg0x","LG","30","X","{""name"":""Chrome"",""chrome"":true,""version"":""105.0"",""blink"":true,""windows"":true,""osname"":""Windows"",""osversion"":""10"",""a"":true}","1:14:6","0","2","Practice_1","70","j","0","1503.800000011921","1220 x 686","1220 x 686","true","1","0","","","","",""
"null","<p style=""font-size: 80px;"">+ 10 points</p>","null","html-keyboard-response","40","556012","0.0-9.0-1.0-2.39","60c739d1b402ae0d42b37c66","3krg0x","LG","30","X","{""name"":""Chrome"",""chrome"":true,""version"":""105.0"",""blink"":true,""windows"":true,""osname"":""Windows"",""osversion"":""10"",""a"":true}","1:14:6","0","2","Practice_1","74","j","1","1158.5","1220 x 686","1220 x 686","true","1","10","","","","",""
"18927.5","","","survey-multi-choice","249","574941","0.0-9.0-2.0","60c739d1b402ae0d42b37c66","3krg0x","LG","30","X","{""name"":""Chrome"",""chrome"":true,""version"":""105.0"",""blink"":true,""windows"":true,""osname"":""Windows"",""osversion"":""10"",""a"":true}","1:14:6","","","","","","","","","","","1","","{""Q0"":""The red one"",""Q1"":""5""}","[0,1]","5","The red one","1"
"null","<p style=""font-size: 80px;"">+ 0 points</p>","null","html-keyboard-response","1","593500","0.0-11.0-2.0","60c739d1b402ae0d42b37c66","3krg0x","LG","30","X","{""name"":""Chrome"",""chrome"":true,""version"":""105.0"",""blink"":true,""windows"":true,""osname"":""Windows"",""osversion"":""10"",""a"":true}","1:14:6","1","4","Test_4","74","f","0","1070.3999999761581","1220 x 686","1220 x 686","true","1","0","","","","",""
"null","<p style=""font-size: 80px;"">+ 10 points</p>","null","html-keyboard-response","2","596797","0.0-11.0-2.1","60c739d1b402ae0d42b37c66","3krg0x","LG","30","X","{""name"":""Chrome"",""chrome"":true,""version"":""105.0"",""blink"":true,""windows"":true,""osname"":""Windows"",""osversion"":""10"",""a"":true}","1:14:6","1","4","Test_4","70","f","1","1275.6000000238419","1220 x 686","1220 x 686","true","1","10","","","","",""
"null","<p style=""font-size: 80px;"">+ 10 points</p>","null","html-keyboard-response","3","600350","0.0-11.0-2.2","60c739d1b402ae0d42b37c66","3krg0x","LG","30","X","{""name"":""Chrome"",""chrome"":true,""version"":""105.0"",""blink"":true,""windows"":true,""osname"":""Windows"",""osversion"":""10"",""a"":true}","1:14:6","1","4","Test_2","70","f","1","1544.8999999761581","1220 x 686","1220 x 686","true","1","10","","","","",""
"null","<p style=""font-size: 80px;"">+ 0 points</p>","null","html-keyboard-response","4","603390","0.0-11.0-2.3","60c739d1b402ae0d42b37c66","3krg0x","LG","30","X","{""name"":""Chrome"",""chrome"":true,""version"":""105.0"",""blink"":true,""windows"":true,""osname"":""Windows"",""osversion"":""10"",""a"":true}","1:14:6","1","4","Test_4","74","f","0","1018.8000000119209","1220 x 686","1220 x 686","true","1","0","","","","",""
"null","<p style=""font-size: 80px;"">+ 10 points</p>","null","html-keyboard-response","5","607485","0.0-11.0-2.4","60c739d1b402ae0d42b37c66","3krg0x","LG","30","X","{""name"":""Chrome"",""chrome"":true,""version"":""105.0"",""blink"":true,""windows"":true,""osname"":""Windows"",""osversion"":""10"",""a"":true}","1:14:6","1","4","Test_1","74","j","1","2063.300000011921","1220 x 686","1220 x 686","true","1","10","","","","",""
"null","<p style=""font-size: 80px;"">+ 10 points</p>","null","html-keyboard-response","6","610393","0.0-11.0-2.5","60c739d1b402ae0d42b37c66","3krg0x","LG","30","X","{""name"":""Chrome"",""chrome"":true,""version"":""105.0"",""blink"":true,""windows"":true,""osname"":""Windows"",""osversion"":""10"",""a"":true}","1:14:6","1","4","Test_1","74","j","1","892.5","1220 x 686","1220 x 686","true","1","10","","","","",""
"null","<p style=""font-size: 80px;"">+ 10 points</p>","null","html-keyboard-response","7","613357","0.0-11.0-2.6","60c739d1b402ae0d42b37c66","3krg0x","LG","30","X","{""name"":""Chrome"",""chrome"":true,""version"":""105.0"",""blink"":true,""windows"":true,""osname"":""Windows"",""osversion"":""10"",""a"":true}","1:14:6","1","4","Test_1","74","j","1","950.6000000238419","1220 x 686","1220 x 686","true","1","10","","","","",""
"null","<p style=""font-size: 80px;"">+ 10 points</p>","null","html-keyboard-response","8","615999","0.0-11.0-2.7","60c739d1b402ae0d42b37c66","3krg0x","LG","30","X","{""name"":""Chrome"",""chrome"":true,""version"":""105.0"",""blink"":true,""windows"":true,""osname"":""Windows"",""osversion"":""10"",""a"":true}","1:14:6","1","4","Test_1","74","j","1","619.5999999642372","1220 x 686","1220 x 686","true","1","10","","","","",""
"null","<p style=""font-size: 80px;"">+ 10 points</p>","null","html-keyboard-response","9","619264","0.0-11.0-2.8","60c739d1b402ae0d42b37c66","3krg0x","LG","30","X","{""name"":""Chrome"",""chrome"":true,""version"":""105.0"",""blink"":true,""windows"":true,""osname"":""Windows"",""osversion"":""10"",""a"":true}","1:14:6","1","4","Test_2","70","f","1","1253.0999999642372","1220 x 686","1220 x 686","true","1","10","","","","",""
"null","<p style=""font-size: 80px;"">+ 10 points</p>","null","html-keyboard-response","10","621802","0.0-11.0-2.9","60c739d1b402ae0d42b37c66","3krg0x","LG","30","X","{""name"":""Chrome"",""chrome"":true,""version"":""105.0"",""blink"":true,""windows"":true,""osname"":""Windows"",""osversion"":""10"",""a"":true}","1:14:6","1","4","Test_2","70","f","1","529.3000000119209","1220 x 686","1220 x 686","true","1","10","","","","",""
"null","<p style=""font-size: 80px;"">+ 10 points</p>","null","html-keyboard-response","11","625316","0.0-11.0-2.10","60c739d1b402ae0d42b37c66","3krg0x","LG","30","X","{""name"":""Chrome"",""chrome"":true,""version"":""105.0"",""blink"":true,""windows"":true,""osname"":""Windows"",""osversion"":""10"",""a"":true}","1:14:6","1","4","Test_3","74","j","1","1497","1220 x 686","1220 x 686","true","1","10","","","","",""
"null","<p style=""font-size: 80px;"">+ 10 points</p>","null","html-keyboard-response","12","628310","0.0-11.0-2.11","60c739d1b402ae0d42b37c66","3krg0x","LG","30","X","{""name"":""Chrome"",""chrome"":true,""version"":""105.0"",""blink"":true,""windows"":true,""osname"":""Windows"",""osversion"":""10"",""a"":true}","1:14:6","1","4","Test_2","70","f","1","975.3000000119209","1220 x 686","1220 x 686","true","1","10","","","","",""
"null","<p style=""font-size: 80px;"">+ 10 points</p>","null","html-keyboard-response","13","631442","0.0-11.0-2.12","60c739d1b402ae0d42b37c66","3krg0x","LG","30","X","{""name"":""Chrome"",""chrome"":true,""version"":""105.0"",""blink"":true,""windows"":true,""osname"":""Windows"",""osversion"":""10"",""a"":true}","1:14:6","1","4","Test_4","70","f","1","1110.0999999642372","1220 x 686","1220 x 686","true","1","10","","","","",""
"null","<p style=""font-size: 80px;"">+ 10 points</p>","null","html-keyboard-response","14","634289","0.0-11.0-2.13","60c739d1b402ae0d42b37c66","3krg0x","LG","30","X","{""name"":""Chrome"",""chrome"":true,""version"":""105.0"",""blink"":true,""windows"":true,""osname"":""Windows"",""osversion"":""10"",""a"":true}","1:14:6","1","4","Test_4","70","f","1","827.1000000238419","1220 x 686","1220 x 686","true","1","10","","","","",""
"null","<p style=""font-size: 80px;"">+ 10 points</p>","null","html-keyboard-response","15","637230","0.0-11.0-2.14","60c739d1b402ae0d42b37c66","3krg0x","LG","30","X","{""name"":""Chrome"",""chrome"":true,""version"":""105.0"",""blink"":true,""windows"":true,""osname"":""Windows"",""osversion"":""10"",""a"":true}","1:14:6","1","4","Test_1","74","j","1","926.6000000238419","1220 x 686","1220 x 686","true","1","10","","","","",""
"null","<p style=""font-size: 80px;"">+ 10 points</p>","null","html-keyboard-response","16","640569","0.0-11.0-2.15","60c739d1b402ae0d42b37c66","3krg0x","LG","30","X","{""name"":""Chrome"",""chrome"":true,""version"":""105.0"",""blink"":true,""windows"":true,""osname"":""Windows"",""osversion"":""10"",""a"":true}","1:14:6","1","4","Test_3","74","j","1","1335.300000011921","1220 x 686","1220 x 686","true","1","10","","","","",""
"null","<p style=""font-size: 80px;"">+ 10 points</p>","null","html-keyboard-response","17","643535","0.0-11.0-2.16","60c739d1b402ae0d42b37c66","3krg0x","LG","30","X","{""name"":""Chrome"",""chrome"":true,""version"":""105.0"",""blink"":true,""windows"":true,""osname"":""Windows"",""osversion"":""10"",""a"":true}","1:14:6","1","4","Test_2","70","f","1","944.5","1220 x 686","1220 x 686","true","1","10","","","","",""
"null","<p style=""font-size: 80px;"">+ 10 points</p>","null","html-keyboard-response","18","646346","0.0-11.0-2.17","60c739d1b402ae0d42b37c66","3krg0x","LG","30","X","{""name"":""Chrome"",""chrome"":true,""version"":""105.0"",""blink"":true,""windows"":true,""osname"":""Windows"",""osversion"":""10"",""a"":true}","1:14:6","1","4","Test_3","74","j","1","792.1000000238419","1220 x 686","1220 x 686","true","1","10","","","","",""
"null","<p style=""font-size: 80px;"">+ 10 points</p>","null","html-keyboard-response","19","649535","0.0-11.0-2.18","60c739d1b402ae0d42b37c66","3krg0x","LG","30","X","{""name"":""Chrome"",""chrome"":true,""version"":""105.0"",""blink"":true,""windows"":true,""osname"":""Windows"",""osversion"":""10"",""a"":true}","1:14:6","1","4","Test_3","74","j","1","1182.300000011921","1220 x 686","1220 x 686","true","1","10","","","","",""
"null","<p style=""font-size: 80px;"">+ 0 points</p>","null","html-keyboard-response","20","652108","0.0-11.0-2.19","60c739d1b402ae0d42b37c66","3krg0x","LG","30","X","{""name"":""Chrome"",""chrome"":true,""version"":""105.0"",""blink"":true,""windows"":true,""osname"":""Windows"",""osversion"":""10"",""a"":true}","1:14:6","1","3","Test_3","74","f","0","558.0999999642372","1220 x 686","1220 x 686","true","1","0","","","","",""
"null","<p style=""font-size: 80px;"">+ 0 points</p>","null","html-keyboard-response","21","654983","0.0-11.0-2.20","60c739d1b402ae0d42b37c66","3krg0x","LG","30","X","{""name"":""Chrome"",""chrome"":true,""version"":""105.0"",""blink"":true,""windows"":true,""osname"":""Windows"",""osversion"":""10"",""a"":true}","1:14:6","1","3","Test_4","70","j","0","860.3000000119209","1220 x 686","1220 x 686","true","1","0","","","","",""
"null","<p style=""font-size: 80px;"">+ 10 points</p>","null","html-keyboard-response","22","657920","0.0-11.0-2.21","60c739d1b402ae0d42b37c66","3krg0x","LG","30","X","{""name"":""Chrome"",""chrome"":true,""version"":""105.0"",""blink"":true,""windows"":true,""osname"":""Windows"",""osversion"":""10"",""a"":true}","1:14:6","1","3","Test_3","70","f","1","926.1000000238419","1220 x 686","1220 x 686","true","1","10","","","","",""
"null","<p style=""font-size: 80px;"">+ 10 points</p>","null","html-keyboard-response","23","660891","0.0-11.0-2.22","60c739d1b402ae0d42b37c66","3krg0x","LG","30","X","{""name"":""Chrome"",""chrome"":true,""version"":""105.0"",""blink"":true,""windows"":true,""osname"":""Windows"",""osversion"":""10"",""a"":true}","1:14:6","1","3","Test_2","74","j","1","945.0999999642372","1220 x 686","1220 x 686","true","1","10","","","","",""
"null","<p style=""font-size: 80px;"">+ 0 points</p>","null","html-keyboard-response","24","664365","0.0-11.0-2.23","60c739d1b402ae0d42b37c66","3krg0x","LG","30","X","{""name"":""Chrome"",""chrome"":true,""version"":""105.0"",""blink"":true,""windows"":true,""osname"":""Windows"",""osversion"":""10"",""a"":true}","1:14:6","1","3","Test_1","74","f","0","1448.3999999761581","1220 x 686","1220 x 686","true","1","0","","","","",""
"null","<p style=""font-size: 80px;"">+ 0 points</p>","null","html-keyboard-response","25","667760","0.0-11.0-2.24","60c739d1b402ae0d42b37c66","3krg0x","LG","30","X","{""name"":""Chrome"",""chrome"":true,""version"":""105.0"",""blink"":true,""windows"":true,""osname"":""Windows"",""osversion"":""10"",""a"":true}","1:14:6","1","3","Test_3","74","f","0","1371.2999999523163","1220 x 686","1220 x 686","true","1","0","","","","",""
"null","<p style=""font-size: 80px;"">+ 0 points</p>","null","html-keyboard-response","26","670785","0.0-11.0-2.25","60c739d1b402ae0d42b37c66","3krg0x","LG","30","X","{""name"":""Chrome"",""chrome"":true,""version"":""105.0"",""blink"":true,""windows"":true,""osname"":""Windows"",""osversion"":""10"",""a"":true}","1:14:6","1","3","Test_4","70","j","0","1009.6000000238419","1220 x 686","1220 x 686","true","1","0","","","","",""
"null","<p style=""font-size: 80px;"">+ 0 points</p>","null","html-keyboard-response","27","674037","0.0-11.0-2.26","60c739d1b402ae0d42b37c66","3krg0x","LG","30","X","{""name"":""Chrome"",""chrome"":true,""version"":""105.0"",""blink"":true,""windows"":true,""osname"":""Windows"",""osversion"":""10"",""a"":true}","1:14:6","1","3","Test_4","70","j","0","1234.1000000238419","1220 x 686","1220 x 686","true","1","0","","","","",""
"null","<p style=""font-size: 80px;"">+ 0 points</p>","null","html-keyboard-response","28","677143","0.0-11.0-2.27","60c739d1b402ae0d42b37c66","3krg0x","LG","30","X","{""name"":""Chrome"",""chrome"":true,""version"":""105.0"",""blink"":true,""windows"":true,""osname"":""Windows"",""osversion"":""10"",""a"":true}","1:14:6","1","3","Test_1","74","f","0","1082.199999988079","1220 x 686","1220 x 686","true","1","0","","","","",""
"null","<p style=""font-size: 80px;"">+ 0 points</p>","null","html-keyboard-response","29","680344","0.0-11.0-2.28","60c739d1b402ae0d42b37c66","3krg0x","LG","30","X","{""name"":""Chrome"",""chrome"":true,""version"":""105.0"",""blink"":true,""windows"":true,""osname"":""Windows"",""osversion"":""10"",""a"":true}","1:14:6","1","3","Test_3","74","f","0","1189.199999988079","1220 x 686","1220 x 686","true","1","0","","","","",""
"null","<p style=""font-size: 80px;"">+ 10 points</p>","null","html-keyboard-response","30","683951","0.0-11.0-2.29","60c739d1b402ae0d42b37c66","3krg0x","LG","30","X","{""name"":""Chrome"",""chrome"":true,""version"":""105.0"",""blink"":true,""windows"":true,""osname"":""Windows"",""osversion"":""10"",""a"":true}","1:14:6","1","3","Test_2","74","j","1","1594.5","1220 x 686","1220 x 686","true","1","10","","","","",""
"null","<p style=""font-size: 80px;"">+ 10 points</p>","null","html-keyboard-response","31","686570","0.0-11.0-2.30","60c739d1b402ae0d42b37c66","3krg0x","LG","30","X","{""name"":""Chrome"",""chrome"":true,""version"":""105.0"",""blink"":true,""windows"":true,""osname"":""Windows"",""osversion"":""10"",""a"":true}","1:14:6","1","3","Test_2","74","j","1","610.6000000238419","1220 x 686","1220 x 686","true","1","10","","","","",""
"null","<p style=""font-size: 80px;"">+ 10 points</p>","null","html-keyboard-response","32","690592","0.0-11.0-2.31","60c739d1b402ae0d42b37c66","3krg0x","LG","30","X","{""name"":""Chrome"",""chrome"":true,""version"":""105.0"",""blink"":true,""windows"":true,""osname"":""Windows"",""osversion"":""10"",""a"":true}","1:14:6","1","3","Test_4","74","j","1","2002.1000000238419","1220 x 686","1220 x 686","true","1","10","","","","",""
"null","<p style=""font-size: 80px;"">+ 10 points</p>","null","html-keyboard-response","33","693443","0.0-11.0-2.32","60c739d1b402ae0d42b37c66","3krg0x","LG","30","X","{""name"":""Chrome"",""chrome"":true,""version"":""105.0"",""blink"":true,""windows"":true,""osname"":""Windows"",""osversion"":""10"",""a"":true}","1:14:6","1","3","Test_1","70","f","1","839.6999999880791","1220 x 686","1220 x 686","true","1","10","","","","",""
"null","<p style=""font-size: 80px;"">+ 10 points</p>","null","html-keyboard-response","34","696815","0.0-11.0-2.33","60c739d1b402ae0d42b37c66","3krg0x","LG","30","X","{""name"":""Chrome"",""chrome"":true,""version"":""105.0"",""blink"":true,""windows"":true,""osname"":""Windows"",""osversion"":""10"",""a"":true}","1:14:6","1","3","Test_2","74","j","1","1361.0999999642372","1220 x 686","1220 x 686","true","1","10","","","","",""
"null","<p style=""font-size: 80px;"">+ 10 points</p>","null","html-keyboard-response","35","700576","0.0-11.0-2.34","60c739d1b402ae0d42b37c66","3krg0x","LG","30","X","{""name"":""Chrome"",""chrome"":true,""version"":""105.0"",""blink"":true,""windows"":true,""osname"":""Windows"",""osversion"":""10"",""a"":true}","1:14:6","1","3","Test_1","70","f","1","1740.5","1220 x 686","1220 x 686","true","1","10","","","","",""
"null","<p style=""font-size: 80px;"">+ 10 points</p>","null","html-keyboard-response","36","703546","0.0-11.0-2.35","60c739d1b402ae0d42b37c66","3krg0x","LG","30","X","{""name"":""Chrome"",""chrome"":true,""version"":""105.0"",""blink"":true,""windows"":true,""osname"":""Windows"",""osversion"":""10"",""a"":true}","1:14:6","1","3","Test_4","74","j","1","951.6999999880791","1220 x 686","1220 x 686","true","1","10","","","","",""
"null","<p style=""font-size: 80px;"">+ 10 points</p>","null","html-keyboard-response","37","706415","0.0-11.0-2.36","60c739d1b402ae0d42b37c66","3krg0x","LG","30","X","{""name"":""Chrome"",""chrome"":true,""version"":""105.0"",""blink"":true,""windows"":true,""osname"":""Windows"",""osversion"":""10"",""a"":true}","1:14:6","1","3","Test_1","70","f","1","851.3999999761581","1220 x 686","1220 x 686","true","1","10","","","","",""
"null","<p style=""font-size: 80px;"">+ 10 points</p>","null","html-keyboard-response","38","709266","0.0-11.0-2.37","60c739d1b402ae0d42b37c66","3krg0x","LG","30","X","{""name"":""Chrome"",""chrome"":true,""version"":""105.0"",""blink"":true,""windows"":true,""osname"":""Windows"",""osversion"":""10"",""a"":true}","1:14:6","1","3","Test_4","74","j","1","845.5","1220 x 686","1220 x 686","true","1","10","","","","",""
"null","<p style=""font-size: 80px;"">+ 10 points</p>","null","html-keyboard-response","39","712276","0.0-11.0-2.38","60c739d1b402ae0d42b37c66","3krg0x","LG","30","X","{""name"":""Chrome"",""chrome"":true,""version"":""105.0"",""blink"":true,""windows"":true,""osname"":""Windows"",""osversion"":""10"",""a"":true}","1:14:6","1","3","Test_3","70","f","1","989.2999999523163","1220 x 686","1220 x 686","true","1","10","","","","",""
"null","<p style=""font-size: 80px;"">+ 10 points</p>","null","html-keyboard-response","40","715078","0.0-11.0-2.39","60c739d1b402ae0d42b37c66","3krg0x","LG","30","X","{""name"":""Chrome"",""chrome"":true,""version"":""105.0"",""blink"":true,""windows"":true,""osname"":""Windows"",""osversion"":""10"",""a"":true}","1:14:6","1","3","Test_3","70","f","1","790.3999999761581","1220 x 686","1220 x 686","true","1","10","","","","",""
"null","<p style=""font-size: 80px;"">+ 10 points</p>","null","html-keyboard-response","41","717992","0.0-11.0-2.40","60c739d1b402ae0d42b37c66","3krg0x","LG","30","X","{""name"":""Chrome"",""chrome"":true,""version"":""105.0"",""blink"":true,""windows"":true,""osname"":""Windows"",""osversion"":""10"",""a"":true}","1:14:6","1","3","Test_2","74","j","1","899.8000000119209","1220 x 686","1220 x 686","true","1","10","","","","",""
"null","<p style=""font-size: 80px;"">+ 0 points</p>","null","html-keyboard-response","42","720794","0.0-11.0-2.41","60c739d1b402ae0d42b37c66","3krg0x","LG","30","X","{""name"":""Chrome"",""chrome"":true,""version"":""105.0"",""blink"":true,""windows"":true,""osname"":""Windows"",""osversion"":""10"",""a"":true}","1:14:6","1","4","Test_2","74","f","0","783","1220 x 686","1220 x 686","true","1","0","","","","",""
"null","<p style=""font-size: 80px;"">+ 10 points</p>","null","html-keyboard-response","43","723810","0.0-11.0-2.42","60c739d1b402ae0d42b37c66","3krg0x","LG","30","X","{""name"":""Chrome"",""chrome"":true,""version"":""105.0"",""blink"":true,""windows"":true,""osname"":""Windows"",""osversion"":""10"",""a"":true}","1:14:6","1","4","Test_3","74","j","1","1008.0999999642372","1220 x 686","1220 x 686","true","1","10","","","","",""
"null","<p style=""font-size: 80px;"">+ 10 points</p>","null","html-keyboard-response","44","726545","0.0-11.0-2.43","60c739d1b402ae0d42b37c66","3krg0x","LG","30","X","{""name"":""Chrome"",""chrome"":true,""version"":""105.0"",""blink"":true,""windows"":true,""osname"":""Windows"",""osversion"":""10"",""a"":true}","1:14:6","1","4","Test_3","74","j","1","719.3999999761581","1220 x 686","1220 x 686","true","1","10","","","","",""
"null","<p style=""font-size: 80px;"">+ 0 points</p>","null","html-keyboard-response","45","729860","0.0-11.0-2.44","60c739d1b402ae0d42b37c66","3krg0x","LG","30","X","{""name"":""Chrome"",""chrome"":true,""version"":""105.0"",""blink"":true,""windows"":true,""osname"":""Windows"",""osversion"":""10"",""a"":true}","1:14:6","1","4","Test_1","70","j","0","1295.199999988079","1220 x 686","1220 x 686","true","1","0","","","","",""
"null","<p style=""font-size: 80px;"">+ 10 points</p>","null","html-keyboard-response","46","733319","0.0-11.0-2.45","60c739d1b402ae0d42b37c66","3krg0x","LG","30","X","{""name"":""Chrome"",""chrome"":true,""version"":""105.0"",""blink"":true,""windows"":true,""osname"":""Windows"",""osversion"":""10"",""a"":true}","1:14:6","1","4","Test_2","70","f","1","1442.5","1220 x 686","1220 x 686","true","1","10","","","","",""
"null","<p style=""font-size: 80px;"">+ 10 points</p>","null","html-keyboard-response","47","736770","0.0-11.0-2.46","60c739d1b402ae0d42b37c66","3krg0x","LG","30","X","{""name"":""Chrome"",""chrome"":true,""version"":""105.0"",""blink"":true,""windows"":true,""osname"":""Windows"",""osversion"":""10"",""a"":true}","1:14:6","1","4","Test_4","70","f","1","1441.7000000476837","1220 x 686","1220 x 686","true","1","10","","","","",""
"null","<p style=""font-size: 80px;"">+ 10 points</p>","null","html-keyboard-response","48","739458","0.0-11.0-2.47","60c739d1b402ae0d42b37c66","3krg0x","LG","30","X","{""name"":""Chrome"",""chrome"":true,""version"":""105.0"",""blink"":true,""windows"":true,""osname"":""Windows"",""osversion"":""10"",""a"":true}","1:14:6","1","4","Test_4","70","f","1","680.1000000238419","1220 x 686","1220 x 686","true","1","10","","","","",""
"null","<p style=""font-size: 80px;"">+ 10 points</p>","null","html-keyboard-response","49","742861","0.0-11.0-2.48","60c739d1b402ae0d42b37c66","3krg0x","LG","30","X","{""name"":""Chrome"",""chrome"":true,""version"":""105.0"",""blink"":true,""windows"":true,""osname"":""Windows"",""osversion"":""10"",""a"":true}","1:14:6","1","4","Test_4","70","f","1","1391.699999988079","1220 x 686","1220 x 686","true","1","10","","","","",""
"null","<p style=""font-size: 80px;"">+ 10 points</p>","null","html-keyboard-response","50","746100","0.0-11.0-2.49","60c739d1b402ae0d42b37c66","3krg0x","LG","30","X","{""name"":""Chrome"",""chrome"":true,""version"":""105.0"",""blink"":true,""windows"":true,""osname"":""Windows"",""osversion"":""10"",""a"":true}","1:14:6","1","4","Test_3","74","j","1","1221.3999999761581","1220 x 686","1220 x 686","true","1","10","","","","",""
"null","<p style=""font-size: 80px;"">+ 10 points</p>","null","html-keyboard-response","51","748815","0.0-11.0-2.50","60c739d1b402ae0d42b37c66","3krg0x","LG","30","X","{""name"":""Chrome"",""chrome"":true,""version"":""105.0"",""blink"":true,""windows"":true,""osname"":""Windows"",""osversion"":""10"",""a"":true}","1:14:6","1","4","Test_3","74","j","1","694.6999999880791","1220 x 686","1220 x 686","true","1","10","","","","",""
"null","<p style=""font-size: 80px;"">+ 10 points</p>","null","html-keyboard-response","52","753007","0.0-11.0-2.51","60c739d1b402ae0d42b37c66","3krg0x","LG","30","X","{""name"":""Chrome"",""chrome"":true,""version"":""105.0"",""blink"":true,""windows"":true,""osname"":""Windows"",""osversion"":""10"",""a"":true}","1:14:6","1","4","Test_4","70","f","1","2181.699999988079","1220 x 686","1220 x 686","true","1","10","","","","",""
"null","<p style=""font-size: 80px;"">+ 10 points</p>","null","html-keyboard-response","53","755930","0.0-11.0-2.52","60c739d1b402ae0d42b37c66","3krg0x","LG","30","X","{""name"":""Chrome"",""chrome"":true,""version"":""105.0"",""blink"":true,""windows"":true,""osname"":""Windows"",""osversion"":""10"",""a"":true}","1:14:6","1","4","Test_1","74","j","1","911.1000000238419","1220 x 686","1220 x 686","true","1","10","","","","",""
"null","<p style=""font-size: 80px;"">+ 10 points</p>","null","html-keyboard-response","54","758956","0.0-11.0-2.53","60c739d1b402ae0d42b37c66","3krg0x","LG","30","X","{""name"":""Chrome"",""chrome"":true,""version"":""105.0"",""blink"":true,""windows"":true,""osname"":""Windows"",""osversion"":""10"",""a"":true}","1:14:6","1","4","Test_1","74","j","1","1009.5","1220 x 686","1220 x 686","true","1","10","","","","",""
"null","<p style=""font-size: 80px;"">+ 10 points</p>","null","html-keyboard-response","55","762006","0.0-11.0-2.54","60c739d1b402ae0d42b37c66","3krg0x","LG","30","X","{""name"":""Chrome"",""chrome"":true,""version"":""105.0"",""blink"":true,""windows"":true,""osname"":""Windows"",""osversion"":""10"",""a"":true}","1:14:6","1","4","Test_1","74","j","1","1037.699999988079","1220 x 686","1220 x 686","true","1","10","","","","",""
"null","<p style=""font-size: 80px;"">+ 10 points</p>","null","html-keyboard-response","56","765167","0.0-11.0-2.55","60c739d1b402ae0d42b37c66","3krg0x","LG","30","X","{""name"":""Chrome"",""chrome"":true,""version"":""105.0"",""blink"":true,""windows"":true,""osname"":""Windows"",""osversion"":""10"",""a"":true}","1:14:6","1","4","Test_2","70","f","1","1140.7000000476837","1220 x 686","1220 x 686","true","1","10","","","","",""
"null","<p style=""font-size: 80px;"">+ 0 points</p>","null","html-keyboard-response","57","768342","0.0-11.0-2.56","60c739d1b402ae0d42b37c66","3krg0x","LG","30","X","{""name"":""Chrome"",""chrome"":true,""version"":""105.0"",""blink"":true,""windows"":true,""osname"":""Windows"",""osversion"":""10"",""a"":true}","1:14:6","1","3","Test_1","74","f","0","1152.199999988079","1220 x 686","1220 x 686","true","1","0","","","","",""
"null","<p style=""font-size: 80px;"">+ 10 points</p>","null","html-keyboard-response","58","772484","0.0-11.0-2.57","60c739d1b402ae0d42b37c66","3krg0x","LG","30","X","{""name"":""Chrome"",""chrome"":true,""version"":""105.0"",""blink"":true,""windows"":true,""osname"":""Windows"",""osversion"":""10"",""a"":true}","1:14:6","1","3","Test_1","70","f","1","2133.2999999523163","1220 x 686","1220 x 686","true","1","10","","","","",""
"null","<p style=""font-size: 80px;"">+ 10 points</p>","null","html-keyboard-response","59","775587","0.0-11.0-2.58","60c739d1b402ae0d42b37c66","3krg0x","LG","30","X","{""name"":""Chrome"",""chrome"":true,""version"":""105.0"",""blink"":true,""windows"":true,""osname"":""Windows"",""osversion"":""10"",""a"":true}","1:14:6","1","3","Test_2","74","j","1","1093.1000000238419","1220 x 686","1220 x 686","true","1","10","","","","",""
"null","<p style=""font-size: 80px;"">+ 10 points</p>","null","html-keyboard-response","60","778538","0.0-11.0-2.59","60c739d1b402ae0d42b37c66","3krg0x","LG","30","X","{""name"":""Chrome"",""chrome"":true,""version"":""105.0"",""blink"":true,""windows"":true,""osname"":""Windows"",""osversion"":""10"",""a"":true}","1:14:6","1","3","Test_3","70","f","1","943.5999999642372","1220 x 686","1220 x 686","true","1","10","","","","",""
"null","<p style=""font-size: 80px;"">+ 10 points</p>","null","html-keyboard-response","61","781899","0.0-11.0-2.60","60c739d1b402ae0d42b37c66","3krg0x","LG","30","X","{""name"":""Chrome"",""chrome"":true,""version"":""105.0"",""blink"":true,""windows"":true,""osname"":""Windows"",""osversion"":""10"",""a"":true}","1:14:6","1","3","Test_2","74","j","1","1338","1220 x 686","1220 x 686","true","1","10","","","","",""
"null","<p style=""font-size: 80px;"">+ 10 points</p>","null","html-keyboard-response","62","784607","0.0-11.0-2.61","60c739d1b402ae0d42b37c66","3krg0x","LG","30","X","{""name"":""Chrome"",""chrome"":true,""version"":""105.0"",""blink"":true,""windows"":true,""osname"":""Windows"",""osversion"":""10"",""a"":true}","1:14:6","1","3","Test_2","74","j","1","688.5","1220 x 686","1220 x 686","true","1","10","","","","",""
"null","<p style=""font-size: 80px;"">+ 10 points</p>","null","html-keyboard-response","63","788182","0.0-11.0-2.62","60c739d1b402ae0d42b37c66","3krg0x","LG","30","X","{""name"":""Chrome"",""chrome"":true,""version"":""105.0"",""blink"":true,""windows"":true,""osname"":""Windows"",""osversion"":""10"",""a"":true}","1:14:6","1","3","Test_4","74","j","1","1556.5","1220 x 686","1220 x 686","true","1","10","","","","",""
"null","<p style=""font-size: 80px;"">+ 10 points</p>","null","html-keyboard-response","64","790919","0.0-11.0-2.63","60c739d1b402ae0d42b37c66","3krg0x","LG","30","X","{""name"":""Chrome"",""chrome"":true,""version"":""105.0"",""blink"":true,""windows"":true,""osname"":""Windows"",""osversion"":""10"",""a"":true}","1:14:6","1","3","Test_3","70","f","1","729.8999999761581","1220 x 686","1220 x 686","true","1","10","","","","",""
"null","<p style=""font-size: 80px;"">+ 10 points</p>","null","html-keyboard-response","65","793919","0.0-11.0-2.64","60c739d1b402ae0d42b37c66","3krg0x","LG","30","X","{""name"":""Chrome"",""chrome"":true,""version"":""105.0"",""blink"":true,""windows"":true,""osname"":""Windows"",""osversion"":""10"",""a"":true}","1:14:6","1","3","Test_1","70","f","1","987.3999999761581","1220 x 686","1220 x 686","true","1","10","","","","",""
"null","<p style=""font-size: 80px;"">+ 10 points</p>","null","html-keyboard-response","66","796538","0.0-11.0-2.65","60c739d1b402ae0d42b37c66","3krg0x","LG","30","X","{""name"":""Chrome"",""chrome"":true,""version"":""105.0"",""blink"":true,""windows"":true,""osname"":""Windows"",""osversion"":""10"",""a"":true}","1:14:6","1","3","Test_1","70","f","1","596.2999999523163","1220 x 686","1220 x 686","true","1","10","","","","",""
"null","<p style=""font-size: 80px;"">+ 10 points</p>","null","html-keyboard-response","67","799715","0.0-11.0-2.66","60c739d1b402ae0d42b37c66","3krg0x","LG","30","X","{""name"":""Chrome"",""chrome"":true,""version"":""105.0"",""blink"":true,""windows"":true,""osname"":""Windows"",""osversion"":""10"",""a"":true}","1:14:6","1","3","Test_3","70","f","1","1157.300000011921","1220 x 686","1220 x 686","true","1","10","","","","",""
"null","<p style=""font-size: 80px;"">+ 10 points</p>","null","html-keyboard-response","68","802838","0.0-11.0-2.67","60c739d1b402ae0d42b37c66","3krg0x","LG","30","X","{""name"":""Chrome"",""chrome"":true,""version"":""105.0"",""blink"":true,""windows"":true,""osname"":""Windows"",""osversion"":""10"",""a"":true}","1:14:6","1","3","Test_2","74","j","1","1111.0999999642372","1220 x 686","1220 x 686","true","1","10","","","","",""
"null","<p style=""font-size: 80px;"">+ 10 points</p>","null","html-keyboard-response","69","806058","0.0-11.0-2.68","60c739d1b402ae0d42b37c66","3krg0x","LG","30","X","{""name"":""Chrome"",""chrome"":true,""version"":""105.0"",""blink"":true,""windows"":true,""osname"":""Windows"",""osversion"":""10"",""a"":true}","1:14:6","1","3","Test_4","74","j","1","1208.0999999642372","1220 x 686","1220 x 686","true","1","10","","","","",""
"null","<p style=""font-size: 80px;"">+ 10 points</p>","null","html-keyboard-response","70","809029","0.0-11.0-2.69","60c739d1b402ae0d42b37c66","3krg0x","LG","30","X","{""name"":""Chrome"",""chrome"":true,""version"":""105.0"",""blink"":true,""windows"":true,""osname"":""Windows"",""osversion"":""10"",""a"":true}","1:14:6","1","3","Test_2","74","j","1","952.4000000357628","1220 x 686","1220 x 686","true","1","10","","","","",""
"null","<p style=""font-size: 80px;"">+ 10 points</p>","null","html-keyboard-response","71","812522","0.0-11.0-2.70","60c739d1b402ae0d42b37c66","3krg0x","LG","30","X","{""name"":""Chrome"",""chrome"":true,""version"":""105.0"",""blink"":true,""windows"":true,""osname"":""Windows"",""osversion"":""10"",""a"":true}","1:14:6","1","3","Test_2","74","j","1","1474.8999999761581","1220 x 686","1220 x 686","true","1","10","","","","",""
"null","<p style=""font-size: 80px;"">+ 10 points</p>","null","html-keyboard-response","72","815455","0.0-11.0-2.71","60c739d1b402ae0d42b37c66","3krg0x","LG","30","X","{""name"":""Chrome"",""chrome"":true,""version"":""105.0"",""blink"":true,""windows"":true,""osname"":""Windows"",""osversion"":""10"",""a"":true}","1:14:6","1","3","Test_3","70","f","1","905.3000000119209","1220 x 686","1220 x 686","true","1","10","","","","",""
"null","<p style=""font-size: 80px;"">+ 10 points</p>","null","html-keyboard-response","73","819136","0.0-11.0-2.72","60c739d1b402ae0d42b37c66","3krg0x","LG","30","X","{""name"":""Chrome"",""chrome"":true,""version"":""105.0"",""blink"":true,""windows"":true,""osname"":""Windows"",""osversion"":""10"",""a"":true}","1:14:6","1","3","Test_4","74","j","1","1669.5999999642372","1220 x 686","1220 x 686","true","1","10","","","","",""
"null","<p style=""font-size: 80px;"">+ 10 points</p>","null","html-keyboard-response","74","821832","0.0-11.0-2.73","60c739d1b402ae0d42b37c66","3krg0x","LG","30","X","{""name"":""Chrome"",""chrome"":true,""version"":""105.0"",""blink"":true,""windows"":true,""osname"":""Windows"",""osversion"":""10"",""a"":true}","1:14:6","1","3","Test_3","70","f","1","681.0999999642372","1220 x 686","1220 x 686","true","1","10","","","","",""
"null","<p style=""font-size: 80px;"">+ 10 points</p>","null","html-keyboard-response","75","824595","0.0-11.0-2.74","60c739d1b402ae0d42b37c66","3krg0x","LG","30","X","{""name"":""Chrome"",""chrome"":true,""version"":""105.0"",""blink"":true,""windows"":true,""osname"":""Windows"",""osversion"":""10"",""a"":true}","1:14:6","1","3","Test_4","74","j","1","756.1999999880791","1220 x 686","1220 x 686","true","1","10","","","","",""
"null","<p style=""font-size: 80px;"">+ 0 points</p>","null","html-keyboard-response","76","828146","0.0-11.0-2.75","60c739d1b402ae0d42b37c66","3krg0x","LG","30","X","{""name"":""Chrome"",""chrome"":true,""version"":""105.0"",""blink"":true,""windows"":true,""osname"":""Windows"",""osversion"":""10"",""a"":true}","1:14:6","1","3","Test_1","74","f","0","1520.0999999642372","1220 x 686","1220 x 686","true","1","0","","","","",""
"null","<p style=""font-size: 80px;"">+ 10 points</p>","null","html-keyboard-response","77","830599","0.0-11.0-2.76","60c739d1b402ae0d42b37c66","3krg0x","LG","30","X","{""name"":""Chrome"",""chrome"":true,""version"":""105.0"",""blink"":true,""windows"":true,""osname"":""Windows"",""osversion"":""10"",""a"":true}","1:14:6","1","3","Test_3","70","f","1","439.5","1220 x 686","1220 x 686","true","1","10","","","","",""
"null","<p style=""font-size: 80px;"">+ 10 points</p>","null","html-keyboard-response","78","833311","0.0-11.0-2.77","60c739d1b402ae0d42b37c66","3krg0x","LG","30","X","{""name"":""Chrome"",""chrome"":true,""version"":""105.0"",""blink"":true,""windows"":true,""osname"":""Windows"",""osversion"":""10"",""a"":true}","1:14:6","1","3","Test_4","74","j","1","693.9000000357628","1220 x 686","1220 x 686","true","1","10","","","","",""
"null","<p style=""font-size: 80px;"">+ 0 points</p>","null","html-keyboard-response","79","836526","0.0-11.0-2.78","60c739d1b402ae0d42b37c66","3krg0x","LG","30","X","{""name"":""Chrome"",""chrome"":true,""version"":""105.0"",""blink"":true,""windows"":true,""osname"":""Windows"",""osversion"":""10"",""a"":true}","1:14:6","1","4","Test_1","70","j","0","1206.5","1220 x 686","1220 x 686","true","1","0","","","","",""
"null","<p style=""font-size: 80px;"">+ 0 points</p>","null","html-keyboard-response","80","839450","0.0-11.0-2.79","60c739d1b402ae0d42b37c66","3krg0x","LG","30","X","{""name"":""Chrome"",""chrome"":true,""version"":""105.0"",""blink"":true,""windows"":true,""osname"":""Windows"",""osversion"":""10"",""a"":true}","1:14:6","1","4","Test_3","70","j","0","917.6999999880791","1220 x 686","1220 x 686","true","1","0","","","","",""
"null","<p style=""font-size: 80px;"">+ 0 points</p>","null","html-keyboard-response","81","842846","0.0-11.0-2.80","60c739d1b402ae0d42b37c66","3krg0x","LG","30","X","{""name"":""Chrome"",""chrome"":true,""version"":""105.0"",""blink"":true,""windows"":true,""osname"":""Windows"",""osversion"":""10"",""a"":true}","1:14:6","1","4","Test_4","74","f","0","1373.1000000238419","1220 x 686","1220 x 686","true","1","0","","","","",""
"null","<p style=""font-size: 80px;"">+ 10 points</p>","null","html-keyboard-response","82","846077","0.0-11.0-2.81","60c739d1b402ae0d42b37c66","3krg0x","LG","30","X","{""name"":""Chrome"",""chrome"":true,""version"":""105.0"",""blink"":true,""windows"":true,""osname"":""Windows"",""osversion"":""10"",""a"":true}","1:14:6","1","4","Test_3","74","j","1","1197.9000000357628","1220 x 686","1220 x 686","true","1","10","","","","",""
"null","<p style=""font-size: 80px;"">+ 10 points</p>","null","html-keyboard-response","83","850500","0.0-11.0-2.82","60c739d1b402ae0d42b37c66","3krg0x","LG","30","X","{""name"":""Chrome"",""chrome"":true,""version"":""105.0"",""blink"":true,""windows"":true,""osname"":""Windows"",""osversion"":""10"",""a"":true}","1:14:6","1","4","Test_4","70","f","1","2406","1220 x 686","1220 x 686","true","1","10","","","","",""
"null","<p style=""font-size: 80px;"">+ 10 points</p>","null","html-keyboard-response","84","853754","0.0-11.0-2.83","60c739d1b402ae0d42b37c66","3krg0x","LG","30","X","{""name"":""Chrome"",""chrome"":true,""version"":""105.0"",""blink"":true,""windows"":true,""osname"":""Windows"",""osversion"":""10"",""a"":true}","1:14:6","1","4","Test_1","74","j","1","1242.5999999642372","1220 x 686","1220 x 686","true","1","10","","","","",""
"null","<p style=""font-size: 80px;"">+ 10 points</p>","null","html-keyboard-response","85","857219","0.0-11.0-2.84","60c739d1b402ae0d42b37c66","3krg0x","LG","30","X","{""name"":""Chrome"",""chrome"":true,""version"":""105.0"",""blink"":true,""windows"":true,""osname"":""Windows"",""osversion"":""10"",""a"":true}","1:14:6","1","4","Test_4","70","f","1","1456","1220 x 686","1220 x 686","true","1","10","","","","",""
"null","<p style=""font-size: 80px;"">+ 10 points</p>","null","html-keyboard-response","86","860452","0.0-11.0-2.85","60c739d1b402ae0d42b37c66","3krg0x","LG","30","X","{""name"":""Chrome"",""chrome"":true,""version"":""105.0"",""blink"":true,""windows"":true,""osname"":""Windows"",""osversion"":""10"",""a"":true}","1:14:6","1","4","Test_2","70","f","1","1217.1000000238419","1220 x 686","1220 x 686","true","1","10","","","","",""
"null","<p style=""font-size: 80px;"">+ 10 points</p>","null","html-keyboard-response","87","863520","0.0-11.0-2.86","60c739d1b402ae0d42b37c66","3krg0x","LG","30","X","{""name"":""Chrome"",""chrome"":true,""version"":""105.0"",""blink"":true,""windows"":true,""osname"":""Windows"",""osversion"":""10"",""a"":true}","1:14:6","1","4","Test_2","70","f","1","1054.0999999642372","1220 x 686","1220 x 686","true","1","10","","","","",""
"null","<p style=""font-size: 80px;"">+ 10 points</p>","null","html-keyboard-response","88","866661","0.0-11.0-2.87","60c739d1b402ae0d42b37c66","3krg0x","LG","30","X","{""name"":""Chrome"",""chrome"":true,""version"":""105.0"",""blink"":true,""windows"":true,""osname"":""Windows"",""osversion"":""10"",""a"":true}","1:14:6","1","4","Test_1","74","j","1","1133.4000000357628","1220 x 686","1220 x 686","true","1","10","","","","",""
"null","<p style=""font-size: 80px;"">+ 0 points</p>","null","html-keyboard-response","89","869720","0.0-11.0-2.88","60c739d1b402ae0d42b37c66","3krg0x","LG","30","X","{""name"":""Chrome"",""chrome"":true,""version"":""105.0"",""blink"":true,""windows"":true,""osname"":""Windows"",""osversion"":""10"",""a"":true}","1:14:6","1","4","Test_2","74","f","0","1050.300000011921","1220 x 686","1220 x 686","true","1","0","","","","",""
"null","<p style=""font-size: 80px;"">+ 10 points</p>","null","html-keyboard-response","90","873268","0.0-11.0-2.89","60c739d1b402ae0d42b37c66","3krg0x","LG","30","X","{""name"":""Chrome"",""chrome"":true,""version"":""105.0"",""blink"":true,""windows"":true,""osname"":""Windows"",""osversion"":""10"",""a"":true}","1:14:6","1","4","Test_1","74","j","1","1528.4000000357628","1220 x 686","1220 x 686","true","1","10","","","","",""
"null","<p style=""font-size: 80px;"">+ 10 points</p>","null","html-keyboard-response","91","876466","0.0-11.0-2.90","60c739d1b402ae0d42b37c66","3krg0x","LG","30","X","{""name"":""Chrome"",""chrome"":true,""version"":""105.0"",""blink"":true,""windows"":true,""osname"":""Windows"",""osversion"":""10"",""a"":true}","1:14:6","1","4","Test_4","70","f","1","1180.6000000238419","1220 x 686","1220 x 686","true","1","10","","","","",""
"null","<p style=""font-size: 80px;"">+ 10 points</p>","null","html-keyboard-response","92","879677","0.0-11.0-2.91","60c739d1b402ae0d42b37c66","3krg0x","LG","30","X","{""name"":""Chrome"",""chrome"":true,""version"":""105.0"",""blink"":true,""windows"":true,""osname"":""Windows"",""osversion"":""10"",""a"":true}","1:14:6","1","4","Test_1","74","j","1","1188.699999988079","1220 x 686","1220 x 686","true","1","10","","","","",""
"null","<p style=""font-size: 80px;"">+ 10 points</p>","null","html-keyboard-response","93","883402","0.0-11.0-2.92","60c739d1b402ae0d42b37c66","3krg0x","LG","30","X","{""name"":""Chrome"",""chrome"":true,""version"":""105.0"",""blink"":true,""windows"":true,""osname"":""Windows"",""osversion"":""10"",""a"":true}","1:14:6","1","4","Test_4","70","f","1","1709.5","1220 x 686","1220 x 686","true","1","10","","","","",""
"null","<p style=""font-size: 80px;"">+ 10 points</p>","null","html-keyboard-response","94","886546","0.0-11.0-2.93","60c739d1b402ae0d42b37c66","3krg0x","LG","30","X","{""name"":""Chrome"",""chrome"":true,""version"":""105.0"",""blink"":true,""windows"":true,""osname"":""Windows"",""osversion"":""10"",""a"":true}","1:14:6","1","4","Test_3","74","j","1","1138","1220 x 686","1220 x 686","true","1","10","","","","",""
"null","<p style=""font-size: 80px;"">+ 0 points</p>","null","html-keyboard-response","95","889554","0.0-11.0-2.94","60c739d1b402ae0d42b37c66","3krg0x","LG","30","X","{""name"":""Chrome"",""chrome"":true,""version"":""105.0"",""blink"":true,""windows"":true,""osname"":""Windows"",""osversion"":""10"",""a"":true}","1:14:6","1","4","Test_2","74","f","0","985.8999999761581","1220 x 686","1220 x 686","true","1","0","","","","",""
"null","<p style=""font-size: 80px;"">+ 10 points</p>","null","html-keyboard-response","96","892232","0.0-11.0-2.95","60c739d1b402ae0d42b37c66","3krg0x","LG","30","X","{""name"":""Chrome"",""chrome"":true,""version"":""105.0"",""blink"":true,""windows"":true,""osname"":""Windows"",""osversion"":""10"",""a"":true}","1:14:6","1","4","Test_2","70","f","1","663.1000000238419","1220 x 686","1220 x 686","true","1","10","","","","",""
"null","<p style=""font-size: 80px;"">+ 10 points</p>","null","html-keyboard-response","97","895050","0.0-11.0-2.96","60c739d1b402ae0d42b37c66","3krg0x","LG","30","X","{""name"":""Chrome"",""chrome"":true,""version"":""105.0"",""blink"":true,""windows"":true,""osname"":""Windows"",""osversion"":""10"",""a"":true}","1:14:6","1","4","Test_3","74","j","1","796.5","1220 x 686","1220 x 686","true","1","10","","","","",""
"null","<p style=""font-size: 80px;"">+ 0 points</p>","null","html-keyboard-response","98","899658","0.0-11.0-2.97","60c739d1b402ae0d42b37c66","3krg0x","LG","30","X","{""name"":""Chrome"",""chrome"":true,""version"":""105.0"",""blink"":true,""windows"":true,""osname"":""Windows"",""osversion"":""10"",""a"":true}","1:14:6","1","3","Test_1","74","f","0","2597.600000023842","1220 x 686","1220 x 686","true","1","0","","","","",""
"null","<p style=""font-size: 80px;"">+ 10 points</p>","null","html-keyboard-response","99","903012","0.0-11.0-2.98","60c739d1b402ae0d42b37c66","3krg0x","LG","30","X","{""name"":""Chrome"",""chrome"":true,""version"":""105.0"",""blink"":true,""windows"":true,""osname"":""Windows"",""osversion"":""10"",""a"":true}","1:14:6","1","3","Test_4","74","j","1","1349.6000000238419","1220 x 686","1220 x 686","true","1","10","","","","",""
"null","<p style=""font-size: 80px;"">+ 10 points</p>","null","html-keyboard-response","100","906109","0.0-11.0-2.99","60c739d1b402ae0d42b37c66","3krg0x","LG","30","X","{""name"":""Chrome"",""chrome"":true,""version"":""105.0"",""blink"":true,""windows"":true,""osname"":""Windows"",""osversion"":""10"",""a"":true}","1:14:6","1","3","Test_3","70","f","1","1077","1220 x 686","1220 x 686","true","1","10","","","","",""
"null","<p style=""font-size: 80px;"">+ 10 points</p>","null","html-keyboard-response","101","909302","0.0-11.0-2.100","60c739d1b402ae0d42b37c66","3krg0x","LG","30","X","{""name"":""Chrome"",""chrome"":true,""version"":""105.0"",""blink"":true,""windows"":true,""osname"":""Windows"",""osversion"":""10"",""a"":true}","1:14:6","1","3","Test_1","70","f","1","1172.4000000357628","1220 x 686","1220 x 686","true","1","10","","","","",""
"null","<p style=""font-size: 80px;"">+ 10 points</p>","null","html-keyboard-response","102","913144","0.0-11.0-2.101","60c739d1b402ae0d42b37c66","3krg0x","LG","30","X","{""name"":""Chrome"",""chrome"":true,""version"":""105.0"",""blink"":true,""windows"":true,""osname"":""Windows"",""osversion"":""10"",""a"":true}","1:14:6","1","3","Test_3","70","f","1","1821.699999988079","1220 x 686","1220 x 686","true","1","10","","","","",""
"null","<p style=""font-size: 80px;"">+ 10 points</p>","null","html-keyboard-response","103","916934","0.0-11.0-2.102","60c739d1b402ae0d42b37c66","3krg0x","LG","30","X","{""name"":""Chrome"",""chrome"":true,""version"":""105.0"",""blink"":true,""windows"":true,""osname"":""Windows"",""osversion"":""10"",""a"":true}","1:14:6","1","3","Test_2","74","j","1","1773.800000011921","1220 x 686","1220 x 686","true","1","10","","","","",""
"null","<p style=""font-size: 80px;"">+ 10 points</p>","null","html-keyboard-response","104","920034","0.0-11.0-2.103","60c739d1b402ae0d42b37c66","3krg0x","LG","30","X","{""name"":""Chrome"",""chrome"":true,""version"":""105.0"",""blink"":true,""windows"":true,""osname"":""Windows"",""osversion"":""10"",""a"":true}","1:14:6","1","3","Test_2","74","j","1","1087.5","1220 x 686","1220 x 686","true","1","10","","","","",""
"null","<p style=""font-size: 80px;"">+ 10 points</p>","null","html-keyboard-response","105","922901","0.0-11.0-2.104","60c739d1b402ae0d42b37c66","3krg0x","LG","30","X","{""name"":""Chrome"",""chrome"":true,""version"":""105.0"",""blink"":true,""windows"":true,""osname"":""Windows"",""osversion"":""10"",""a"":true}","1:14:6","1","3","Test_3","70","f","1","847","1220 x 686","1220 x 686","true","1","10","","","","",""
"null","<p style=""font-size: 80px;"">+ 10 points</p>","null","html-keyboard-response","106","925873","0.0-11.0-2.105","60c739d1b402ae0d42b37c66","3krg0x","LG","30","X","{""name"":""Chrome"",""chrome"":true,""version"":""105.0"",""blink"":true,""windows"":true,""osname"":""Windows"",""osversion"":""10"",""a"":true}","1:14:6","1","3","Test_4","74","j","1","959.3000000119209","1220 x 686","1220 x 686","true","1","10","","","","",""
"null","<p style=""font-size: 80px;"">+ 10 points</p>","null","html-keyboard-response","107","928562","0.0-11.0-2.106","60c739d1b402ae0d42b37c66","3krg0x","LG","30","X","{""name"":""Chrome"",""chrome"":true,""version"":""105.0"",""blink"":true,""windows"":true,""osname"":""Windows"",""osversion"":""10"",""a"":true}","1:14:6","1","3","Test_4","74","j","1","677.1000000238419","1220 x 686","1220 x 686","true","1","10","","","","",""
"null","<p style=""font-size: 80px;"">+ 10 points</p>","null","html-keyboard-response","108","931431","0.0-11.0-2.107","60c739d1b402ae0d42b37c66","3krg0x","LG","30","X","{""name"":""Chrome"",""chrome"":true,""version"":""105.0"",""blink"":true,""windows"":true,""osname"":""Windows"",""osversion"":""10"",""a"":true}","1:14:6","1","3","Test_2","74","j","1","851.8999999761581","1220 x 686","1220 x 686","true","1","10","","","","",""
"null","<p style=""font-size: 80px;"">+ 10 points</p>","null","html-keyboard-response","109","934122","0.0-11.0-2.108","60c739d1b402ae0d42b37c66","3krg0x","LG","30","X","{""name"":""Chrome"",""chrome"":true,""version"":""105.0"",""blink"":true,""windows"":true,""osname"":""Windows"",""osversion"":""10"",""a"":true}","1:14:6","1","3","Test_4","74","j","1","680.5","1220 x 686","1220 x 686","true","1","10","","","","",""
"null","<p style=""font-size: 80px;"">+ 10 points</p>","null","html-keyboard-response","110","1076491","0.0-11.0-2.109","60c739d1b402ae0d42b37c66","3krg0x","LG","30","X","{""name"":""Chrome"",""chrome"":true,""version"":""105.0"",""blink"":true,""windows"":true,""osname"":""Windows"",""osversion"":""10"",""a"":true}","1:14:6","1","3","Test_3","70","f","1","1539","1220 x 686","1220 x 686","true","1","10","","","","",""
"null","<p style=""font-size: 80px;"">+ 10 points</p>","null","html-keyboard-response","111","1079200","0.0-11.0-2.110","60c739d1b402ae0d42b37c66","3krg0x","LG","30","X","{""name"":""Chrome"",""chrome"":true,""version"":""105.0"",""blink"":true,""windows"":true,""osname"":""Windows"",""osversion"":""10"",""a"":true}","1:14:6","1","3","Test_4","74","j","1","691.4000000357628","1220 x 686","1220 x 686","true","1","10","","","","",""
"null","<p style=""font-size: 80px;"">+ 10 points</p>","null","html-keyboard-response","112","1082581","0.0-11.0-2.111","60c739d1b402ae0d42b37c66","3krg0x","LG","30","X","{""name"":""Chrome"",""chrome"":true,""version"":""105.0"",""blink"":true,""windows"":true,""osname"":""Windows"",""osversion"":""10"",""a"":true}","1:14:6","1","3","Test_1","70","f","1","1369","1220 x 686","1220 x 686","true","1","10","","","","",""
"null","<p style=""font-size: 80px;"">+ 10 points</p>","null","html-keyboard-response","113","1085093","0.0-11.0-2.112","60c739d1b402ae0d42b37c66","3krg0x","LG","30","X","{""name"":""Chrome"",""chrome"":true,""version"":""105.0"",""blink"":true,""windows"":true,""osname"":""Windows"",""osversion"":""10"",""a"":true}","1:14:6","1","3","Test_2","74","j","1","491.19999998807907","1220 x 686","1220 x 686","true","1","10","","","","",""
"null","<p style=""font-size: 80px;"">+ 10 points</p>","null","html-keyboard-response","114","1087784","0.0-11.0-2.113","60c739d1b402ae0d42b37c66","3krg0x","LG","30","X","{""name"":""Chrome"",""chrome"":true,""version"":""105.0"",""blink"":true,""windows"":true,""osname"":""Windows"",""osversion"":""10"",""a"":true}","1:14:6","1","3","Test_3","70","f","1","672.4000000357628","1220 x 686","1220 x 686","true","1","10","","","","",""
"null","<p style=""font-size: 80px;"">+ 10 points</p>","null","html-keyboard-response","115","1090571","0.0-11.0-2.114","60c739d1b402ae0d42b37c66","3krg0x","LG","30","X","{""name"":""Chrome"",""chrome"":true,""version"":""105.0"",""blink"":true,""windows"":true,""osname"":""Windows"",""osversion"":""10"",""a"":true}","1:14:6","1","3","Test_2","74","j","1","774.7999999523163","1220 x 686","1220 x 686","true","1","10","","","","",""
"null","<p style=""font-size: 80px;"">+ 10 points</p>","null","html-keyboard-response","116","1093223","0.0-11.0-2.115","60c739d1b402ae0d42b37c66","3krg0x","LG","30","X","{""name"":""Chrome"",""chrome"":true,""version"":""105.0"",""blink"":true,""windows"":true,""osname"":""Windows"",""osversion"":""10"",""a"":true}","1:14:6","1","3","Test_2","74","j","1","635.1999999880791","1220 x 686","1220 x 686","true","1","10","","","","",""
"null","<p style=""font-size: 80px;"">+ 10 points</p>","null","html-keyboard-response","117","1096578","0.0-11.0-2.116","60c739d1b402ae0d42b37c66","3krg0x","LG","30","X","{""name"":""Chrome"",""chrome"":true,""version"":""105.0"",""blink"":true,""windows"":true,""osname"":""Windows"",""osversion"":""10"",""a"":true}","1:14:6","1","3","Test_4","74","j","1","1345.699999988079","1220 x 686","1220 x 686","true","1","10","","","","",""
"null","<p style=""font-size: 80px;"">+ 10 points</p>","null","html-keyboard-response","118","1099455","0.0-11.0-2.117","60c739d1b402ae0d42b37c66","3krg0x","LG","30","X","{""name"":""Chrome"",""chrome"":true,""version"":""105.0"",""blink"":true,""windows"":true,""osname"":""Windows"",""osversion"":""10"",""a"":true}","1:14:6","1","3","Test_1","70","f","1","853.5","1220 x 686","1220 x 686","true","1","10","","","","",""
"null","<p style=""font-size: 80px;"">+ 10 points</p>","null","html-keyboard-response","119","1102257","0.0-11.0-2.118","60c739d1b402ae0d42b37c66","3krg0x","LG","30","X","{""name"":""Chrome"",""chrome"":true,""version"":""105.0"",""blink"":true,""windows"":true,""osname"":""Windows"",""osversion"":""10"",""a"":true}","1:14:6","1","3","Test_1","70","f","1","779.1000000238419","1220 x 686","1220 x 686","true","1","10","","","","",""
"null","<p style=""font-size: 80px;"">+ 0 points</p>","null","html-keyboard-response","120","1105102","0.0-11.0-2.119","60c739d1b402ae0d42b37c66","3krg0x","LG","30","X","{""name"":""Chrome"",""chrome"":true,""version"":""105.0"",""blink"":true,""windows"":true,""osname"":""Windows"",""osversion"":""10"",""a"":true}","1:14:6","1","4","Test_3","70","j","0","825.9000000357628","1220 x 686","1220 x 686","true","1","0","","","","",""
"null","<p style=""font-size: 80px;"">+ 10 points</p>","null","html-keyboard-response","121","1108009","0.0-11.0-2.120","60c739d1b402ae0d42b37c66","3krg0x","LG","30","X","{""name"":""Chrome"",""chrome"":true,""version"":""105.0"",""blink"":true,""windows"":true,""osname"":""Windows"",""osversion"":""10"",""a"":true}","1:14:6","1","4","Test_4","70","f","1","890","1220 x 686","1220 x 686","true","1","10","","","","",""
"null","<p style=""font-size: 80px;"">+ 10 points</p>","null","html-keyboard-response","122","1111069","0.0-11.0-2.121","60c739d1b402ae0d42b37c66","3krg0x","LG","30","X","{""name"":""Chrome"",""chrome"":true,""version"":""105.0"",""blink"":true,""windows"":true,""osname"":""Windows"",""osversion"":""10"",""a"":true}","1:14:6","1","4","Test_1","74","j","1","1032.7000000476837","1220 x 686","1220 x 686","true","1","10","","","","",""
"null","<p style=""font-size: 80px;"">+ 10 points</p>","null","html-keyboard-response","123","1114267","0.0-11.0-2.122","60c739d1b402ae0d42b37c66","3krg0x","LG","30","X","{""name"":""Chrome"",""chrome"":true,""version"":""105.0"",""blink"":true,""windows"":true,""osname"":""Windows"",""osversion"":""10"",""a"":true}","1:14:6","1","4","Test_2","70","f","1","1177.4000000357628","1220 x 686","1220 x 686","true","1","10","","","","",""
"null","<p style=""font-size: 80px;"">+ 10 points</p>","null","html-keyboard-response","124","1116835","0.0-11.0-2.123","60c739d1b402ae0d42b37c66","3krg0x","LG","30","X","{""name"":""Chrome"",""chrome"":true,""version"":""105.0"",""blink"":true,""windows"":true,""osname"":""Windows"",""osversion"":""10"",""a"":true}","1:14:6","1","4","Test_3","74","j","1","544.1000000238419","1220 x 686","1220 x 686","true","1","10","","","","",""
"null","<p style=""font-size: 80px;"">+ 10 points</p>","null","html-keyboard-response","125","1119992","0.0-11.0-2.124","60c739d1b402ae0d42b37c66","3krg0x","LG","30","X","{""name"":""Chrome"",""chrome"":true,""version"":""105.0"",""blink"":true,""windows"":true,""osname"":""Windows"",""osversion"":""10"",""a"":true}","1:14:6","1","4","Test_1","74","j","1","1141.9000000357628","1220 x 686","1220 x 686","true","1","10","","","","",""
"null","<p style=""font-size: 80px;"">+ 10 points</p>","null","html-keyboard-response","126","1123593","0.0-11.0-2.125","60c739d1b402ae0d42b37c66","3krg0x","LG","30","X","{""name"":""Chrome"",""chrome"":true,""version"":""105.0"",""blink"":true,""windows"":true,""osname"":""Windows"",""osversion"":""10"",""a"":true}","1:14:6","1","4","Test_1","74","j","1","1581.9000000357628","1220 x 686","1220 x 686","true","1","10","","","","",""
"null","<p style=""font-size: 80px;"">+ 10 points</p>","null","html-keyboard-response","127","1126236","0.0-11.0-2.126","60c739d1b402ae0d42b37c66","3krg0x","LG","30","X","{""name"":""Chrome"",""chrome"":true,""version"":""105.0"",""blink"":true,""windows"":true,""osname"":""Windows"",""osversion"":""10"",""a"":true}","1:14:6","1","4","Test_1","74","j","1","624.7999999523163","1220 x 686","1220 x 686","true","1","10","","","","",""
"null","<p style=""font-size: 80px;"">+ 10 points</p>","null","html-keyboard-response","128","1129226","0.0-11.0-2.127","60c739d1b402ae0d42b37c66","3krg0x","LG","30","X","{""name"":""Chrome"",""chrome"":true,""version"":""105.0"",""blink"":true,""windows"":true,""osname"":""Windows"",""osversion"":""10"",""a"":true}","1:14:6","1","4","Test_2","70","f","1","970.6000000238419","1220 x 686","1220 x 686","true","1","10","","","","",""
"null","<p style=""font-size: 80px;"">+ 10 points</p>","null","html-keyboard-response","129","1132339","0.0-11.0-2.128","60c739d1b402ae0d42b37c66","3krg0x","LG","30","X","{""name"":""Chrome"",""chrome"":true,""version"":""105.0"",""blink"":true,""windows"":true,""osname"":""Windows"",""osversion"":""10"",""a"":true}","1:14:6","1","4","Test_4","70","f","1","1100.5999999642372","1220 x 686","1220 x 686","true","1","10","","","","",""
"null","<p style=""font-size: 80px;"">+ 10 points</p>","null","html-keyboard-response","130","1135972","0.0-11.0-2.129","60c739d1b402ae0d42b37c66","3krg0x","LG","30","X","{""name"":""Chrome"",""chrome"":true,""version"":""105.0"",""blink"":true,""windows"":true,""osname"":""Windows"",""osversion"":""10"",""a"":true}","1:14:6","1","4","Test_4","70","f","1","1620.800000011921","1220 x 686","1220 x 686","true","1","10","","","","",""
"null","<p style=""font-size: 80px;"">+ 10 points</p>","null","html-keyboard-response","131","1138940","0.0-11.0-2.130","60c739d1b402ae0d42b37c66","3krg0x","LG","30","X","{""name"":""Chrome"",""chrome"":true,""version"":""105.0"",""blink"":true,""windows"":true,""osname"":""Windows"",""osversion"":""10"",""a"":true}","1:14:6","1","4","Test_3","74","j","1","949.8999999761581","1220 x 686","1220 x 686","true","1","10","","","","",""
"null","<p style=""font-size: 80px;"">+ 10 points</p>","null","html-keyboard-response","132","1142045","0.0-11.0-2.131","60c739d1b402ae0d42b37c66","3krg0x","LG","30","X","{""name"":""Chrome"",""chrome"":true,""version"":""105.0"",""blink"":true,""windows"":true,""osname"":""Windows"",""osversion"":""10"",""a"":true}","1:14:6","1","4","Test_3","74","j","1","1094.5","1220 x 686","1220 x 686","true","1","10","","","","",""
"null","<p style=""font-size: 80px;"">+ 10 points</p>","null","html-keyboard-response","133","1144969","0.0-11.0-2.132","60c739d1b402ae0d42b37c66","3krg0x","LG","30","X","{""name"":""Chrome"",""chrome"":true,""version"":""105.0"",""blink"":true,""windows"":true,""osname"":""Windows"",""osversion"":""10"",""a"":true}","1:14:6","1","4","Test_4","70","f","1","906.5","1220 x 686","1220 x 686","true","1","10","","","","",""
"null","<p style=""font-size: 80px;"">+ 10 points</p>","null","html-keyboard-response","134","1147999","0.0-11.0-2.133","60c739d1b402ae0d42b37c66","3krg0x","LG","30","X","{""name"":""Chrome"",""chrome"":true,""version"":""105.0"",""blink"":true,""windows"":true,""osname"":""Windows"",""osversion"":""10"",""a"":true}","1:14:6","1","4","Test_1","74","j","1","1012.6999999880791","1220 x 686","1220 x 686","true","1","10","","","","",""
"null","<p style=""font-size: 80px;"">+ 10 points</p>","null","html-keyboard-response","135","1151146","0.0-11.0-2.134","60c739d1b402ae0d42b37c66","3krg0x","LG","30","X","{""name"":""Chrome"",""chrome"":true,""version"":""105.0"",""blink"":true,""windows"":true,""osname"":""Windows"",""osversion"":""10"",""a"":true}","1:14:6","1","4","Test_2","70","f","1","1135.5","1220 x 686","1220 x 686","true","1","10","","","","",""
"null","<p style=""font-size: 80px;"">+ 10 points</p>","null","html-keyboard-response","136","1154350","0.0-11.0-2.135","60c739d1b402ae0d42b37c66","3krg0x","LG","30","X","{""name"":""Chrome"",""chrome"":true,""version"":""105.0"",""blink"":true,""windows"":true,""osname"":""Windows"",""osversion"":""10"",""a"":true}","1:14:6","1","4","Test_4","70","f","1","1176.8999999761581","1220 x 686","1220 x 686","true","1","10","","","","",""
"null","<p style=""font-size: 80px;"">+ 0 points</p>","null","html-keyboard-response","137","1157170","0.0-11.0-2.136","60c739d1b402ae0d42b37c66","3krg0x","LG","30","X","{""name"":""Chrome"",""chrome"":true,""version"":""105.0"",""blink"":true,""windows"":true,""osname"":""Windows"",""osversion"":""10"",""a"":true}","1:14:6","1","3","Test_4","70","j","0","812.3999999761581","1220 x 686","1220 x 686","true","1","0","","","","",""
"null","<p style=""font-size: 80px;"">+ 10 points</p>","null","html-keyboard-response","138","1160199","0.0-11.0-2.137","60c739d1b402ae0d42b37c66","3krg0x","LG","30","X","{""name"":""Chrome"",""chrome"":true,""version"":""105.0"",""blink"":true,""windows"":true,""osname"":""Windows"",""osversion"":""10"",""a"":true}","1:14:6","1","3","Test_4","74","j","1","1016.8000000119209","1220 x 686","1220 x 686","true","1","10","","","","",""
"null","<p style=""font-size: 80px;"">+ 10 points</p>","null","html-keyboard-response","139","1163969","0.0-11.0-2.138","60c739d1b402ae0d42b37c66","3krg0x","LG","30","X","{""name"":""Chrome"",""chrome"":true,""version"":""105.0"",""blink"":true,""windows"":true,""osname"":""Windows"",""osversion"":""10"",""a"":true}","1:14:6","1","3","Test_3","70","f","1","1759","1220 x 686","1220 x 686","true","1","10","","","","",""
"null","<p style=""font-size: 80px;"">+ 10 points</p>","null","html-keyboard-response","140","1166982","0.0-11.0-2.139","60c739d1b402ae0d42b37c66","3krg0x","LG","30","X","{""name"":""Chrome"",""chrome"":true,""version"":""105.0"",""blink"":true,""windows"":true,""osname"":""Windows"",""osversion"":""10"",""a"":true}","1:14:6","1","3","Test_2","74","j","1","1007","1220 x 686","1220 x 686","true","1","10","","","","",""
"null","<p style=""font-size: 80px;"">+ 10 points</p>","null","html-keyboard-response","141","1169985","0.0-11.0-2.140","60c739d1b402ae0d42b37c66","3krg0x","LG","30","X","{""name"":""Chrome"",""chrome"":true,""version"":""105.0"",""blink"":true,""windows"":true,""osname"":""Windows"",""osversion"":""10"",""a"":true}","1:14:6","1","3","Test_3","70","f","1","991.3999999761581","1220 x 686","1220 x 686","true","1","10","","","","",""
"null","<p style=""font-size: 80px;"">+ 10 points</p>","null","html-keyboard-response","142","1172916","0.0-11.0-2.141","60c739d1b402ae0d42b37c66","3krg0x","LG","30","X","{""name"":""Chrome"",""chrome"":true,""version"":""105.0"",""blink"":true,""windows"":true,""osname"":""Windows"",""osversion"":""10"",""a"":true}","1:14:6","1","3","Test_2","74","j","1","915.6999999880791","1220 x 686","1220 x 686","true","1","10","","","","",""
"null","<p style=""font-size: 80px;"">+ 10 points</p>","null","html-keyboard-response","143","1176040","0.0-11.0-2.142","60c739d1b402ae0d42b37c66","3krg0x","LG","30","X","{""name"":""Chrome"",""chrome"":true,""version"":""105.0"",""blink"":true,""windows"":true,""osname"":""Windows"",""osversion"":""10"",""a"":true}","1:14:6","1","3","Test_4","74","j","1","1106.300000011921","1220 x 686","1220 x 686","true","1","10","","","","",""
"null","<p style=""font-size: 80px;"">+ 10 points</p>","null","html-keyboard-response","144","1179275","0.0-11.0-2.143","60c739d1b402ae0d42b37c66","3krg0x","LG","30","X","{""name"":""Chrome"",""chrome"":true,""version"":""105.0"",""blink"":true,""windows"":true,""osname"":""Windows"",""osversion"":""10"",""a"":true}","1:14:6","1","3","Test_2","74","j","1","1220.800000011921","1220 x 686","1220 x 686","true","1","10","","","","",""
"null","<p style=""font-size: 80px;"">+ 10 points</p>","null","html-keyboard-response","145","1182231","0.0-11.0-2.144","60c739d1b402ae0d42b37c66","3krg0x","LG","30","X","{""name"":""Chrome"",""chrome"":true,""version"":""105.0"",""blink"":true,""windows"":true,""osname"":""Windows"",""osversion"":""10"",""a"":true}","1:14:6","1","3","Test_1","70","f","1","940.5999999642372","1220 x 686","1220 x 686","true","1","10","","","","",""
"null","<p style=""font-size: 80px;"">+ 10 points</p>","null","html-keyboard-response","146","1185126","0.0-11.0-2.145","60c739d1b402ae0d42b37c66","3krg0x","LG","30","X","{""name"":""Chrome"",""chrome"":true,""version"":""105.0"",""blink"":true,""windows"":true,""osname"":""Windows"",""osversion"":""10"",""a"":true}","1:14:6","1","3","Test_3","70","f","1","885.6000000238419","1220 x 686","1220 x 686","true","1","10","","","","",""
"null","<p style=""font-size: 80px;"">+ 10 points</p>","null","html-keyboard-response","147","1188369","0.0-11.0-2.146","60c739d1b402ae0d42b37c66","3krg0x","LG","30","X","{""name"":""Chrome"",""chrome"":true,""version"":""105.0"",""blink"":true,""windows"":true,""osname"":""Windows"",""osversion"":""10"",""a"":true}","1:14:6","1","3","Test_1","70","f","1","1232.800000011921","1220 x 686","1220 x 686","true","1","10","","","","",""
"null","<p style=""font-size: 80px;"">+ 10 points</p>","null","html-keyboard-response","148","1191372","0.0-11.0-2.147","60c739d1b402ae0d42b37c66","3krg0x","LG","30","X","{""name"":""Chrome"",""chrome"":true,""version"":""105.0"",""blink"":true,""windows"":true,""osname"":""Windows"",""osversion"":""10"",""a"":true}","1:14:6","1","3","Test_4","74","j","1","995.1000000238419","1220 x 686","1220 x 686","true","1","10","","","","",""
