"rt","stimulus","key_press","trial_type","trial_index","time_elapsed","internal_node_id","Prolific_ID","random_ID","initials","age","gender","pc_info","start_time","Phase","Rule","Stimulus","Response","CorrResp","Accuracy","ResponseTime","screen_resolution","window_resolution","focus","relevant","Points","responses","question_order","rev_check","butterfly_check","passed_practice"
"null","<p style=""font-size: 80px;"">+ 0 points</p>","null","html-keyboard-response","1","45398","0.0-7.0-2.0","5f5b8a0de610d92df74219d7","lxmzmw","HGB","29","F","{""name"":""Chrome"",""chrome"":true,""version"":""105.0"",""blink"":true,""mac"":true,""osname"":""macOS"",""osversion"":""10.15.7"",""a"":true}","9:17:56","0","1","Practice_4","70","j","0","953.8000000119209","1792 x 1120","1792 x 1041","true","1","0","","","","",""
"null","<p style=""font-size: 80px;"">+ 10 points</p>","null","html-keyboard-response","2","48202","0.0-7.0-2.1","5f5b8a0de610d92df74219d7","lxmzmw","HGB","29","F","{""name"":""Chrome"",""chrome"":true,""version"":""105.0"",""blink"":true,""mac"":true,""osname"":""macOS"",""osversion"":""10.15.7"",""a"":true}","9:17:56","0","1","Practice_3","70","f","1","791.6999999880791","1792 x 1120","1792 x 1041","true","1","10","","","","",""
"null","<p style=""font-size: 80px;"">+ 10 points</p>","null","html-keyboard-response","3","50758","0.0-7.0-2.2","5f5b8a0de610d92df74219d7","lxmzmw","HGB","29","F","{""name"":""Chrome"",""chrome"":true,""version"":""105.0"",""blink"":true,""mac"":true,""osname"":""macOS"",""osversion"":""10.15.7"",""a"":true}","9:17:56","0","1","Practice_4","74","j","1","545.3000000119209","1792 x 1120","1792 x 1041","true","1","10","","","","",""
"null","<p style=""font-size: 80px;"">+ 10 points</p>","null","html-keyboard-response","4","53508","0.0-7.0-2.3","5f5b8a0de610d92df74219d7","lxmzmw","HGB","29","F","{""name"":""Chrome"",""chrome"":true,""version"":""105.0"",""blink"":true,""mac"":true,""osname"":""macOS"",""osversion"":""10.15.7"",""a"":true}","9:17:56","0","1","Practice_1","70","f","1","741.1999999880791","1792 x 1120","1792 x 1041","true","1","10","","","","",""
"null","<p style=""font-size: 80px;"">+ 10 points</p>","null","html-keyboard-response","5","56473","0.0-7.0-2.4","5f5b8a0de610d92df74219d7","lxmzmw","HGB","29","F","{""name"":""Chrome"",""chrome"":true,""version"":""105.0"",""blink"":true,""mac"":true,""osname"":""macOS"",""osversion"":""10.15.7"",""a"":true}","9:17:56","0","1","Practice_4","74","j","1","954.8999999761581","1792 x 1120","1792 x 1041","true","1","10","","","","",""
"null","<p style=""font-size: 80px;"">+ 10 points</p>","null","html-keyboard-response","6","59063","0.0-7.0-2.5","5f5b8a0de610d92df74219d7","lxmzmw","HGB","29","F","{""name"":""Chrome"",""chrome"":true,""version"":""105.0"",""blink"":true,""mac"":true,""osname"":""macOS"",""osversion"":""10.15.7"",""a"":true}","9:17:56","0","1","Practice_1","70","f","1","584.8999999761581","1792 x 1120","1792 x 1041","true","1","10","","","","",""
"null","<p style=""font-size: 80px;"">+ 10 points</p>","null","html-keyboard-response","7","64159","0.0-7.0-2.6","5f5b8a0de610d92df74219d7","lxmzmw","HGB","29","F","{""name"":""Chrome"",""chrome"":true,""version"":""105.0"",""blink"":true,""mac"":true,""osname"":""macOS"",""osversion"":""10.15.7"",""a"":true}","9:17:56","0","1","Practice_3","70","f","1","3088.5","1792 x 1120","1792 x 1041","true","1","10","","","","",""
"null","<p style=""font-size: 80px;"">+ 10 points</p>","null","html-keyboard-response","8","66788","0.0-7.0-2.7","5f5b8a0de610d92df74219d7","lxmzmw","HGB","29","F","{""name"":""Chrome"",""chrome"":true,""version"":""105.0"",""blink"":true,""mac"":true,""osname"":""macOS"",""osversion"":""10.15.7"",""a"":true}","9:17:56","0","1","Practice_4","74","j","1","619.4000000357628","1792 x 1120","1792 x 1041","true","1","10","","","","",""
"null","<p style=""font-size: 80px;"">+ 10 points</p>","null","html-keyboard-response","9","69821","0.0-7.0-2.8","5f5b8a0de610d92df74219d7","lxmzmw","HGB","29","F","{""name"":""Chrome"",""chrome"":true,""version"":""105.0"",""blink"":true,""mac"":true,""osname"":""macOS"",""osversion"":""10.15.7"",""a"":true}","9:17:56","0","1","Practice_2","74","j","1","1023.8000000119209","1792 x 1120","1792 x 1041","true","1","10","","","","",""
"null","<p style=""font-size: 80px;"">+ 10 points</p>","null","html-keyboard-response","10","72477","0.0-7.0-2.9","5f5b8a0de610d92df74219d7","lxmzmw","HGB","29","F","{""name"":""Chrome"",""chrome"":true,""version"":""105.0"",""blink"":true,""mac"":true,""osname"":""macOS"",""osversion"":""10.15.7"",""a"":true}","9:17:56","0","1","Practice_1","70","f","1","649.2999999523163","1792 x 1120","1792 x 1041","true","1","10","","","","",""
"null","<p style=""font-size: 80px;"">+ 10 points</p>","null","html-keyboard-response","11","75268","0.0-7.0-2.10","5f5b8a0de610d92df74219d7","lxmzmw","HGB","29","F","{""name"":""Chrome"",""chrome"":true,""version"":""105.0"",""blink"":true,""mac"":true,""osname"":""macOS"",""osversion"":""10.15.7"",""a"":true}","9:17:56","0","1","Practice_2","74","j","1","782.1999999880791","1792 x 1120","1792 x 1041","true","1","10","","","","",""
"null","<p style=""font-size: 80px;"">+ 10 points</p>","null","html-keyboard-response","12","78680","0.0-7.0-2.11","5f5b8a0de610d92df74219d7","lxmzmw","HGB","29","F","{""name"":""Chrome"",""chrome"":true,""version"":""105.0"",""blink"":true,""mac"":true,""osname"":""macOS"",""osversion"":""10.15.7"",""a"":true}","9:17:56","0","1","Practice_3","70","f","1","1402","1792 x 1120","1792 x 1041","true","1","10","","","","",""
"null","<p style=""font-size: 80px;"">+ 10 points</p>","null","html-keyboard-response","13","81235","0.0-7.0-2.12","5f5b8a0de610d92df74219d7","lxmzmw","HGB","29","F","{""name"":""Chrome"",""chrome"":true,""version"":""105.0"",""blink"":true,""mac"":true,""osname"":""macOS"",""osversion"":""10.15.7"",""a"":true}","9:17:56","0","1","Practice_1","70","f","1","546.7999999523163","1792 x 1120","1792 x 1041","true","1","10","","","","",""
"null","<p style=""font-size: 80px;"">+ 10 points</p>","null","html-keyboard-response","14","84025","0.0-7.0-2.13","5f5b8a0de610d92df74219d7","lxmzmw","HGB","29","F","{""name"":""Chrome"",""chrome"":true,""version"":""105.0"",""blink"":true,""mac"":true,""osname"":""macOS"",""osversion"":""10.15.7"",""a"":true}","9:17:56","0","1","Practice_3","70","f","1","780.1000000238419","1792 x 1120","1792 x 1041","true","1","10","","","","",""
"null","<p style=""font-size: 80px;"">+ 10 points</p>","null","html-keyboard-response","15","87060","0.0-7.0-2.14","5f5b8a0de610d92df74219d7","lxmzmw","HGB","29","F","{""name"":""Chrome"",""chrome"":true,""version"":""105.0"",""blink"":true,""mac"":true,""osname"":""macOS"",""osversion"":""10.15.7"",""a"":true}","9:17:56","0","1","Practice_2","74","j","1","1026.9000000357628","1792 x 1120","1792 x 1041","true","1","10","","","","",""
"null","<p style=""font-size: 80px;"">+ 10 points</p>","null","html-keyboard-response","16","89491","0.0-7.0-2.15","5f5b8a0de610d92df74219d7","lxmzmw","HGB","29","F","{""name"":""Chrome"",""chrome"":true,""version"":""105.0"",""blink"":true,""mac"":true,""osname"":""macOS"",""osversion"":""10.15.7"",""a"":true}","9:17:56","0","1","Practice_1","70","f","1","424.9000000357628","1792 x 1120","1792 x 1041","true","1","10","","","","",""
"null","<p style=""font-size: 80px;"">+ 10 points</p>","null","html-keyboard-response","17","92383","0.0-7.0-2.16","5f5b8a0de610d92df74219d7","lxmzmw","HGB","29","F","{""name"":""Chrome"",""chrome"":true,""version"":""105.0"",""blink"":true,""mac"":true,""osname"":""macOS"",""osversion"":""10.15.7"",""a"":true}","9:17:56","0","1","Practice_2","74","j","1","883.3000000119209","1792 x 1120","1792 x 1041","true","1","10","","","","",""
"null","<p style=""font-size: 80px;"">+ 10 points</p>","null","html-keyboard-response","18","94957","0.0-7.0-2.17","5f5b8a0de610d92df74219d7","lxmzmw","HGB","29","F","{""name"":""Chrome"",""chrome"":true,""version"":""105.0"",""blink"":true,""mac"":true,""osname"":""macOS"",""osversion"":""10.15.7"",""a"":true}","9:17:56","0","1","Practice_3","70","f","1","568.3999999761581","1792 x 1120","1792 x 1041","true","1","10","","","","",""
"null","<p style=""font-size: 80px;"">+ 10 points</p>","null","html-keyboard-response","19","98404","0.0-7.0-2.18","5f5b8a0de610d92df74219d7","lxmzmw","HGB","29","F","{""name"":""Chrome"",""chrome"":true,""version"":""105.0"",""blink"":true,""mac"":true,""osname"":""macOS"",""osversion"":""10.15.7"",""a"":true}","9:17:56","0","1","Practice_4","74","j","1","1437.800000011921","1792 x 1120","1792 x 1041","true","1","10","","","","",""
"null","<p style=""font-size: 80px;"">+ 10 points</p>","null","html-keyboard-response","20","101145","0.0-7.0-2.19","5f5b8a0de610d92df74219d7","lxmzmw","HGB","29","F","{""name"":""Chrome"",""chrome"":true,""version"":""105.0"",""blink"":true,""mac"":true,""osname"":""macOS"",""osversion"":""10.15.7"",""a"":true}","9:17:56","0","1","Practice_2","74","j","1","731.8000000119209","1792 x 1120","1792 x 1041","true","1","10","","","","",""
"null","<p style=""font-size: 80px;"">+ 0 points</p>","null","html-keyboard-response","21","103753","0.0-7.0-2.20","5f5b8a0de610d92df74219d7","lxmzmw","HGB","29","F","{""name"":""Chrome"",""chrome"":true,""version"":""105.0"",""blink"":true,""mac"":true,""osname"":""macOS"",""osversion"":""10.15.7"",""a"":true}","9:17:56","0","2","Practice_3","70","j","0","601.5","1792 x 1120","1792 x 1041","true","1","0","","","","",""
"null","<p style=""font-size: 80px;"">+ 0 points</p>","null","html-keyboard-response","22","106307","0.0-7.0-2.21","5f5b8a0de610d92df74219d7","lxmzmw","HGB","29","F","{""name"":""Chrome"",""chrome"":true,""version"":""105.0"",""blink"":true,""mac"":true,""osname"":""macOS"",""osversion"":""10.15.7"",""a"":true}","9:17:56","0","2","Practice_1","70","j","0","547","1792 x 1120","1792 x 1041","true","1","0","","","","",""
"null","<p style=""font-size: 80px;"">+ 10 points</p>","null","html-keyboard-response","23","109096","0.0-7.0-2.22","5f5b8a0de610d92df74219d7","lxmzmw","HGB","29","F","{""name"":""Chrome"",""chrome"":true,""version"":""105.0"",""blink"":true,""mac"":true,""osname"":""macOS"",""osversion"":""10.15.7"",""a"":true}","9:17:56","0","2","Practice_4","70","f","1","781.8999999761581","1792 x 1120","1792 x 1041","true","1","10","","","","",""
"null","<p style=""font-size: 80px;"">+ 10 points</p>","null","html-keyboard-response","24","111866","0.0-7.0-2.23","5f5b8a0de610d92df74219d7","lxmzmw","HGB","29","F","{""name"":""Chrome"",""chrome"":true,""version"":""105.0"",""blink"":true,""mac"":true,""osname"":""macOS"",""osversion"":""10.15.7"",""a"":true}","9:17:56","0","2","Practice_2","70","f","1","767.3000000119209","1792 x 1120","1792 x 1041","true","1","10","","","","",""
"null","<p style=""font-size: 80px;"">+ 10 points</p>","null","html-keyboard-response","25","115530","0.0-7.0-2.24","5f5b8a0de610d92df74219d7","lxmzmw","HGB","29","F","{""name"":""Chrome"",""chrome"":true,""version"":""105.0"",""blink"":true,""mac"":true,""osname"":""macOS"",""osversion"":""10.15.7"",""a"":true}","9:17:56","0","2","Practice_2","70","f","1","1657.4000000357628","1792 x 1120","1792 x 1041","true","1","10","","","","",""
"null","<p style=""font-size: 80px;"">+ 10 points</p>","null","html-keyboard-response","26","119319","0.0-7.0-2.25","5f5b8a0de610d92df74219d7","lxmzmw","HGB","29","F","{""name"":""Chrome"",""chrome"":true,""version"":""105.0"",""blink"":true,""mac"":true,""osname"":""macOS"",""osversion"":""10.15.7"",""a"":true}","9:17:56","0","2","Practice_4","70","f","1","1780.8999999761581","1792 x 1120","1792 x 1041","true","1","10","","","","",""
"null","<p style=""font-size: 80px;"">+ 10 points</p>","null","html-keyboard-response","27","122650","0.0-7.0-2.26","5f5b8a0de610d92df74219d7","lxmzmw","HGB","29","F","{""name"":""Chrome"",""chrome"":true,""version"":""105.0"",""blink"":true,""mac"":true,""osname"":""macOS"",""osversion"":""10.15.7"",""a"":true}","9:17:56","0","2","Practice_4","70","f","1","1319.300000011921","1792 x 1120","1792 x 1041","true","1","10","","","","",""
"null","<p style=""font-size: 80px;"">+ 10 points</p>","null","html-keyboard-response","28","125549","0.0-7.0-2.27","5f5b8a0de610d92df74219d7","lxmzmw","HGB","29","F","{""name"":""Chrome"",""chrome"":true,""version"":""105.0"",""blink"":true,""mac"":true,""osname"":""macOS"",""osversion"":""10.15.7"",""a"":true}","9:17:56","0","2","Practice_3","74","j","1","891.1000000238419","1792 x 1120","1792 x 1041","true","1","10","","","","",""
"null","<p style=""font-size: 80px;"">+ 10 points</p>","null","html-keyboard-response","29","129370","0.0-7.0-2.28","5f5b8a0de610d92df74219d7","lxmzmw","HGB","29","F","{""name"":""Chrome"",""chrome"":true,""version"":""105.0"",""blink"":true,""mac"":true,""osname"":""macOS"",""osversion"":""10.15.7"",""a"":true}","9:17:56","0","2","Practice_2","70","f","1","1808.7999999523163","1792 x 1120","1792 x 1041","true","1","10","","","","",""
"null","<p style=""font-size: 80px;"">+ 10 points</p>","null","html-keyboard-response","30","131957","0.0-7.0-2.29","5f5b8a0de610d92df74219d7","lxmzmw","HGB","29","F","{""name"":""Chrome"",""chrome"":true,""version"":""105.0"",""blink"":true,""mac"":true,""osname"":""macOS"",""osversion"":""10.15.7"",""a"":true}","9:17:56","0","2","Practice_1","74","j","1","576.1999999880791","1792 x 1120","1792 x 1041","true","1","10","","","","",""
"null","<p style=""font-size: 80px;"">+ 10 points</p>","null","html-keyboard-response","31","135042","0.0-7.0-2.30","5f5b8a0de610d92df74219d7","lxmzmw","HGB","29","F","{""name"":""Chrome"",""chrome"":true,""version"":""105.0"",""blink"":true,""mac"":true,""osname"":""macOS"",""osversion"":""10.15.7"",""a"":true}","9:17:56","0","2","Practice_2","70","f","1","1077.3999999761581","1792 x 1120","1792 x 1041","true","1","10","","","","",""
"null","<p style=""font-size: 80px;"">+ 10 points</p>","null","html-keyboard-response","32","137792","0.0-7.0-2.31","5f5b8a0de610d92df74219d7","lxmzmw","HGB","29","F","{""name"":""Chrome"",""chrome"":true,""version"":""105.0"",""blink"":true,""mac"":true,""osname"":""macOS"",""osversion"":""10.15.7"",""a"":true}","9:17:56","0","2","Practice_1","74","j","1","743.5999999642372","1792 x 1120","1792 x 1041","true","1","10","","","","",""
"null","<p style=""font-size: 80px;"">+ 0 points</p>","null","html-keyboard-response","33","140377","0.0-7.0-2.32","5f5b8a0de610d92df74219d7","lxmzmw","HGB","29","F","{""name"":""Chrome"",""chrome"":true,""version"":""105.0"",""blink"":true,""mac"":true,""osname"":""macOS"",""osversion"":""10.15.7"",""a"":true}","9:17:56","0","2","Practice_3","70","j","0","580.3000000119209","1792 x 1120","1792 x 1041","true","1","0","","","","",""
"null","<p style=""font-size: 80px;"">+ 10 points</p>","null","html-keyboard-response","34","143207","0.0-7.0-2.33","5f5b8a0de610d92df74219d7","lxmzmw","HGB","29","F","{""name"":""Chrome"",""chrome"":true,""version"":""105.0"",""blink"":true,""mac"":true,""osname"":""macOS"",""osversion"":""10.15.7"",""a"":true}","9:17:56","0","2","Practice_1","74","j","1","819.8000000119209","1792 x 1120","1792 x 1041","true","1","10","","","","",""
"null","<p style=""font-size: 80px;"">+ 10 points</p>","null","html-keyboard-response","35","146631","0.0-7.0-2.34","5f5b8a0de610d92df74219d7","lxmzmw","HGB","29","F","{""name"":""Chrome"",""chrome"":true,""version"":""105.0"",""blink"":true,""mac"":true,""osname"":""macOS"",""osversion"":""10.15.7"",""a"":true}","9:17:56","0","2","Practice_4","70","f","1","1415.800000011921","1792 x 1120","1792 x 1041","true","1","10","","","","",""
"null","<p style=""font-size: 80px;"">+ 0 points</p>","null","html-keyboard-response","36","150372","0.0-7.0-2.35","5f5b8a0de610d92df74219d7","lxmzmw","HGB","29","F","{""name"":""Chrome"",""chrome"":true,""version"":""105.0"",""blink"":true,""mac"":true,""osname"":""macOS"",""osversion"":""10.15.7"",""a"":true}","9:17:56","0","2","Practice_1","70","j","0","1731.199999988079","1792 x 1120","1792 x 1041","true","1","0","","","","",""
"null","<p style=""font-size: 80px;"">+ 10 points</p>","null","html-keyboard-response","37","153268","0.0-7.0-2.36","5f5b8a0de610d92df74219d7","lxmzmw","HGB","29","F","{""name"":""Chrome"",""chrome"":true,""version"":""105.0"",""blink"":true,""mac"":true,""osname"":""macOS"",""osversion"":""10.15.7"",""a"":true}","9:17:56","0","2","Practice_4","70","f","1","887.2999999523163","1792 x 1120","1792 x 1041","true","1","10","","","","",""
"null","<p style=""font-size: 80px; line-height: 1.4em;"">Too late</br> Speed up!</p>","null","html-keyboard-response","38","162643","0.0-7.0-2.37","5f5b8a0de610d92df74219d7","lxmzmw","HGB","29","F","{""name"":""Chrome"",""chrome"":true,""version"":""105.0"",""blink"":true,""mac"":true,""osname"":""macOS"",""osversion"":""10.15.7"",""a"":true}","9:17:56","0","2","Practice_3","null","j","0","null","1792 x 1120","1792 x 1041","false","1","0","","","","",""
"null","<p style=""font-size: 80px; line-height: 1.4em;"">Too late</br> Speed up!</p>","null","html-keyboard-response","39","173078","0.0-7.0-2.38","5f5b8a0de610d92df74219d7","lxmzmw","HGB","29","F","{""name"":""Chrome"",""chrome"":true,""version"":""105.0"",""blink"":true,""mac"":true,""osname"":""macOS"",""osversion"":""10.15.7"",""a"":true}","9:17:56","0","2","Practice_2","null","f","0","null","1792 x 1120","1792 x 1041","false","1","0","","","","",""
"null","<p style=""font-size: 80px; line-height: 1.4em;"">Too late</br> Speed up!</p>","null","html-keyboard-response","40","180646","0.0-7.0-2.39","5f5b8a0de610d92df74219d7","lxmzmw","HGB","29","F","{""name"":""Chrome"",""chrome"":true,""version"":""105.0"",""blink"":true,""mac"":true,""osname"":""macOS"",""osversion"":""10.15.7"",""a"":true}","9:17:56","0","2","Practice_3","null","j","0","null","1792 x 1120","1311 x 898","true","1","0","","","","",""
"50419.5","","","survey-multi-choice","127","231068","0.0-8.0","5f5b8a0de610d92df74219d7","lxmzmw","HGB","29","F","{""name"":""Chrome"",""chrome"":true,""version"":""105.0"",""blink"":true,""mac"":true,""osname"":""macOS"",""osversion"":""10.15.7"",""a"":true}","9:17:56","","","","","","","","","","","1","","{""Q0"":""The red one"",""Q1"":""1""}","[0,1]","1","The red one","2"
"null","<p style=""font-size: 80px;"">+ 0 points</p>","null","html-keyboard-response","1","258725","0.0-11.0-2.0","5f5b8a0de610d92df74219d7","lxmzmw","HGB","29","F","{""name"":""Chrome"",""chrome"":true,""version"":""105.0"",""blink"":true,""mac"":true,""osname"":""macOS"",""osversion"":""10.15.7"",""a"":true}","9:17:56","1","4","Test_1","70","j","0","825.2999999523163","1792 x 1120","1792 x 1041","true","1","0","","","","",""
"null","<p style=""font-size: 80px;"">+ 10 points</p>","null","html-keyboard-response","2","261933","0.0-11.0-2.1","5f5b8a0de610d92df74219d7","lxmzmw","HGB","29","F","{""name"":""Chrome"",""chrome"":true,""version"":""105.0"",""blink"":true,""mac"":true,""osname"":""macOS"",""osversion"":""10.15.7"",""a"":true}","9:17:56","1","4","Test_3","74","j","1","1199.5","1792 x 1120","1792 x 1041","true","1","10","","","","",""
"null","<p style=""font-size: 80px;"">+ 10 points</p>","null","html-keyboard-response","3","264722","0.0-11.0-2.2","5f5b8a0de610d92df74219d7","lxmzmw","HGB","29","F","{""name"":""Chrome"",""chrome"":true,""version"":""105.0"",""blink"":true,""mac"":true,""osname"":""macOS"",""osversion"":""10.15.7"",""a"":true}","9:17:56","1","4","Test_1","74","j","1","783.0999999642372","1792 x 1120","1792 x 1041","true","1","10","","","","",""
"null","<p style=""font-size: 80px;"">+ 10 points</p>","null","html-keyboard-response","4","267411","0.0-11.0-2.3","5f5b8a0de610d92df74219d7","lxmzmw","HGB","29","F","{""name"":""Chrome"",""chrome"":true,""version"":""105.0"",""blink"":true,""mac"":true,""osname"":""macOS"",""osversion"":""10.15.7"",""a"":true}","9:17:56","1","4","Test_3","74","j","1","679.8000000119209","1792 x 1120","1792 x 1041","true","1","10","","","","",""
"null","<p style=""font-size: 80px;"">+ 10 points</p>","null","html-keyboard-response","5","270216","0.0-11.0-2.4","5f5b8a0de610d92df74219d7","lxmzmw","HGB","29","F","{""name"":""Chrome"",""chrome"":true,""version"":""105.0"",""blink"":true,""mac"":true,""osname"":""macOS"",""osversion"":""10.15.7"",""a"":true}","9:17:56","1","4","Test_4","70","f","1","796.1999999880791","1792 x 1120","1792 x 1041","true","1","10","","","","",""
"null","<p style=""font-size: 80px;"">+ 10 points</p>","null","html-keyboard-response","6","274193","0.0-11.0-2.5","5f5b8a0de610d92df74219d7","lxmzmw","HGB","29","F","{""name"":""Chrome"",""chrome"":true,""version"":""105.0"",""blink"":true,""mac"":true,""osname"":""macOS"",""osversion"":""10.15.7"",""a"":true}","9:17:56","1","4","Test_1","74","j","1","1967.1000000238419","1792 x 1120","1792 x 1041","true","1","10","","","","",""
"null","<p style=""font-size: 80px;"">+ 10 points</p>","null","html-keyboard-response","7","277001","0.0-11.0-2.6","5f5b8a0de610d92df74219d7","lxmzmw","HGB","29","F","{""name"":""Chrome"",""chrome"":true,""version"":""105.0"",""blink"":true,""mac"":true,""osname"":""macOS"",""osversion"":""10.15.7"",""a"":true}","9:17:56","1","4","Test_2","70","f","1","797.8999999761581","1792 x 1120","1792 x 1041","true","1","10","","","","",""
"null","<p style=""font-size: 80px;"">+ 10 points</p>","null","html-keyboard-response","8","279677","0.0-11.0-2.7","5f5b8a0de610d92df74219d7","lxmzmw","HGB","29","F","{""name"":""Chrome"",""chrome"":true,""version"":""105.0"",""blink"":true,""mac"":true,""osname"":""macOS"",""osversion"":""10.15.7"",""a"":true}","9:17:56","1","4","Test_3","74","j","1","664","1792 x 1120","1792 x 1041","true","1","10","","","","",""
"null","<p style=""font-size: 80px;"">+ 10 points</p>","null","html-keyboard-response","9","282258","0.0-11.0-2.8","5f5b8a0de610d92df74219d7","lxmzmw","HGB","29","F","{""name"":""Chrome"",""chrome"":true,""version"":""105.0"",""blink"":true,""mac"":true,""osname"":""macOS"",""osversion"":""10.15.7"",""a"":true}","9:17:56","1","4","Test_2","70","f","1","572.8999999761581","1792 x 1120","1792 x 1041","true","1","10","","","","",""
"null","<p style=""font-size: 80px;"">+ 10 points</p>","null","html-keyboard-response","10","285166","0.0-11.0-2.9","5f5b8a0de610d92df74219d7","lxmzmw","HGB","29","F","{""name"":""Chrome"",""chrome"":true,""version"":""105.0"",""blink"":true,""mac"":true,""osname"":""macOS"",""osversion"":""10.15.7"",""a"":true}","9:17:56","1","4","Test_1","74","j","1","898.9000000357628","1792 x 1120","1792 x 1041","true","1","10","","","","",""
"null","<p style=""font-size: 80px;"">+ 10 points</p>","null","html-keyboard-response","11","287591","0.0-11.0-2.10","5f5b8a0de610d92df74219d7","lxmzmw","HGB","29","F","{""name"":""Chrome"",""chrome"":true,""version"":""105.0"",""blink"":true,""mac"":true,""osname"":""macOS"",""osversion"":""10.15.7"",""a"":true}","9:17:56","1","4","Test_2","70","f","1","415","1792 x 1120","1792 x 1041","true","1","10","","","","",""
"null","<p style=""font-size: 80px;"">+ 10 points</p>","null","html-keyboard-response","12","290642","0.0-11.0-2.11","5f5b8a0de610d92df74219d7","lxmzmw","HGB","29","F","{""name"":""Chrome"",""chrome"":true,""version"":""105.0"",""blink"":true,""mac"":true,""osname"":""macOS"",""osversion"":""10.15.7"",""a"":true}","9:17:56","1","4","Test_4","70","f","1","1042","1792 x 1120","1792 x 1041","true","1","10","","","","",""
"null","<p style=""font-size: 80px;"">+ 10 points</p>","null","html-keyboard-response","13","293299","0.0-11.0-2.12","5f5b8a0de610d92df74219d7","lxmzmw","HGB","29","F","{""name"":""Chrome"",""chrome"":true,""version"":""105.0"",""blink"":true,""mac"":true,""osname"":""macOS"",""osversion"":""10.15.7"",""a"":true}","9:17:56","1","4","Test_3","74","j","1","653.5999999642372","1792 x 1120","1792 x 1041","true","1","10","","","","",""
"null","<p style=""font-size: 80px;"">+ 10 points</p>","null","html-keyboard-response","14","296367","0.0-11.0-2.13","5f5b8a0de610d92df74219d7","lxmzmw","HGB","29","F","{""name"":""Chrome"",""chrome"":true,""version"":""105.0"",""blink"":true,""mac"":true,""osname"":""macOS"",""osversion"":""10.15.7"",""a"":true}","9:17:56","1","4","Test_4","70","f","1","1057.699999988079","1792 x 1120","1792 x 1041","true","1","10","","","","",""
"null","<p style=""font-size: 80px;"">+ 10 points</p>","null","html-keyboard-response","15","298883","0.0-11.0-2.14","5f5b8a0de610d92df74219d7","lxmzmw","HGB","29","F","{""name"":""Chrome"",""chrome"":true,""version"":""105.0"",""blink"":true,""mac"":true,""osname"":""macOS"",""osversion"":""10.15.7"",""a"":true}","9:17:56","1","4","Test_2","70","f","1","509.0999999642372","1792 x 1120","1792 x 1041","true","1","10","","","","",""
"null","<p style=""font-size: 80px;"">+ 0 points</p>","null","html-keyboard-response","16","301547","0.0-11.0-2.15","5f5b8a0de610d92df74219d7","lxmzmw","HGB","29","F","{""name"":""Chrome"",""chrome"":true,""version"":""105.0"",""blink"":true,""mac"":true,""osname"":""macOS"",""osversion"":""10.15.7"",""a"":true}","9:17:56","1","3","Test_3","74","f","0","653.6999999880791","1792 x 1120","1792 x 1041","true","1","0","","","","",""
"null","<p style=""font-size: 80px;"">+ 10 points</p>","null","html-keyboard-response","17","304117","0.0-11.0-2.16","5f5b8a0de610d92df74219d7","lxmzmw","HGB","29","F","{""name"":""Chrome"",""chrome"":true,""version"":""105.0"",""blink"":true,""mac"":true,""osname"":""macOS"",""osversion"":""10.15.7"",""a"":true}","9:17:56","1","3","Test_2","74","j","1","565","1792 x 1120","1792 x 1041","true","1","10","","","","",""
"null","<p style=""font-size: 80px;"">+ 10 points</p>","null","html-keyboard-response","18","307128","0.0-11.0-2.17","5f5b8a0de610d92df74219d7","lxmzmw","HGB","29","F","{""name"":""Chrome"",""chrome"":true,""version"":""105.0"",""blink"":true,""mac"":true,""osname"":""macOS"",""osversion"":""10.15.7"",""a"":true}","9:17:56","1","3","Test_1","70","f","1","1002.5","1792 x 1120","1792 x 1041","true","1","10","","","","",""
"null","<p style=""font-size: 80px;"">+ 10 points</p>","null","html-keyboard-response","19","309856","0.0-11.0-2.18","5f5b8a0de610d92df74219d7","lxmzmw","HGB","29","F","{""name"":""Chrome"",""chrome"":true,""version"":""105.0"",""blink"":true,""mac"":true,""osname"":""macOS"",""osversion"":""10.15.7"",""a"":true}","9:17:56","1","3","Test_1","70","f","1","718.6999999880791","1792 x 1120","1792 x 1041","true","1","10","","","","",""
"null","<p style=""font-size: 80px;"">+ 10 points</p>","null","html-keyboard-response","20","312419","0.0-11.0-2.19","5f5b8a0de610d92df74219d7","lxmzmw","HGB","29","F","{""name"":""Chrome"",""chrome"":true,""version"":""105.0"",""blink"":true,""mac"":true,""osname"":""macOS"",""osversion"":""10.15.7"",""a"":true}","9:17:56","1","3","Test_2","74","j","1","550.8999999761581","1792 x 1120","1792 x 1041","true","1","10","","","","",""
"null","<p style=""font-size: 80px;"">+ 10 points</p>","null","html-keyboard-response","21","315371","0.0-11.0-2.20","5f5b8a0de610d92df74219d7","lxmzmw","HGB","29","F","{""name"":""Chrome"",""chrome"":true,""version"":""105.0"",""blink"":true,""mac"":true,""osname"":""macOS"",""osversion"":""10.15.7"",""a"":true}","9:17:56","1","3","Test_2","74","j","1","945.6999999880791","1792 x 1120","1792 x 1041","true","1","10","","","","",""
"null","<p style=""font-size: 80px;"">+ 10 points</p>","null","html-keyboard-response","22","318342","0.0-11.0-2.21","5f5b8a0de610d92df74219d7","lxmzmw","HGB","29","F","{""name"":""Chrome"",""chrome"":true,""version"":""105.0"",""blink"":true,""mac"":true,""osname"":""macOS"",""osversion"":""10.15.7"",""a"":true}","9:17:56","1","3","Test_1","70","f","1","961.1999999880791","1792 x 1120","1792 x 1041","true","1","10","","","","",""
"null","<p style=""font-size: 80px;"">+ 10 points</p>","null","html-keyboard-response","23","321114","0.0-11.0-2.22","5f5b8a0de610d92df74219d7","lxmzmw","HGB","29","F","{""name"":""Chrome"",""chrome"":true,""version"":""105.0"",""blink"":true,""mac"":true,""osname"":""macOS"",""osversion"":""10.15.7"",""a"":true}","9:17:56","1","3","Test_1","70","f","1","760.7000000476837","1792 x 1120","1792 x 1041","true","1","10","","","","",""
"null","<p style=""font-size: 80px;"">+ 10 points</p>","null","html-keyboard-response","24","324423","0.0-11.0-2.23","5f5b8a0de610d92df74219d7","lxmzmw","HGB","29","F","{""name"":""Chrome"",""chrome"":true,""version"":""105.0"",""blink"":true,""mac"":true,""osname"":""macOS"",""osversion"":""10.15.7"",""a"":true}","9:17:56","1","3","Test_4","74","j","1","1303.1000000238419","1792 x 1120","1792 x 1041","true","1","10","","","","",""
"null","<p style=""font-size: 80px;"">+ 10 points</p>","null","html-keyboard-response","25","327164","0.0-11.0-2.24","5f5b8a0de610d92df74219d7","lxmzmw","HGB","29","F","{""name"":""Chrome"",""chrome"":true,""version"":""105.0"",""blink"":true,""mac"":true,""osname"":""macOS"",""osversion"":""10.15.7"",""a"":true}","9:17:56","1","3","Test_1","70","f","1","738.1999999880791","1792 x 1120","1792 x 1041","true","1","10","","","","",""
"null","<p style=""font-size: 80px;"">+ 10 points</p>","null","html-keyboard-response","26","330483","0.0-11.0-2.25","5f5b8a0de610d92df74219d7","lxmzmw","HGB","29","F","{""name"":""Chrome"",""chrome"":true,""version"":""105.0"",""blink"":true,""mac"":true,""osname"":""macOS"",""osversion"":""10.15.7"",""a"":true}","9:17:56","1","3","Test_4","74","j","1","1308.2999999523163","1792 x 1120","1792 x 1041","true","1","10","","","","",""
"null","<p style=""font-size: 80px;"">+ 10 points</p>","null","html-keyboard-response","27","333555","0.0-11.0-2.26","5f5b8a0de610d92df74219d7","lxmzmw","HGB","29","F","{""name"":""Chrome"",""chrome"":true,""version"":""105.0"",""blink"":true,""mac"":true,""osname"":""macOS"",""osversion"":""10.15.7"",""a"":true}","9:17:56","1","3","Test_2","74","j","1","1067.2000000476837","1792 x 1120","1792 x 1041","true","1","10","","","","",""
"null","<p style=""font-size: 80px;"">+ 10 points</p>","null","html-keyboard-response","28","336426","0.0-11.0-2.27","5f5b8a0de610d92df74219d7","lxmzmw","HGB","29","F","{""name"":""Chrome"",""chrome"":true,""version"":""105.0"",""blink"":true,""mac"":true,""osname"":""macOS"",""osversion"":""10.15.7"",""a"":true}","9:17:56","1","3","Test_1","70","f","1","861","1792 x 1120","1792 x 1041","true","1","10","","","","",""
"null","<p style=""font-size: 80px;"">+ 10 points</p>","null","html-keyboard-response","29","339148","0.0-11.0-2.28","5f5b8a0de610d92df74219d7","lxmzmw","HGB","29","F","{""name"":""Chrome"",""chrome"":true,""version"":""105.0"",""blink"":true,""mac"":true,""osname"":""macOS"",""osversion"":""10.15.7"",""a"":true}","9:17:56","1","3","Test_3","70","f","1","716.1000000238419","1792 x 1120","1792 x 1041","true","1","10","","","","",""
"null","<p style=""font-size: 80px;"">+ 10 points</p>","null","html-keyboard-response","30","342116","0.0-11.0-2.29","5f5b8a0de610d92df74219d7","lxmzmw","HGB","29","F","{""name"":""Chrome"",""chrome"":true,""version"":""105.0"",""blink"":true,""mac"":true,""osname"":""macOS"",""osversion"":""10.15.7"",""a"":true}","9:17:56","1","3","Test_4","74","j","1","959.6999999880791","1792 x 1120","1792 x 1041","true","1","10","","","","",""
"null","<p style=""font-size: 80px;"">+ 10 points</p>","null","html-keyboard-response","31","344900","0.0-11.0-2.30","5f5b8a0de610d92df74219d7","lxmzmw","HGB","29","F","{""name"":""Chrome"",""chrome"":true,""version"":""105.0"",""blink"":true,""mac"":true,""osname"":""macOS"",""osversion"":""10.15.7"",""a"":true}","9:17:56","1","3","Test_3","70","f","1","778.6999999880791","1792 x 1120","1792 x 1041","true","1","10","","","","",""
"null","<p style=""font-size: 80px;"">+ 10 points</p>","null","html-keyboard-response","32","347548","0.0-11.0-2.31","5f5b8a0de610d92df74219d7","lxmzmw","HGB","29","F","{""name"":""Chrome"",""chrome"":true,""version"":""105.0"",""blink"":true,""mac"":true,""osname"":""macOS"",""osversion"":""10.15.7"",""a"":true}","9:17:56","1","3","Test_4","74","j","1","638.6000000238419","1792 x 1120","1792 x 1041","true","1","10","","","","",""
"null","<p style=""font-size: 80px;"">+ 10 points</p>","null","html-keyboard-response","33","350618","0.0-11.0-2.32","5f5b8a0de610d92df74219d7","lxmzmw","HGB","29","F","{""name"":""Chrome"",""chrome"":true,""version"":""105.0"",""blink"":true,""mac"":true,""osname"":""macOS"",""osversion"":""10.15.7"",""a"":true}","9:17:56","1","3","Test_4","74","j","1","1062.5999999642372","1792 x 1120","1792 x 1041","true","1","10","","","","",""
"null","<p style=""font-size: 80px;"">+ 10 points</p>","null","html-keyboard-response","34","353202","0.0-11.0-2.33","5f5b8a0de610d92df74219d7","lxmzmw","HGB","29","F","{""name"":""Chrome"",""chrome"":true,""version"":""105.0"",""blink"":true,""mac"":true,""osname"":""macOS"",""osversion"":""10.15.7"",""a"":true}","9:17:56","1","3","Test_4","74","j","1","577.5","1792 x 1120","1792 x 1041","true","1","10","","","","",""
"null","<p style=""font-size: 80px;"">+ 10 points</p>","null","html-keyboard-response","35","355690","0.0-11.0-2.34","5f5b8a0de610d92df74219d7","lxmzmw","HGB","29","F","{""name"":""Chrome"",""chrome"":true,""version"":""105.0"",""blink"":true,""mac"":true,""osname"":""macOS"",""osversion"":""10.15.7"",""a"":true}","9:17:56","1","3","Test_3","70","f","1","481.4000000357628","1792 x 1120","1792 x 1041","true","1","10","","","","",""
"null","<p style=""font-size: 80px;"">+ 10 points</p>","null","html-keyboard-response","36","358258","0.0-11.0-2.35","5f5b8a0de610d92df74219d7","lxmzmw","HGB","29","F","{""name"":""Chrome"",""chrome"":true,""version"":""105.0"",""blink"":true,""mac"":true,""osname"":""macOS"",""osversion"":""10.15.7"",""a"":true}","9:17:56","1","3","Test_3","70","f","1","561.8999999761581","1792 x 1120","1792 x 1041","true","1","10","","","","",""
"null","<p style=""font-size: 80px;"">+ 10 points</p>","null","html-keyboard-response","37","360647","0.0-11.0-2.36","5f5b8a0de610d92df74219d7","lxmzmw","HGB","29","F","{""name"":""Chrome"",""chrome"":true,""version"":""105.0"",""blink"":true,""mac"":true,""osname"":""macOS"",""osversion"":""10.15.7"",""a"":true}","9:17:56","1","3","Test_3","70","f","1","377.9000000357628","1792 x 1120","1792 x 1041","true","1","10","","","","",""
"null","<p style=""font-size: 80px;"">+ 10 points</p>","null","html-keyboard-response","38","363256","0.0-11.0-2.37","5f5b8a0de610d92df74219d7","lxmzmw","HGB","29","F","{""name"":""Chrome"",""chrome"":true,""version"":""105.0"",""blink"":true,""mac"":true,""osname"":""macOS"",""osversion"":""10.15.7"",""a"":true}","9:17:56","1","3","Test_2","74","j","1","603.2999999523163","1792 x 1120","1792 x 1041","true","1","10","","","","",""
"null","<p style=""font-size: 80px;"">+ 10 points</p>","null","html-keyboard-response","39","365844","0.0-11.0-2.38","5f5b8a0de610d92df74219d7","lxmzmw","HGB","29","F","{""name"":""Chrome"",""chrome"":true,""version"":""105.0"",""blink"":true,""mac"":true,""osname"":""macOS"",""osversion"":""10.15.7"",""a"":true}","9:17:56","1","3","Test_2","74","j","1","578.1000000238419","1792 x 1120","1792 x 1041","true","1","10","","","","",""
"null","<p style=""font-size: 80px;"">+ 0 points</p>","null","html-keyboard-response","40","368371","0.0-11.0-2.39","5f5b8a0de610d92df74219d7","lxmzmw","HGB","29","F","{""name"":""Chrome"",""chrome"":true,""version"":""105.0"",""blink"":true,""mac"":true,""osname"":""macOS"",""osversion"":""10.15.7"",""a"":true}","9:17:56","1","4","Test_2","74","f","0","515.7999999523163","1792 x 1120","1792 x 1041","true","1","0","","","","",""
"null","<p style=""font-size: 80px;"">+ 10 points</p>","null","html-keyboard-response","41","370845","0.0-11.0-2.40","5f5b8a0de610d92df74219d7","lxmzmw","HGB","29","F","{""name"":""Chrome"",""chrome"":true,""version"":""105.0"",""blink"":true,""mac"":true,""osname"":""macOS"",""osversion"":""10.15.7"",""a"":true}","9:17:56","1","4","Test_3","74","j","1","465.5","1792 x 1120","1792 x 1041","true","1","10","","","","",""
"null","<p style=""font-size: 80px;"">+ 10 points</p>","null","html-keyboard-response","42","373645","0.0-11.0-2.41","5f5b8a0de610d92df74219d7","lxmzmw","HGB","29","F","{""name"":""Chrome"",""chrome"":true,""version"":""105.0"",""blink"":true,""mac"":true,""osname"":""macOS"",""osversion"":""10.15.7"",""a"":true}","9:17:56","1","4","Test_4","70","f","1","798.0999999642372","1792 x 1120","1792 x 1041","true","1","10","","","","",""
"null","<p style=""font-size: 80px;"">+ 10 points</p>","null","html-keyboard-response","43","376493","0.0-11.0-2.42","5f5b8a0de610d92df74219d7","lxmzmw","HGB","29","F","{""name"":""Chrome"",""chrome"":true,""version"":""105.0"",""blink"":true,""mac"":true,""osname"":""macOS"",""osversion"":""10.15.7"",""a"":true}","9:17:56","1","4","Test_1","74","j","1","844","1792 x 1120","1792 x 1041","true","1","10","","","","",""
"null","<p style=""font-size: 80px;"">+ 0 points</p>","null","html-keyboard-response","44","379385","0.0-11.0-2.43","5f5b8a0de610d92df74219d7","lxmzmw","HGB","29","F","{""name"":""Chrome"",""chrome"":true,""version"":""105.0"",""blink"":true,""mac"":true,""osname"":""macOS"",""osversion"":""10.15.7"",""a"":true}","9:17:56","1","4","Test_4","74","f","0","883.5999999642372","1792 x 1120","1792 x 1041","true","1","0","","","","",""
"null","<p style=""font-size: 80px;"">+ 10 points</p>","null","html-keyboard-response","45","382066","0.0-11.0-2.44","5f5b8a0de610d92df74219d7","lxmzmw","HGB","29","F","{""name"":""Chrome"",""chrome"":true,""version"":""105.0"",""blink"":true,""mac"":true,""osname"":""macOS"",""osversion"":""10.15.7"",""a"":true}","9:17:56","1","4","Test_4","70","f","1","670.5","1792 x 1120","1792 x 1041","true","1","10","","","","",""
"null","<p style=""font-size: 80px;"">+ 10 points</p>","null","html-keyboard-response","46","384645","0.0-11.0-2.45","5f5b8a0de610d92df74219d7","lxmzmw","HGB","29","F","{""name"":""Chrome"",""chrome"":true,""version"":""105.0"",""blink"":true,""mac"":true,""osname"":""macOS"",""osversion"":""10.15.7"",""a"":true}","9:17:56","1","4","Test_2","70","f","1","569.5","1792 x 1120","1792 x 1041","true","1","10","","","","",""
"null","<p style=""font-size: 80px;"">+ 10 points</p>","null","html-keyboard-response","47","387323","0.0-11.0-2.46","5f5b8a0de610d92df74219d7","lxmzmw","HGB","29","F","{""name"":""Chrome"",""chrome"":true,""version"":""105.0"",""blink"":true,""mac"":true,""osname"":""macOS"",""osversion"":""10.15.7"",""a"":true}","9:17:56","1","4","Test_1","74","j","1","673.8000000119209","1792 x 1120","1792 x 1041","true","1","10","","","","",""
"null","<p style=""font-size: 80px;"">+ 10 points</p>","null","html-keyboard-response","48","389978","0.0-11.0-2.47","5f5b8a0de610d92df74219d7","lxmzmw","HGB","29","F","{""name"":""Chrome"",""chrome"":true,""version"":""105.0"",""blink"":true,""mac"":true,""osname"":""macOS"",""osversion"":""10.15.7"",""a"":true}","9:17:56","1","4","Test_3","74","j","1","648.5","1792 x 1120","1792 x 1041","true","1","10","","","","",""
"null","<p style=""font-size: 80px;"">+ 10 points</p>","null","html-keyboard-response","49","392885","0.0-11.0-2.48","5f5b8a0de610d92df74219d7","lxmzmw","HGB","29","F","{""name"":""Chrome"",""chrome"":true,""version"":""105.0"",""blink"":true,""mac"":true,""osname"":""macOS"",""osversion"":""10.15.7"",""a"":true}","9:17:56","1","4","Test_3","74","j","1","899.8000000119209","1792 x 1120","1792 x 1041","true","1","10","","","","",""
"null","<p style=""font-size: 80px;"">+ 10 points</p>","null","html-keyboard-response","50","395468","0.0-11.0-2.49","5f5b8a0de610d92df74219d7","lxmzmw","HGB","29","F","{""name"":""Chrome"",""chrome"":true,""version"":""105.0"",""blink"":true,""mac"":true,""osname"":""macOS"",""osversion"":""10.15.7"",""a"":true}","9:17:56","1","4","Test_3","74","j","1","575.1000000238419","1792 x 1120","1792 x 1041","true","1","10","","","","",""
"null","<p style=""font-size: 80px;"">+ 10 points</p>","null","html-keyboard-response","51","398258","0.0-11.0-2.50","5f5b8a0de610d92df74219d7","lxmzmw","HGB","29","F","{""name"":""Chrome"",""chrome"":true,""version"":""105.0"",""blink"":true,""mac"":true,""osname"":""macOS"",""osversion"":""10.15.7"",""a"":true}","9:17:56","1","4","Test_4","70","f","1","780.5","1792 x 1120","1792 x 1041","true","1","10","","","","",""
"null","<p style=""font-size: 80px;"">+ 10 points</p>","null","html-keyboard-response","52","401088","0.0-11.0-2.51","5f5b8a0de610d92df74219d7","lxmzmw","HGB","29","F","{""name"":""Chrome"",""chrome"":true,""version"":""105.0"",""blink"":true,""mac"":true,""osname"":""macOS"",""osversion"":""10.15.7"",""a"":true}","9:17:56","1","4","Test_1","74","j","1","821.2999999523163","1792 x 1120","1792 x 1041","true","1","10","","","","",""
"null","<p style=""font-size: 80px;"">+ 0 points</p>","null","html-keyboard-response","53","403999","0.0-11.0-2.52","5f5b8a0de610d92df74219d7","lxmzmw","HGB","29","F","{""name"":""Chrome"",""chrome"":true,""version"":""105.0"",""blink"":true,""mac"":true,""osname"":""macOS"",""osversion"":""10.15.7"",""a"":true}","9:17:56","1","4","Test_2","74","f","0","903.8999999761581","1792 x 1120","1792 x 1041","true","1","0","","","","",""
"null","<p style=""font-size: 80px;"">+ 10 points</p>","null","html-keyboard-response","54","406556","0.0-11.0-2.53","5f5b8a0de610d92df74219d7","lxmzmw","HGB","29","F","{""name"":""Chrome"",""chrome"":true,""version"":""105.0"",""blink"":true,""mac"":true,""osname"":""macOS"",""osversion"":""10.15.7"",""a"":true}","9:17:56","1","4","Test_3","74","j","1","553.5","1792 x 1120","1792 x 1041","true","1","10","","","","",""
"null","<p style=""font-size: 80px;"">+ 10 points</p>","null","html-keyboard-response","55","409607","0.0-11.0-2.54","5f5b8a0de610d92df74219d7","lxmzmw","HGB","29","F","{""name"":""Chrome"",""chrome"":true,""version"":""105.0"",""blink"":true,""mac"":true,""osname"":""macOS"",""osversion"":""10.15.7"",""a"":true}","9:17:56","1","4","Test_1","74","j","1","1044","1792 x 1120","1792 x 1041","true","1","10","","","","",""
"null","<p style=""font-size: 80px;"">+ 10 points</p>","null","html-keyboard-response","56","412359","0.0-11.0-2.55","5f5b8a0de610d92df74219d7","lxmzmw","HGB","29","F","{""name"":""Chrome"",""chrome"":true,""version"":""105.0"",""blink"":true,""mac"":true,""osname"":""macOS"",""osversion"":""10.15.7"",""a"":true}","9:17:56","1","4","Test_1","74","j","1","742.7999999523163","1792 x 1120","1792 x 1041","true","1","10","","","","",""
"null","<p style=""font-size: 80px;"">+ 10 points</p>","null","html-keyboard-response","57","415210","0.0-11.0-2.56","5f5b8a0de610d92df74219d7","lxmzmw","HGB","29","F","{""name"":""Chrome"",""chrome"":true,""version"":""105.0"",""blink"":true,""mac"":true,""osname"":""macOS"",""osversion"":""10.15.7"",""a"":true}","9:17:56","1","4","Test_2","70","f","1","839.3000000119209","1792 x 1120","1792 x 1041","true","1","10","","","","",""
"null","<p style=""font-size: 80px;"">+ 10 points</p>","null","html-keyboard-response","58","417724","0.0-11.0-2.57","5f5b8a0de610d92df74219d7","lxmzmw","HGB","29","F","{""name"":""Chrome"",""chrome"":true,""version"":""105.0"",""blink"":true,""mac"":true,""osname"":""macOS"",""osversion"":""10.15.7"",""a"":true}","9:17:56","1","4","Test_2","70","f","1","504.0999999642372","1792 x 1120","1792 x 1041","true","1","10","","","","",""
"null","<p style=""font-size: 80px;"">+ 10 points</p>","null","html-keyboard-response","59","420612","0.0-11.0-2.58","5f5b8a0de610d92df74219d7","lxmzmw","HGB","29","F","{""name"":""Chrome"",""chrome"":true,""version"":""105.0"",""blink"":true,""mac"":true,""osname"":""macOS"",""osversion"":""10.15.7"",""a"":true}","9:17:56","1","4","Test_4","70","f","1","877.6000000238419","1792 x 1120","1792 x 1041","true","1","10","","","","",""
"null","<p style=""font-size: 80px;"">+ 0 points</p>","null","html-keyboard-response","60","423261","0.0-11.0-2.59","5f5b8a0de610d92df74219d7","lxmzmw","HGB","29","F","{""name"":""Chrome"",""chrome"":true,""version"":""105.0"",""blink"":true,""mac"":true,""osname"":""macOS"",""osversion"":""10.15.7"",""a"":true}","9:17:56","1","3","Test_2","70","j","0","638.8999999761581","1792 x 1120","1792 x 1041","true","1","0","","","","",""
"null","<p style=""font-size: 80px;"">+ 10 points</p>","null","html-keyboard-response","61","426301","0.0-11.0-2.60","5f5b8a0de610d92df74219d7","lxmzmw","HGB","29","F","{""name"":""Chrome"",""chrome"":true,""version"":""105.0"",""blink"":true,""mac"":true,""osname"":""macOS"",""osversion"":""10.15.7"",""a"":true}","9:17:56","1","3","Test_4","74","j","1","1032.800000011921","1792 x 1120","1792 x 1041","true","1","10","","","","",""
"null","<p style=""font-size: 80px;"">+ 10 points</p>","null","html-keyboard-response","62","428846","0.0-11.0-2.61","5f5b8a0de610d92df74219d7","lxmzmw","HGB","29","F","{""name"":""Chrome"",""chrome"":true,""version"":""105.0"",""blink"":true,""mac"":true,""osname"":""macOS"",""osversion"":""10.15.7"",""a"":true}","9:17:56","1","3","Test_3","70","f","1","538.3000000119209","1792 x 1120","1792 x 1041","true","1","10","","","","",""
"null","<p style=""font-size: 80px;"">+ 10 points</p>","null","html-keyboard-response","63","431600","0.0-11.0-2.62","5f5b8a0de610d92df74219d7","lxmzmw","HGB","29","F","{""name"":""Chrome"",""chrome"":true,""version"":""105.0"",""blink"":true,""mac"":true,""osname"":""macOS"",""osversion"":""10.15.7"",""a"":true}","9:17:56","1","3","Test_4","74","j","1","742.5","1792 x 1120","1792 x 1041","true","1","10","","","","",""
"null","<p style=""font-size: 80px;"">+ 10 points</p>","null","html-keyboard-response","64","435168","0.0-11.0-2.63","5f5b8a0de610d92df74219d7","lxmzmw","HGB","29","F","{""name"":""Chrome"",""chrome"":true,""version"":""105.0"",""blink"":true,""mac"":true,""osname"":""macOS"",""osversion"":""10.15.7"",""a"":true}","9:17:56","1","3","Test_1","70","f","1","1560.9000000357628","1792 x 1120","1792 x 1041","true","1","10","","","","",""
"null","<p style=""font-size: 80px;"">+ 10 points</p>","null","html-keyboard-response","65","437825","0.0-11.0-2.64","5f5b8a0de610d92df74219d7","lxmzmw","HGB","29","F","{""name"":""Chrome"",""chrome"":true,""version"":""105.0"",""blink"":true,""mac"":true,""osname"":""macOS"",""osversion"":""10.15.7"",""a"":true}","9:17:56","1","3","Test_1","70","f","1","650.6999999880791","1792 x 1120","1792 x 1041","true","1","10","","","","",""
"null","<p style=""font-size: 80px;"">+ 10 points</p>","null","html-keyboard-response","66","440500","0.0-11.0-2.65","5f5b8a0de610d92df74219d7","lxmzmw","HGB","29","F","{""name"":""Chrome"",""chrome"":true,""version"":""105.0"",""blink"":true,""mac"":true,""osname"":""macOS"",""osversion"":""10.15.7"",""a"":true}","9:17:56","1","3","Test_1","70","f","1","666.5","1792 x 1120","1792 x 1041","true","1","10","","","","",""
"null","<p style=""font-size: 80px;"">+ 10 points</p>","null","html-keyboard-response","67","443364","0.0-11.0-2.66","5f5b8a0de610d92df74219d7","lxmzmw","HGB","29","F","{""name"":""Chrome"",""chrome"":true,""version"":""105.0"",""blink"":true,""mac"":true,""osname"":""macOS"",""osversion"":""10.15.7"",""a"":true}","9:17:56","1","3","Test_2","74","j","1","859.8999999761581","1792 x 1120","1792 x 1041","true","1","10","","","","",""
"null","<p style=""font-size: 80px;"">+ 10 points</p>","null","html-keyboard-response","68","446010","0.0-11.0-2.67","5f5b8a0de610d92df74219d7","lxmzmw","HGB","29","F","{""name"":""Chrome"",""chrome"":true,""version"":""105.0"",""blink"":true,""mac"":true,""osname"":""macOS"",""osversion"":""10.15.7"",""a"":true}","9:17:56","1","3","Test_3","70","f","1","636","1792 x 1120","1792 x 1041","true","1","10","","","","",""
"null","<p style=""font-size: 80px;"">+ 10 points</p>","null","html-keyboard-response","69","448585","0.0-11.0-2.68","5f5b8a0de610d92df74219d7","lxmzmw","HGB","29","F","{""name"":""Chrome"",""chrome"":true,""version"":""105.0"",""blink"":true,""mac"":true,""osname"":""macOS"",""osversion"":""10.15.7"",""a"":true}","9:17:56","1","3","Test_3","70","f","1","564.3999999761581","1792 x 1120","1792 x 1041","true","1","10","","","","",""
"null","<p style=""font-size: 80px;"">+ 10 points</p>","null","html-keyboard-response","70","451457","0.0-11.0-2.69","5f5b8a0de610d92df74219d7","lxmzmw","HGB","29","F","{""name"":""Chrome"",""chrome"":true,""version"":""105.0"",""blink"":true,""mac"":true,""osname"":""macOS"",""osversion"":""10.15.7"",""a"":true}","9:17:56","1","3","Test_1","70","f","1","865.1000000238419","1792 x 1120","1792 x 1041","true","1","10","","","","",""
"null","<p style=""font-size: 80px;"">+ 10 points</p>","null","html-keyboard-response","71","454397","0.0-11.0-2.70","5f5b8a0de610d92df74219d7","lxmzmw","HGB","29","F","{""name"":""Chrome"",""chrome"":true,""version"":""105.0"",""blink"":true,""mac"":true,""osname"":""macOS"",""osversion"":""10.15.7"",""a"":true}","9:17:56","1","3","Test_1","70","f","1","930.4000000357628","1792 x 1120","1792 x 1041","true","1","10","","","","",""
"null","<p style=""font-size: 80px;"">+ 10 points</p>","null","html-keyboard-response","72","456979","0.0-11.0-2.71","5f5b8a0de610d92df74219d7","lxmzmw","HGB","29","F","{""name"":""Chrome"",""chrome"":true,""version"":""105.0"",""blink"":true,""mac"":true,""osname"":""macOS"",""osversion"":""10.15.7"",""a"":true}","9:17:56","1","3","Test_1","70","f","1","571.0999999642372","1792 x 1120","1792 x 1041","true","1","10","","","","",""
"null","<p style=""font-size: 80px;"">+ 10 points</p>","null","html-keyboard-response","73","459629","0.0-11.0-2.72","5f5b8a0de610d92df74219d7","lxmzmw","HGB","29","F","{""name"":""Chrome"",""chrome"":true,""version"":""105.0"",""blink"":true,""mac"":true,""osname"":""macOS"",""osversion"":""10.15.7"",""a"":true}","9:17:56","1","3","Test_2","74","j","1","636.8000000119209","1792 x 1120","1792 x 1041","true","1","10","","","","",""
"null","<p style=""font-size: 80px;"">+ 10 points</p>","null","html-keyboard-response","74","462203","0.0-11.0-2.73","5f5b8a0de610d92df74219d7","lxmzmw","HGB","29","F","{""name"":""Chrome"",""chrome"":true,""version"":""105.0"",""blink"":true,""mac"":true,""osname"":""macOS"",""osversion"":""10.15.7"",""a"":true}","9:17:56","1","3","Test_3","70","f","1","570.3000000119209","1792 x 1120","1792 x 1041","true","1","10","","","","",""
"null","<p style=""font-size: 80px;"">+ 10 points</p>","null","html-keyboard-response","75","464860","0.0-11.0-2.74","5f5b8a0de610d92df74219d7","lxmzmw","HGB","29","F","{""name"":""Chrome"",""chrome"":true,""version"":""105.0"",""blink"":true,""mac"":true,""osname"":""macOS"",""osversion"":""10.15.7"",""a"":true}","9:17:56","1","3","Test_2","74","j","1","647.3999999761581","1792 x 1120","1792 x 1041","true","1","10","","","","",""
"null","<p style=""font-size: 80px;"">+ 10 points</p>","null","html-keyboard-response","76","467444","0.0-11.0-2.75","5f5b8a0de610d92df74219d7","lxmzmw","HGB","29","F","{""name"":""Chrome"",""chrome"":true,""version"":""105.0"",""blink"":true,""mac"":true,""osname"":""macOS"",""osversion"":""10.15.7"",""a"":true}","9:17:56","1","3","Test_3","70","f","1","576.1999999880791","1792 x 1120","1792 x 1041","true","1","10","","","","",""
"null","<p style=""font-size: 80px;"">+ 10 points</p>","null","html-keyboard-response","77","470076","0.0-11.0-2.76","5f5b8a0de610d92df74219d7","lxmzmw","HGB","29","F","{""name"":""Chrome"",""chrome"":true,""version"":""105.0"",""blink"":true,""mac"":true,""osname"":""macOS"",""osversion"":""10.15.7"",""a"":true}","9:17:56","1","3","Test_4","74","j","1","621.6000000238419","1792 x 1120","1792 x 1041","true","1","10","","","","",""
"null","<p style=""font-size: 80px;"">+ 10 points</p>","null","html-keyboard-response","78","472731","0.0-11.0-2.77","5f5b8a0de610d92df74219d7","lxmzmw","HGB","29","F","{""name"":""Chrome"",""chrome"":true,""version"":""105.0"",""blink"":true,""mac"":true,""osname"":""macOS"",""osversion"":""10.15.7"",""a"":true}","9:17:56","1","3","Test_4","74","j","1","646.1000000238419","1792 x 1120","1792 x 1041","true","1","10","","","","",""
"null","<p style=""font-size: 80px;"">+ 10 points</p>","null","html-keyboard-response","79","475286","0.0-11.0-2.78","5f5b8a0de610d92df74219d7","lxmzmw","HGB","29","F","{""name"":""Chrome"",""chrome"":true,""version"":""105.0"",""blink"":true,""mac"":true,""osname"":""macOS"",""osversion"":""10.15.7"",""a"":true}","9:17:56","1","3","Test_4","74","j","1","549.1999999880791","1792 x 1120","1792 x 1041","true","1","10","","","","",""
"null","<p style=""font-size: 80px;"">+ 10 points</p>","null","html-keyboard-response","80","477829","0.0-11.0-2.79","5f5b8a0de610d92df74219d7","lxmzmw","HGB","29","F","{""name"":""Chrome"",""chrome"":true,""version"":""105.0"",""blink"":true,""mac"":true,""osname"":""macOS"",""osversion"":""10.15.7"",""a"":true}","9:17:56","1","3","Test_2","74","j","1","535.3000000119209","1792 x 1120","1792 x 1041","true","1","10","","","","",""
"null","<p style=""font-size: 80px;"">+ 10 points</p>","null","html-keyboard-response","81","481164","0.0-11.0-2.80","5f5b8a0de610d92df74219d7","lxmzmw","HGB","29","F","{""name"":""Chrome"",""chrome"":true,""version"":""105.0"",""blink"":true,""mac"":true,""osname"":""macOS"",""osversion"":""10.15.7"",""a"":true}","9:17:56","1","3","Test_4","74","j","1","1324.800000011921","1792 x 1120","1792 x 1041","true","1","10","","","","",""
"null","<p style=""font-size: 80px;"">+ 10 points</p>","null","html-keyboard-response","82","483738","0.0-11.0-2.81","5f5b8a0de610d92df74219d7","lxmzmw","HGB","29","F","{""name"":""Chrome"",""chrome"":true,""version"":""105.0"",""blink"":true,""mac"":true,""osname"":""macOS"",""osversion"":""10.15.7"",""a"":true}","9:17:56","1","3","Test_2","74","j","1","568.3000000119209","1792 x 1120","1792 x 1041","true","1","10","","","","",""
"null","<p style=""font-size: 80px;"">+ 10 points</p>","null","html-keyboard-response","83","486986","0.0-11.0-2.82","5f5b8a0de610d92df74219d7","lxmzmw","HGB","29","F","{""name"":""Chrome"",""chrome"":true,""version"":""105.0"",""blink"":true,""mac"":true,""osname"":""macOS"",""osversion"":""10.15.7"",""a"":true}","9:17:56","1","3","Test_3","70","f","1","1241.300000011921","1792 x 1120","1792 x 1041","true","1","10","","","","",""
"null","<p style=""font-size: 80px;"">+ 0 points</p>","null","html-keyboard-response","84","489389","0.0-11.0-2.83","5f5b8a0de610d92df74219d7","lxmzmw","HGB","29","F","{""name"":""Chrome"",""chrome"":true,""version"":""105.0"",""blink"":true,""mac"":true,""osname"":""macOS"",""osversion"":""10.15.7"",""a"":true}","9:17:56","1","4","Test_3","70","j","0","395.2000000476837","1792 x 1120","1792 x 1041","true","1","0","","","","",""
"null","<p style=""font-size: 80px;"">+ 10 points</p>","null","html-keyboard-response","85","492222","0.0-11.0-2.84","5f5b8a0de610d92df74219d7","lxmzmw","HGB","29","F","{""name"":""Chrome"",""chrome"":true,""version"":""105.0"",""blink"":true,""mac"":true,""osname"":""macOS"",""osversion"":""10.15.7"",""a"":true}","9:17:56","1","4","Test_4","70","f","1","828.1999999880791","1792 x 1120","1792 x 1041","true","1","10","","","","",""
"null","<p style=""font-size: 80px;"">+ 10 points</p>","null","html-keyboard-response","86","494945","0.0-11.0-2.85","5f5b8a0de610d92df74219d7","lxmzmw","HGB","29","F","{""name"":""Chrome"",""chrome"":true,""version"":""105.0"",""blink"":true,""mac"":true,""osname"":""macOS"",""osversion"":""10.15.7"",""a"":true}","9:17:56","1","4","Test_4","70","f","1","713.4000000357628","1792 x 1120","1792 x 1041","true","1","10","","","","",""
"null","<p style=""font-size: 80px;"">+ 10 points</p>","null","html-keyboard-response","87","497533","0.0-11.0-2.86","5f5b8a0de610d92df74219d7","lxmzmw","HGB","29","F","{""name"":""Chrome"",""chrome"":true,""version"":""105.0"",""blink"":true,""mac"":true,""osname"":""macOS"",""osversion"":""10.15.7"",""a"":true}","9:17:56","1","4","Test_4","70","f","1","579","1792 x 1120","1792 x 1041","true","1","10","","","","",""
"null","<p style=""font-size: 80px;"">+ 10 points</p>","null","html-keyboard-response","88","500176","0.0-11.0-2.87","5f5b8a0de610d92df74219d7","lxmzmw","HGB","29","F","{""name"":""Chrome"",""chrome"":true,""version"":""105.0"",""blink"":true,""mac"":true,""osname"":""macOS"",""osversion"":""10.15.7"",""a"":true}","9:17:56","1","4","Test_4","70","f","1","632.8000000119209","1792 x 1120","1792 x 1041","true","1","10","","","","",""
"null","<p style=""font-size: 80px;"">+ 0 points</p>","null","html-keyboard-response","89","502735","0.0-11.0-2.88","5f5b8a0de610d92df74219d7","lxmzmw","HGB","29","F","{""name"":""Chrome"",""chrome"":true,""version"":""105.0"",""blink"":true,""mac"":true,""osname"":""macOS"",""osversion"":""10.15.7"",""a"":true}","9:17:56","1","4","Test_2","74","f","0","551.5","1792 x 1120","1792 x 1041","true","1","0","","","","",""
"null","<p style=""font-size: 80px;"">+ 10 points</p>","null","html-keyboard-response","90","505173","0.0-11.0-2.89","5f5b8a0de610d92df74219d7","lxmzmw","HGB","29","F","{""name"":""Chrome"",""chrome"":true,""version"":""105.0"",""blink"":true,""mac"":true,""osname"":""macOS"",""osversion"":""10.15.7"",""a"":true}","9:17:56","1","4","Test_3","74","j","1","427.0999999642372","1792 x 1120","1792 x 1041","true","1","10","","","","",""
"null","<p style=""font-size: 80px;"">+ 10 points</p>","null","html-keyboard-response","91","507950","0.0-11.0-2.90","5f5b8a0de610d92df74219d7","lxmzmw","HGB","29","F","{""name"":""Chrome"",""chrome"":true,""version"":""105.0"",""blink"":true,""mac"":true,""osname"":""macOS"",""osversion"":""10.15.7"",""a"":true}","9:17:56","1","4","Test_1","74","j","1","767.6999999880791","1792 x 1120","1792 x 1041","true","1","10","","","","",""
"null","<p style=""font-size: 80px;"">+ 10 points</p>","null","html-keyboard-response","92","510466","0.0-11.0-2.91","5f5b8a0de610d92df74219d7","lxmzmw","HGB","29","F","{""name"":""Chrome"",""chrome"":true,""version"":""105.0"",""blink"":true,""mac"":true,""osname"":""macOS"",""osversion"":""10.15.7"",""a"":true}","9:17:56","1","4","Test_2","70","f","1","506.19999998807907","1792 x 1120","1792 x 1041","true","1","10","","","","",""
"null","<p style=""font-size: 80px;"">+ 0 points</p>","null","html-keyboard-response","93","513156","0.0-11.0-2.92","5f5b8a0de610d92df74219d7","lxmzmw","HGB","29","F","{""name"":""Chrome"",""chrome"":true,""version"":""105.0"",""blink"":true,""mac"":true,""osname"":""macOS"",""osversion"":""10.15.7"",""a"":true}","9:17:56","1","4","Test_3","70","j","0","683.1000000238419","1792 x 1120","1792 x 1041","true","1","0","","","","",""
"null","<p style=""font-size: 80px;"">+ 10 points</p>","null","html-keyboard-response","94","515927","0.0-11.0-2.93","5f5b8a0de610d92df74219d7","lxmzmw","HGB","29","F","{""name"":""Chrome"",""chrome"":true,""version"":""105.0"",""blink"":true,""mac"":true,""osname"":""macOS"",""osversion"":""10.15.7"",""a"":true}","9:17:56","1","4","Test_2","70","f","1","759.3999999761581","1792 x 1120","1792 x 1041","true","1","10","","","","",""
"null","<p style=""font-size: 80px;"">+ 10 points</p>","null","html-keyboard-response","95","518395","0.0-11.0-2.94","5f5b8a0de610d92df74219d7","lxmzmw","HGB","29","F","{""name"":""Chrome"",""chrome"":true,""version"":""105.0"",""blink"":true,""mac"":true,""osname"":""macOS"",""osversion"":""10.15.7"",""a"":true}","9:17:56","1","4","Test_2","70","f","1","462.30000001192093","1792 x 1120","1792 x 1041","true","1","10","","","","",""
"null","<p style=""font-size: 80px;"">+ 10 points</p>","null","html-keyboard-response","96","521125","0.0-11.0-2.95","5f5b8a0de610d92df74219d7","lxmzmw","HGB","29","F","{""name"":""Chrome"",""chrome"":true,""version"":""105.0"",""blink"":true,""mac"":true,""osname"":""macOS"",""osversion"":""10.15.7"",""a"":true}","9:17:56","1","4","Test_1","74","j","1","722.2000000476837","1792 x 1120","1792 x 1041","true","1","10","","","","",""
"null","<p style=""font-size: 80px;"">+ 10 points</p>","null","html-keyboard-response","97","523971","0.0-11.0-2.96","5f5b8a0de610d92df74219d7","lxmzmw","HGB","29","F","{""name"":""Chrome"",""chrome"":true,""version"":""105.0"",""blink"":true,""mac"":true,""osname"":""macOS"",""osversion"":""10.15.7"",""a"":true}","9:17:56","1","4","Test_1","74","j","1","838.8000000119209","1792 x 1120","1792 x 1041","true","1","10","","","","",""
"null","<p style=""font-size: 80px;"">+ 10 points</p>","null","html-keyboard-response","98","526725","0.0-11.0-2.97","5f5b8a0de610d92df74219d7","lxmzmw","HGB","29","F","{""name"":""Chrome"",""chrome"":true,""version"":""105.0"",""blink"":true,""mac"":true,""osname"":""macOS"",""osversion"":""10.15.7"",""a"":true}","9:17:56","1","4","Test_4","70","f","1","746.6000000238419","1792 x 1120","1792 x 1041","true","1","10","","","","",""
"null","<p style=""font-size: 80px;"">+ 10 points</p>","null","html-keyboard-response","99","530110","0.0-11.0-2.98","5f5b8a0de610d92df74219d7","lxmzmw","HGB","29","F","{""name"":""Chrome"",""chrome"":true,""version"":""105.0"",""blink"":true,""mac"":true,""osname"":""macOS"",""osversion"":""10.15.7"",""a"":true}","9:17:56","1","4","Test_2","70","f","1","1379.800000011921","1792 x 1120","1792 x 1041","true","1","10","","","","",""
"null","<p style=""font-size: 80px;"">+ 10 points</p>","null","html-keyboard-response","100","532935","0.0-11.0-2.99","5f5b8a0de610d92df74219d7","lxmzmw","HGB","29","F","{""name"":""Chrome"",""chrome"":true,""version"":""105.0"",""blink"":true,""mac"":true,""osname"":""macOS"",""osversion"":""10.15.7"",""a"":true}","9:17:56","1","4","Test_1","74","j","1","818.7999999523163","1792 x 1120","1792 x 1041","true","1","10","","","","",""
"null","<p style=""font-size: 80px;"">+ 10 points</p>","null","html-keyboard-response","101","535485","0.0-11.0-2.100","5f5b8a0de610d92df74219d7","lxmzmw","HGB","29","F","{""name"":""Chrome"",""chrome"":true,""version"":""105.0"",""blink"":true,""mac"":true,""osname"":""macOS"",""osversion"":""10.15.7"",""a"":true}","9:17:56","1","4","Test_3","74","j","1","537.9000000357628","1792 x 1120","1792 x 1041","true","1","10","","","","",""
"null","<p style=""font-size: 80px;"">+ 0 points</p>","null","html-keyboard-response","102","538133","0.0-11.0-2.101","5f5b8a0de610d92df74219d7","lxmzmw","HGB","29","F","{""name"":""Chrome"",""chrome"":true,""version"":""105.0"",""blink"":true,""mac"":true,""osname"":""macOS"",""osversion"":""10.15.7"",""a"":true}","9:17:56","1","3","Test_3","74","f","0","639.6000000238419","1792 x 1120","1792 x 1041","true","1","0","","","","",""
"null","<p style=""font-size: 80px;"">+ 10 points</p>","null","html-keyboard-response","103","540660","0.0-11.0-2.102","5f5b8a0de610d92df74219d7","lxmzmw","HGB","29","F","{""name"":""Chrome"",""chrome"":true,""version"":""105.0"",""blink"":true,""mac"":true,""osname"":""macOS"",""osversion"":""10.15.7"",""a"":true}","9:17:56","1","3","Test_2","74","j","1","518.5","1792 x 1120","1792 x 1041","true","1","10","","","","",""
"null","<p style=""font-size: 80px;"">+ 10 points</p>","null","html-keyboard-response","104","543799","0.0-11.0-2.103","5f5b8a0de610d92df74219d7","lxmzmw","HGB","29","F","{""name"":""Chrome"",""chrome"":true,""version"":""105.0"",""blink"":true,""mac"":true,""osname"":""macOS"",""osversion"":""10.15.7"",""a"":true}","9:17:56","1","3","Test_4","74","j","1","1129.1000000238419","1792 x 1120","1792 x 1041","true","1","10","","","","",""
"null","<p style=""font-size: 80px;"">+ 10 points</p>","null","html-keyboard-response","105","546371","0.0-11.0-2.104","5f5b8a0de610d92df74219d7","lxmzmw","HGB","29","F","{""name"":""Chrome"",""chrome"":true,""version"":""105.0"",""blink"":true,""mac"":true,""osname"":""macOS"",""osversion"":""10.15.7"",""a"":true}","9:17:56","1","3","Test_3","70","f","1","563.3000000119209","1792 x 1120","1792 x 1041","true","1","10","","","","",""
"null","<p style=""font-size: 80px;"">+ 10 points</p>","null","html-keyboard-response","106","548902","0.0-11.0-2.105","5f5b8a0de610d92df74219d7","lxmzmw","HGB","29","F","{""name"":""Chrome"",""chrome"":true,""version"":""105.0"",""blink"":true,""mac"":true,""osname"":""macOS"",""osversion"":""10.15.7"",""a"":true}","9:17:56","1","3","Test_2","74","j","1","525.1000000238419","1792 x 1120","1792 x 1041","true","1","10","","","","",""
"null","<p style=""font-size: 80px;"">+ 10 points</p>","null","html-keyboard-response","107","551619","0.0-11.0-2.106","5f5b8a0de610d92df74219d7","lxmzmw","HGB","29","F","{""name"":""Chrome"",""chrome"":true,""version"":""105.0"",""blink"":true,""mac"":true,""osname"":""macOS"",""osversion"":""10.15.7"",""a"":true}","9:17:56","1","3","Test_4","74","j","1","710.4000000357628","1792 x 1120","1792 x 1041","true","1","10","","","","",""
"null","<p style=""font-size: 80px;"">+ 10 points</p>","null","html-keyboard-response","108","554255","0.0-11.0-2.107","5f5b8a0de610d92df74219d7","lxmzmw","HGB","29","F","{""name"":""Chrome"",""chrome"":true,""version"":""105.0"",""blink"":true,""mac"":true,""osname"":""macOS"",""osversion"":""10.15.7"",""a"":true}","9:17:56","1","3","Test_3","70","f","1","629.6999999880791","1792 x 1120","1792 x 1041","true","1","10","","","","",""
"null","<p style=""font-size: 80px;"">+ 10 points</p>","null","html-keyboard-response","109","556732","0.0-11.0-2.108","5f5b8a0de610d92df74219d7","lxmzmw","HGB","29","F","{""name"":""Chrome"",""chrome"":true,""version"":""105.0"",""blink"":true,""mac"":true,""osname"":""macOS"",""osversion"":""10.15.7"",""a"":true}","9:17:56","1","3","Test_2","74","j","1","464.39999997615814","1792 x 1120","1792 x 1041","true","1","10","","","","",""
"null","<p style=""font-size: 80px;"">+ 10 points</p>","null","html-keyboard-response","110","579138","0.0-11.0-2.109","5f5b8a0de610d92df74219d7","lxmzmw","HGB","29","F","{""name"":""Chrome"",""chrome"":true,""version"":""105.0"",""blink"":true,""mac"":true,""osname"":""macOS"",""osversion"":""10.15.7"",""a"":true}","9:17:56","1","3","Test_2","74","j","1","1097.800000011921","1792 x 1120","1792 x 1041","true","1","10","","","","",""
"null","<p style=""font-size: 80px;"">+ 10 points</p>","null","html-keyboard-response","111","581932","0.0-11.0-2.110","5f5b8a0de610d92df74219d7","lxmzmw","HGB","29","F","{""name"":""Chrome"",""chrome"":true,""version"":""105.0"",""blink"":true,""mac"":true,""osname"":""macOS"",""osversion"":""10.15.7"",""a"":true}","9:17:56","1","3","Test_1","70","f","1","785.4000000357628","1792 x 1120","1792 x 1041","true","1","10","","","","",""
"null","<p style=""font-size: 80px;"">+ 10 points</p>","null","html-keyboard-response","112","584692","0.0-11.0-2.111","5f5b8a0de610d92df74219d7","lxmzmw","HGB","29","F","{""name"":""Chrome"",""chrome"":true,""version"":""105.0"",""blink"":true,""mac"":true,""osname"":""macOS"",""osversion"":""10.15.7"",""a"":true}","9:17:56","1","3","Test_1","70","f","1","755.3000000119209","1792 x 1120","1792 x 1041","true","1","10","","","","",""
"null","<p style=""font-size: 80px;"">+ 10 points</p>","null","html-keyboard-response","113","587883","0.0-11.0-2.112","5f5b8a0de610d92df74219d7","lxmzmw","HGB","29","F","{""name"":""Chrome"",""chrome"":true,""version"":""105.0"",""blink"":true,""mac"":true,""osname"":""macOS"",""osversion"":""10.15.7"",""a"":true}","9:17:56","1","3","Test_4","74","j","1","1185.300000011921","1792 x 1120","1792 x 1041","true","1","10","","","","",""
"null","<p style=""font-size: 80px;"">+ 10 points</p>","null","html-keyboard-response","114","591088","0.0-11.0-2.113","5f5b8a0de610d92df74219d7","lxmzmw","HGB","29","F","{""name"":""Chrome"",""chrome"":true,""version"":""105.0"",""blink"":true,""mac"":true,""osname"":""macOS"",""osversion"":""10.15.7"",""a"":true}","9:17:56","1","3","Test_2","74","j","1","1198.6000000238419","1792 x 1120","1792 x 1041","true","1","10","","","","",""
"null","<p style=""font-size: 80px;"">+ 10 points</p>","null","html-keyboard-response","115","593882","0.0-11.0-2.114","5f5b8a0de610d92df74219d7","lxmzmw","HGB","29","F","{""name"":""Chrome"",""chrome"":true,""version"":""105.0"",""blink"":true,""mac"":true,""osname"":""macOS"",""osversion"":""10.15.7"",""a"":true}","9:17:56","1","3","Test_3","70","f","1","782.3000000119209","1792 x 1120","1792 x 1041","true","1","10","","","","",""
"null","<p style=""font-size: 80px;"">+ 10 points</p>","null","html-keyboard-response","116","596662","0.0-11.0-2.115","5f5b8a0de610d92df74219d7","lxmzmw","HGB","29","F","{""name"":""Chrome"",""chrome"":true,""version"":""105.0"",""blink"":true,""mac"":true,""osname"":""macOS"",""osversion"":""10.15.7"",""a"":true}","9:17:56","1","3","Test_1","70","f","1","774.1999999880791","1792 x 1120","1792 x 1041","true","1","10","","","","",""
"null","<p style=""font-size: 80px;"">+ 10 points</p>","null","html-keyboard-response","117","599178","0.0-11.0-2.116","5f5b8a0de610d92df74219d7","lxmzmw","HGB","29","F","{""name"":""Chrome"",""chrome"":true,""version"":""105.0"",""blink"":true,""mac"":true,""osname"":""macOS"",""osversion"":""10.15.7"",""a"":true}","9:17:56","1","3","Test_3","70","f","1","510.60000002384186","1792 x 1120","1792 x 1041","true","1","10","","","","",""
"null","<p style=""font-size: 80px;"">+ 10 points</p>","null","html-keyboard-response","118","601715","0.0-11.0-2.117","5f5b8a0de610d92df74219d7","lxmzmw","HGB","29","F","{""name"":""Chrome"",""chrome"":true,""version"":""105.0"",""blink"":true,""mac"":true,""osname"":""macOS"",""osversion"":""10.15.7"",""a"":true}","9:17:56","1","3","Test_2","74","j","1","528.7999999523163","1792 x 1120","1792 x 1041","true","1","10","","","","",""
"null","<p style=""font-size: 80px;"">+ 10 points</p>","null","html-keyboard-response","119","604559","0.0-11.0-2.118","5f5b8a0de610d92df74219d7","lxmzmw","HGB","29","F","{""name"":""Chrome"",""chrome"":true,""version"":""105.0"",""blink"":true,""mac"":true,""osname"":""macOS"",""osversion"":""10.15.7"",""a"":true}","9:17:56","1","3","Test_4","74","j","1","833","1792 x 1120","1792 x 1041","true","1","10","","","","",""
"null","<p style=""font-size: 80px;"">+ 10 points</p>","null","html-keyboard-response","120","607504","0.0-11.0-2.119","5f5b8a0de610d92df74219d7","lxmzmw","HGB","29","F","{""name"":""Chrome"",""chrome"":true,""version"":""105.0"",""blink"":true,""mac"":true,""osname"":""macOS"",""osversion"":""10.15.7"",""a"":true}","9:17:56","1","3","Test_4","74","j","1","934.5","1792 x 1120","1792 x 1041","true","1","10","","","","",""
"null","<p style=""font-size: 80px;"">+ 10 points</p>","null","html-keyboard-response","121","610218","0.0-11.0-2.120","5f5b8a0de610d92df74219d7","lxmzmw","HGB","29","F","{""name"":""Chrome"",""chrome"":true,""version"":""105.0"",""blink"":true,""mac"":true,""osname"":""macOS"",""osversion"":""10.15.7"",""a"":true}","9:17:56","1","3","Test_1","70","f","1","709.2000000476837","1792 x 1120","1792 x 1041","true","1","10","","","","",""
"null","<p style=""font-size: 80px;"">+ 10 points</p>","null","html-keyboard-response","122","612904","0.0-11.0-2.121","5f5b8a0de610d92df74219d7","lxmzmw","HGB","29","F","{""name"":""Chrome"",""chrome"":true,""version"":""105.0"",""blink"":true,""mac"":true,""osname"":""macOS"",""osversion"":""10.15.7"",""a"":true}","9:17:56","1","3","Test_3","70","f","1","678.8000000119209","1792 x 1120","1792 x 1041","true","1","10","","","","",""
"null","<p style=""font-size: 80px;"">+ 10 points</p>","null","html-keyboard-response","123","615631","0.0-11.0-2.122","5f5b8a0de610d92df74219d7","lxmzmw","HGB","29","F","{""name"":""Chrome"",""chrome"":true,""version"":""105.0"",""blink"":true,""mac"":true,""osname"":""macOS"",""osversion"":""10.15.7"",""a"":true}","9:17:56","1","3","Test_4","74","j","1","720.2000000476837","1792 x 1120","1792 x 1041","true","1","10","","","","",""
"null","<p style=""font-size: 80px;"">+ 0 points</p>","null","html-keyboard-response","124","618521","0.0-11.0-2.123","5f5b8a0de610d92df74219d7","lxmzmw","HGB","29","F","{""name"":""Chrome"",""chrome"":true,""version"":""105.0"",""blink"":true,""mac"":true,""osname"":""macOS"",""osversion"":""10.15.7"",""a"":true}","9:17:56","1","4","Test_1","70","j","0","883.1999999880791","1792 x 1120","1792 x 1041","true","1","0","","","","",""
"null","<p style=""font-size: 80px;"">+ 10 points</p>","null","html-keyboard-response","125","620999","0.0-11.0-2.124","5f5b8a0de610d92df74219d7","lxmzmw","HGB","29","F","{""name"":""Chrome"",""chrome"":true,""version"":""105.0"",""blink"":true,""mac"":true,""osname"":""macOS"",""osversion"":""10.15.7"",""a"":true}","9:17:56","1","4","Test_2","70","f","1","471.80000001192093","1792 x 1120","1792 x 1041","true","1","10","","","","",""
"null","<p style=""font-size: 80px;"">+ 0 points</p>","null","html-keyboard-response","126","623474","0.0-11.0-2.125","5f5b8a0de610d92df74219d7","lxmzmw","HGB","29","F","{""name"":""Chrome"",""chrome"":true,""version"":""105.0"",""blink"":true,""mac"":true,""osname"":""macOS"",""osversion"":""10.15.7"",""a"":true}","9:17:56","1","4","Test_4","74","f","0","465.69999998807907","1792 x 1120","1792 x 1041","true","1","0","","","","",""
"null","<p style=""font-size: 80px;"">+ 0 points</p>","null","html-keyboard-response","127","626004","0.0-11.0-2.126","5f5b8a0de610d92df74219d7","lxmzmw","HGB","29","F","{""name"":""Chrome"",""chrome"":true,""version"":""105.0"",""blink"":true,""mac"":true,""osname"":""macOS"",""osversion"":""10.15.7"",""a"":true}","9:17:56","1","4","Test_3","70","j","0","520.3000000119209","1792 x 1120","1792 x 1041","true","1","0","","","","",""
"null","<p style=""font-size: 80px;"">+ 10 points</p>","null","html-keyboard-response","128","628566","0.0-11.0-2.127","5f5b8a0de610d92df74219d7","lxmzmw","HGB","29","F","{""name"":""Chrome"",""chrome"":true,""version"":""105.0"",""blink"":true,""mac"":true,""osname"":""macOS"",""osversion"":""10.15.7"",""a"":true}","9:17:56","1","4","Test_3","74","j","1","552.4000000357628","1792 x 1120","1792 x 1041","true","1","10","","","","",""
"null","<p style=""font-size: 80px;"">+ 10 points</p>","null","html-keyboard-response","129","631257","0.0-11.0-2.128","5f5b8a0de610d92df74219d7","lxmzmw","HGB","29","F","{""name"":""Chrome"",""chrome"":true,""version"":""105.0"",""blink"":true,""mac"":true,""osname"":""macOS"",""osversion"":""10.15.7"",""a"":true}","9:17:56","1","4","Test_2","70","f","1","684.6999999880791","1792 x 1120","1792 x 1041","true","1","10","","","","",""
"null","<p style=""font-size: 80px;"">+ 10 points</p>","null","html-keyboard-response","130","634025","0.0-11.0-2.129","5f5b8a0de610d92df74219d7","lxmzmw","HGB","29","F","{""name"":""Chrome"",""chrome"":true,""version"":""105.0"",""blink"":true,""mac"":true,""osname"":""macOS"",""osversion"":""10.15.7"",""a"":true}","9:17:56","1","4","Test_4","70","f","1","762.3999999761581","1792 x 1120","1792 x 1041","true","1","10","","","","",""
"null","<p style=""font-size: 80px;"">+ 10 points</p>","null","html-keyboard-response","131","636895","0.0-11.0-2.130","5f5b8a0de610d92df74219d7","lxmzmw","HGB","29","F","{""name"":""Chrome"",""chrome"":true,""version"":""105.0"",""blink"":true,""mac"":true,""osname"":""macOS"",""osversion"":""10.15.7"",""a"":true}","9:17:56","1","4","Test_4","70","f","1","857.1999999880791","1792 x 1120","1792 x 1041","true","1","10","","","","",""
"null","<p style=""font-size: 80px;"">+ 10 points</p>","null","html-keyboard-response","132","639484","0.0-11.0-2.131","5f5b8a0de610d92df74219d7","lxmzmw","HGB","29","F","{""name"":""Chrome"",""chrome"":true,""version"":""105.0"",""blink"":true,""mac"":true,""osname"":""macOS"",""osversion"":""10.15.7"",""a"":true}","9:17:56","1","4","Test_2","70","f","1","579.0999999642372","1792 x 1120","1792 x 1041","true","1","10","","","","",""
"null","<p style=""font-size: 80px;"">+ 10 points</p>","null","html-keyboard-response","133","642308","0.0-11.0-2.132","5f5b8a0de610d92df74219d7","lxmzmw","HGB","29","F","{""name"":""Chrome"",""chrome"":true,""version"":""105.0"",""blink"":true,""mac"":true,""osname"":""macOS"",""osversion"":""10.15.7"",""a"":true}","9:17:56","1","4","Test_1","74","j","1","814.1999999880791","1792 x 1120","1792 x 1041","true","1","10","","","","",""
"null","<p style=""font-size: 80px;"">+ 10 points</p>","null","html-keyboard-response","134","645142","0.0-11.0-2.133","5f5b8a0de610d92df74219d7","lxmzmw","HGB","29","F","{""name"":""Chrome"",""chrome"":true,""version"":""105.0"",""blink"":true,""mac"":true,""osname"":""macOS"",""osversion"":""10.15.7"",""a"":true}","9:17:56","1","4","Test_4","70","f","1","824.3000000119209","1792 x 1120","1792 x 1041","true","1","10","","","","",""
"null","<p style=""font-size: 80px;"">+ 10 points</p>","null","html-keyboard-response","135","648443","0.0-11.0-2.134","5f5b8a0de610d92df74219d7","lxmzmw","HGB","29","F","{""name"":""Chrome"",""chrome"":true,""version"":""105.0"",""blink"":true,""mac"":true,""osname"":""macOS"",""osversion"":""10.15.7"",""a"":true}","9:17:56","1","4","Test_1","74","j","1","1291.3999999761581","1792 x 1120","1792 x 1041","true","1","10","","","","",""
"null","<p style=""font-size: 80px;"">+ 10 points</p>","null","html-keyboard-response","136","651728","0.0-11.0-2.135","5f5b8a0de610d92df74219d7","lxmzmw","HGB","29","F","{""name"":""Chrome"",""chrome"":true,""version"":""105.0"",""blink"":true,""mac"":true,""osname"":""macOS"",""osversion"":""10.15.7"",""a"":true}","9:17:56","1","4","Test_4","70","f","1","1277.0999999642372","1792 x 1120","1792 x 1041","true","1","10","","","","",""
"null","<p style=""font-size: 80px;"">+ 10 points</p>","null","html-keyboard-response","137","654637","0.0-11.0-2.136","5f5b8a0de610d92df74219d7","lxmzmw","HGB","29","F","{""name"":""Chrome"",""chrome"":true,""version"":""105.0"",""blink"":true,""mac"":true,""osname"":""macOS"",""osversion"":""10.15.7"",""a"":true}","9:17:56","1","4","Test_2","70","f","1","898.8000000119209","1792 x 1120","1792 x 1041","true","1","10","","","","",""
"null","<p style=""font-size: 80px;"">+ 10 points</p>","null","html-keyboard-response","138","657108","0.0-11.0-2.137","5f5b8a0de610d92df74219d7","lxmzmw","HGB","29","F","{""name"":""Chrome"",""chrome"":true,""version"":""105.0"",""blink"":true,""mac"":true,""osname"":""macOS"",""osversion"":""10.15.7"",""a"":true}","9:17:56","1","4","Test_2","70","f","1","460.10000002384186","1792 x 1120","1792 x 1041","true","1","10","","","","",""
"null","<p style=""font-size: 80px;"">+ 10 points</p>","null","html-keyboard-response","139","659655","0.0-11.0-2.138","5f5b8a0de610d92df74219d7","lxmzmw","HGB","29","F","{""name"":""Chrome"",""chrome"":true,""version"":""105.0"",""blink"":true,""mac"":true,""osname"":""macOS"",""osversion"":""10.15.7"",""a"":true}","9:17:56","1","4","Test_3","74","j","1","538.1999999880791","1792 x 1120","1792 x 1041","true","1","10","","","","",""
"null","<p style=""font-size: 80px;"">+ 10 points</p>","null","html-keyboard-response","140","662403","0.0-11.0-2.139","5f5b8a0de610d92df74219d7","lxmzmw","HGB","29","F","{""name"":""Chrome"",""chrome"":true,""version"":""105.0"",""blink"":true,""mac"":true,""osname"":""macOS"",""osversion"":""10.15.7"",""a"":true}","9:17:56","1","4","Test_1","74","j","1","741.1000000238419","1792 x 1120","1792 x 1041","true","1","10","","","","",""
"null","<p style=""font-size: 80px;"">+ 0 points</p>","null","html-keyboard-response","141","665651","0.0-11.0-2.140","5f5b8a0de610d92df74219d7","lxmzmw","HGB","29","F","{""name"":""Chrome"",""chrome"":true,""version"":""105.0"",""blink"":true,""mac"":true,""osname"":""macOS"",""osversion"":""10.15.7"",""a"":true}","9:17:56","1","3","Test_2","70","j","0","1238.8999999761581","1792 x 1120","1792 x 1041","true","1","0","","","","",""
"null","<p style=""font-size: 80px;"">+ 10 points</p>","null","html-keyboard-response","142","668288","0.0-11.0-2.141","5f5b8a0de610d92df74219d7","lxmzmw","HGB","29","F","{""name"":""Chrome"",""chrome"":true,""version"":""105.0"",""blink"":true,""mac"":true,""osname"":""macOS"",""osversion"":""10.15.7"",""a"":true}","9:17:56","1","3","Test_2","74","j","1","630.8999999761581","1792 x 1120","1792 x 1041","true","1","10","","","","",""
"null","<p style=""font-size: 80px;"">+ 10 points</p>","null","html-keyboard-response","143","670838","0.0-11.0-2.142","5f5b8a0de610d92df74219d7","lxmzmw","HGB","29","F","{""name"":""Chrome"",""chrome"":true,""version"":""105.0"",""blink"":true,""mac"":true,""osname"":""macOS"",""osversion"":""10.15.7"",""a"":true}","9:17:56","1","3","Test_3","70","f","1","543.3000000119209","1792 x 1120","1792 x 1041","true","1","10","","","","",""
"null","<p style=""font-size: 80px;"">+ 10 points</p>","null","html-keyboard-response","144","673691","0.0-11.0-2.143","5f5b8a0de610d92df74219d7","lxmzmw","HGB","29","F","{""name"":""Chrome"",""chrome"":true,""version"":""105.0"",""blink"":true,""mac"":true,""osname"":""macOS"",""osversion"":""10.15.7"",""a"":true}","9:17:56","1","3","Test_3","70","f","1","843.1999999880791","1792 x 1120","1792 x 1041","true","1","10","","","","",""
"null","<p style=""font-size: 80px;"">+ 10 points</p>","null","html-keyboard-response","145","676879","0.0-11.0-2.144","5f5b8a0de610d92df74219d7","lxmzmw","HGB","29","F","{""name"":""Chrome"",""chrome"":true,""version"":""105.0"",""blink"":true,""mac"":true,""osname"":""macOS"",""osversion"":""10.15.7"",""a"":true}","9:17:56","1","3","Test_1","70","f","1","1182.5999999642372","1792 x 1120","1792 x 1041","true","1","10","","","","",""
"null","<p style=""font-size: 80px;"">+ 10 points</p>","null","html-keyboard-response","146","679935","0.0-11.0-2.145","5f5b8a0de610d92df74219d7","lxmzmw","HGB","29","F","{""name"":""Chrome"",""chrome"":true,""version"":""105.0"",""blink"":true,""mac"":true,""osname"":""macOS"",""osversion"":""10.15.7"",""a"":true}","9:17:56","1","3","Test_1","70","f","1","1049.5","1792 x 1120","1792 x 1041","true","1","10","","","","",""
"null","<p style=""font-size: 80px;"">+ 10 points</p>","null","html-keyboard-response","147","682599","0.0-11.0-2.146","5f5b8a0de610d92df74219d7","lxmzmw","HGB","29","F","{""name"":""Chrome"",""chrome"":true,""version"":""105.0"",""blink"":true,""mac"":true,""osname"":""macOS"",""osversion"":""10.15.7"",""a"":true}","9:17:56","1","3","Test_3","70","f","1","651.6000000238419","1792 x 1120","1792 x 1041","true","1","10","","","","",""
"null","<p style=""font-size: 80px;"">+ 10 points</p>","null","html-keyboard-response","148","685276","0.0-11.0-2.147","5f5b8a0de610d92df74219d7","lxmzmw","HGB","29","F","{""name"":""Chrome"",""chrome"":true,""version"":""105.0"",""blink"":true,""mac"":true,""osname"":""macOS"",""osversion"":""10.15.7"",""a"":true}","9:17:56","1","3","Test_4","74","j","1","665.8000000119209","1792 x 1120","1792 x 1041","true","1","10","","","","",""
"null","<p style=""font-size: 80px;"">+ 10 points</p>","null","html-keyboard-response","149","688049","0.0-11.0-2.148","5f5b8a0de610d92df74219d7","lxmzmw","HGB","29","F","{""name"":""Chrome"",""chrome"":true,""version"":""105.0"",""blink"":true,""mac"":true,""osname"":""macOS"",""osversion"":""10.15.7"",""a"":true}","9:17:56","1","3","Test_1","70","f","1","769.4000000357628","1792 x 1120","1792 x 1041","true","1","10","","","","",""
"null","<p style=""font-size: 80px;"">+ 10 points</p>","null","html-keyboard-response","150","691034","0.0-11.0-2.149","5f5b8a0de610d92df74219d7","lxmzmw","HGB","29","F","{""name"":""Chrome"",""chrome"":true,""version"":""105.0"",""blink"":true,""mac"":true,""osname"":""macOS"",""osversion"":""10.15.7"",""a"":true}","9:17:56","1","3","Test_1","70","f","1","974.8000000119209","1792 x 1120","1792 x 1041","true","1","10","","","","",""
"null","<p style=""font-size: 80px;"">+ 10 points</p>","null","html-keyboard-response","151","693871","0.0-11.0-2.150","5f5b8a0de610d92df74219d7","lxmzmw","HGB","29","F","{""name"":""Chrome"",""chrome"":true,""version"":""105.0"",""blink"":true,""mac"":true,""osname"":""macOS"",""osversion"":""10.15.7"",""a"":true}","9:17:56","1","3","Test_4","74","j","1","825","1792 x 1120","1792 x 1041","true","1","10","","","","",""
"null","<p style=""font-size: 80px;"">+ 10 points</p>","null","html-keyboard-response","152","696593","0.0-11.0-2.151","5f5b8a0de610d92df74219d7","lxmzmw","HGB","29","F","{""name"":""Chrome"",""chrome"":true,""version"":""105.0"",""blink"":true,""mac"":true,""osname"":""macOS"",""osversion"":""10.15.7"",""a"":true}","9:17:56","1","3","Test_2","74","j","1","713.8000000119209","1792 x 1120","1792 x 1041","true","1","10","","","","",""
"null","<p style=""font-size: 80px;"">+ 10 points</p>","null","html-keyboard-response","153","699403","0.0-11.0-2.152","5f5b8a0de610d92df74219d7","lxmzmw","HGB","29","F","{""name"":""Chrome"",""chrome"":true,""version"":""105.0"",""blink"":true,""mac"":true,""osname"":""macOS"",""osversion"":""10.15.7"",""a"":true}","9:17:56","1","3","Test_4","74","j","1","797.9000000357628","1792 x 1120","1792 x 1041","true","1","10","","","","",""
"null","<p style=""font-size: 80px;"">+ 10 points</p>","null","html-keyboard-response","154","702270","0.0-11.0-2.153","5f5b8a0de610d92df74219d7","lxmzmw","HGB","29","F","{""name"":""Chrome"",""chrome"":true,""version"":""105.0"",""blink"":true,""mac"":true,""osname"":""macOS"",""osversion"":""10.15.7"",""a"":true}","9:17:56","1","3","Test_2","74","j","1","858.6000000238419","1792 x 1120","1792 x 1041","true","1","10","","","","",""
"null","<p style=""font-size: 80px;"">+ 10 points</p>","null","html-keyboard-response","155","705313","0.0-11.0-2.154","5f5b8a0de610d92df74219d7","lxmzmw","HGB","29","F","{""name"":""Chrome"",""chrome"":true,""version"":""105.0"",""blink"":true,""mac"":true,""osname"":""macOS"",""osversion"":""10.15.7"",""a"":true}","9:17:56","1","3","Test_4","74","j","1","1031.699999988079","1792 x 1120","1792 x 1041","true","1","10","","","","",""
"null","<p style=""font-size: 80px;"">+ 10 points</p>","null","html-keyboard-response","156","707887","0.0-11.0-2.155","5f5b8a0de610d92df74219d7","lxmzmw","HGB","29","F","{""name"":""Chrome"",""chrome"":true,""version"":""105.0"",""blink"":true,""mac"":true,""osname"":""macOS"",""osversion"":""10.15.7"",""a"":true}","9:17:56","1","3","Test_3","70","f","1","566.8999999761581","1792 x 1120","1792 x 1041","true","1","10","","","","",""
"null","<p style=""font-size: 80px;"">+ 10 points</p>","null","html-keyboard-response","157","710826","0.0-11.0-2.156","5f5b8a0de610d92df74219d7","lxmzmw","HGB","29","F","{""name"":""Chrome"",""chrome"":true,""version"":""105.0"",""blink"":true,""mac"":true,""osname"":""macOS"",""osversion"":""10.15.7"",""a"":true}","9:17:56","1","3","Test_1","70","f","1","930.7000000476837","1792 x 1120","1792 x 1041","true","1","10","","","","",""
"null","<p style=""font-size: 80px;"">+ 10 points</p>","null","html-keyboard-response","158","713521","0.0-11.0-2.157","5f5b8a0de610d92df74219d7","lxmzmw","HGB","29","F","{""name"":""Chrome"",""chrome"":true,""version"":""105.0"",""blink"":true,""mac"":true,""osname"":""macOS"",""osversion"":""10.15.7"",""a"":true}","9:17:56","1","3","Test_2","74","j","1","689.6000000238419","1792 x 1120","1792 x 1041","true","1","10","","","","",""
"null","<p style=""font-size: 80px;"">+ 10 points</p>","null","html-keyboard-response","159","716055","0.0-11.0-2.158","5f5b8a0de610d92df74219d7","lxmzmw","HGB","29","F","{""name"":""Chrome"",""chrome"":true,""version"":""105.0"",""blink"":true,""mac"":true,""osname"":""macOS"",""osversion"":""10.15.7"",""a"":true}","9:17:56","1","3","Test_3","70","f","1","525.7999999523163","1792 x 1120","1792 x 1041","true","1","10","","","","",""
"null","<p style=""font-size: 80px;"">+ 10 points</p>","null","html-keyboard-response","160","719032","0.0-11.0-2.159","5f5b8a0de610d92df74219d7","lxmzmw","HGB","29","F","{""name"":""Chrome"",""chrome"":true,""version"":""105.0"",""blink"":true,""mac"":true,""osname"":""macOS"",""osversion"":""10.15.7"",""a"":true}","9:17:56","1","3","Test_4","74","j","1","965.6000000238419","1792 x 1120","1792 x 1041","true","1","10","","","","",""
"null","<p style=""font-size: 80px;"">+ 0 points</p>","null","html-keyboard-response","161","722518","0.0-11.0-2.160","5f5b8a0de610d92df74219d7","lxmzmw","HGB","29","F","{""name"":""Chrome"",""chrome"":true,""version"":""105.0"",""blink"":true,""mac"":true,""osname"":""macOS"",""osversion"":""10.15.7"",""a"":true}","9:17:56","1","4","Test_1","70","j","0","1476.5","1792 x 1120","1792 x 1041","true","1","0","","","","",""
"null","<p style=""font-size: 80px;"">+ 10 points</p>","null","html-keyboard-response","162","725061","0.0-11.0-2.161","5f5b8a0de610d92df74219d7","lxmzmw","HGB","29","F","{""name"":""Chrome"",""chrome"":true,""version"":""105.0"",""blink"":true,""mac"":true,""osname"":""macOS"",""osversion"":""10.15.7"",""a"":true}","9:17:56","1","4","Test_3","74","j","1","537.1000000238419","1792 x 1120","1792 x 1041","true","1","10","","","","",""
"null","<p style=""font-size: 80px;"">+ 10 points</p>","null","html-keyboard-response","163","727845","0.0-11.0-2.162","5f5b8a0de610d92df74219d7","lxmzmw","HGB","29","F","{""name"":""Chrome"",""chrome"":true,""version"":""105.0"",""blink"":true,""mac"":true,""osname"":""macOS"",""osversion"":""10.15.7"",""a"":true}","9:17:56","1","4","Test_4","70","f","1","779.7000000476837","1792 x 1120","1792 x 1041","true","1","10","","","","",""
"null","<p style=""font-size: 80px;"">+ 10 points</p>","null","html-keyboard-response","164","731113","0.0-11.0-2.163","5f5b8a0de610d92df74219d7","lxmzmw","HGB","29","F","{""name"":""Chrome"",""chrome"":true,""version"":""105.0"",""blink"":true,""mac"":true,""osname"":""macOS"",""osversion"":""10.15.7"",""a"":true}","9:17:56","1","4","Test_4","70","f","1","1260.699999988079","1792 x 1120","1792 x 1041","true","1","10","","","","",""
"null","<p style=""font-size: 80px;"">+ 10 points</p>","null","html-keyboard-response","165","733889","0.0-11.0-2.164","5f5b8a0de610d92df74219d7","lxmzmw","HGB","29","F","{""name"":""Chrome"",""chrome"":true,""version"":""105.0"",""blink"":true,""mac"":true,""osname"":""macOS"",""osversion"":""10.15.7"",""a"":true}","9:17:56","1","4","Test_2","70","f","1","768.6999999880791","1792 x 1120","1792 x 1041","true","1","10","","","","",""
"null","<p style=""font-size: 80px;"">+ 10 points</p>","null","html-keyboard-response","166","736490","0.0-11.0-2.165","5f5b8a0de610d92df74219d7","lxmzmw","HGB","29","F","{""name"":""Chrome"",""chrome"":true,""version"":""105.0"",""blink"":true,""mac"":true,""osname"":""macOS"",""osversion"":""10.15.7"",""a"":true}","9:17:56","1","4","Test_3","74","j","1","593.0999999642372","1792 x 1120","1792 x 1041","true","1","10","","","","",""
"null","<p style=""font-size: 80px;"">+ 10 points</p>","null","html-keyboard-response","167","739018","0.0-11.0-2.166","5f5b8a0de610d92df74219d7","lxmzmw","HGB","29","F","{""name"":""Chrome"",""chrome"":true,""version"":""105.0"",""blink"":true,""mac"":true,""osname"":""macOS"",""osversion"":""10.15.7"",""a"":true}","9:17:56","1","4","Test_2","70","f","1","517.3000000119209","1792 x 1120","1792 x 1041","true","1","10","","","","",""
"null","<p style=""font-size: 80px;"">+ 10 points</p>","null","html-keyboard-response","168","742286","0.0-11.0-2.167","5f5b8a0de610d92df74219d7","lxmzmw","HGB","29","F","{""name"":""Chrome"",""chrome"":true,""version"":""105.0"",""blink"":true,""mac"":true,""osname"":""macOS"",""osversion"":""10.15.7"",""a"":true}","9:17:56","1","4","Test_4","70","f","1","1261.7999999523163","1792 x 1120","1792 x 1041","true","1","10","","","","",""
"null","<p style=""font-size: 80px;"">+ 10 points</p>","null","html-keyboard-response","169","745507","0.0-11.0-2.168","5f5b8a0de610d92df74219d7","lxmzmw","HGB","29","F","{""name"":""Chrome"",""chrome"":true,""version"":""105.0"",""blink"":true,""mac"":true,""osname"":""macOS"",""osversion"":""10.15.7"",""a"":true}","9:17:56","1","4","Test_3","74","j","1","1213.199999988079","1792 x 1120","1792 x 1041","true","1","10","","","","",""
"null","<p style=""font-size: 80px;"">+ 10 points</p>","null","html-keyboard-response","170","748328","0.0-11.0-2.169","5f5b8a0de610d92df74219d7","lxmzmw","HGB","29","F","{""name"":""Chrome"",""chrome"":true,""version"":""105.0"",""blink"":true,""mac"":true,""osname"":""macOS"",""osversion"":""10.15.7"",""a"":true}","9:17:56","1","4","Test_1","74","j","1","815.1000000238419","1792 x 1120","1792 x 1041","true","1","10","","","","",""
"null","<p style=""font-size: 80px;"">+ 10 points</p>","null","html-keyboard-response","171","752042","0.0-11.0-2.170","5f5b8a0de610d92df74219d7","lxmzmw","HGB","29","F","{""name"":""Chrome"",""chrome"":true,""version"":""105.0"",""blink"":true,""mac"":true,""osname"":""macOS"",""osversion"":""10.15.7"",""a"":true}","9:17:56","1","4","Test_4","70","f","1","1705.699999988079","1792 x 1120","1792 x 1041","true","1","10","","","","",""
"null","<p style=""font-size: 80px;"">+ 0 points</p>","null","html-keyboard-response","172","754795","0.0-11.0-2.171","5f5b8a0de610d92df74219d7","lxmzmw","HGB","29","F","{""name"":""Chrome"",""chrome"":true,""version"":""105.0"",""blink"":true,""mac"":true,""osname"":""macOS"",""osversion"":""10.15.7"",""a"":true}","9:17:56","1","4","Test_4","74","f","0","745.6999999880791","1792 x 1120","1792 x 1041","true","1","0","","","","",""
"null","<p style=""font-size: 80px;"">+ 10 points</p>","null","html-keyboard-response","173","757457","0.0-11.0-2.172","5f5b8a0de610d92df74219d7","lxmzmw","HGB","29","F","{""name"":""Chrome"",""chrome"":true,""version"":""105.0"",""blink"":true,""mac"":true,""osname"":""macOS"",""osversion"":""10.15.7"",""a"":true}","9:17:56","1","4","Test_1","74","j","1","652.0999999642372","1792 x 1120","1792 x 1041","true","1","10","","","","",""
"null","<p style=""font-size: 80px;"">+ 10 points</p>","null","html-keyboard-response","174","760424","0.0-11.0-2.173","5f5b8a0de610d92df74219d7","lxmzmw","HGB","29","F","{""name"":""Chrome"",""chrome"":true,""version"":""105.0"",""blink"":true,""mac"":true,""osname"":""macOS"",""osversion"":""10.15.7"",""a"":true}","9:17:56","1","4","Test_1","74","j","1","960.2000000476837","1792 x 1120","1792 x 1041","true","1","10","","","","",""
"null","<p style=""font-size: 80px;"">+ 10 points</p>","null","html-keyboard-response","175","762926","0.0-11.0-2.174","5f5b8a0de610d92df74219d7","lxmzmw","HGB","29","F","{""name"":""Chrome"",""chrome"":true,""version"":""105.0"",""blink"":true,""mac"":true,""osname"":""macOS"",""osversion"":""10.15.7"",""a"":true}","9:17:56","1","4","Test_3","74","j","1","495.69999998807907","1792 x 1120","1792 x 1041","true","1","10","","","","",""
"null","<p style=""font-size: 80px;"">+ 10 points</p>","null","html-keyboard-response","176","766184","0.0-11.0-2.175","5f5b8a0de610d92df74219d7","lxmzmw","HGB","29","F","{""name"":""Chrome"",""chrome"":true,""version"":""105.0"",""blink"":true,""mac"":true,""osname"":""macOS"",""osversion"":""10.15.7"",""a"":true}","9:17:56","1","4","Test_2","70","f","1","1251.7999999523163","1792 x 1120","1792 x 1041","true","1","10","","","","",""
"null","<p style=""font-size: 80px;"">+ 10 points</p>","null","html-keyboard-response","177","768816","0.0-11.0-2.176","5f5b8a0de610d92df74219d7","lxmzmw","HGB","29","F","{""name"":""Chrome"",""chrome"":true,""version"":""105.0"",""blink"":true,""mac"":true,""osname"":""macOS"",""osversion"":""10.15.7"",""a"":true}","9:17:56","1","4","Test_3","74","j","1","624.3000000119209","1792 x 1120","1792 x 1041","true","1","10","","","","",""
"null","<p style=""font-size: 80px;"">+ 10 points</p>","null","html-keyboard-response","178","771736","0.0-11.0-2.177","5f5b8a0de610d92df74219d7","lxmzmw","HGB","29","F","{""name"":""Chrome"",""chrome"":true,""version"":""105.0"",""blink"":true,""mac"":true,""osname"":""macOS"",""osversion"":""10.15.7"",""a"":true}","9:17:56","1","4","Test_1","74","j","1","912.2999999523163","1792 x 1120","1792 x 1041","true","1","10","","","","",""
"null","<p style=""font-size: 80px;"">+ 10 points</p>","null","html-keyboard-response","179","774219","0.0-11.0-2.178","5f5b8a0de610d92df74219d7","lxmzmw","HGB","29","F","{""name"":""Chrome"",""chrome"":true,""version"":""105.0"",""blink"":true,""mac"":true,""osname"":""macOS"",""osversion"":""10.15.7"",""a"":true}","9:17:56","1","4","Test_2","70","f","1","474.19999998807907","1792 x 1120","1792 x 1041","true","1","10","","","","",""
"null","<p style=""font-size: 80px;"">+ 10 points</p>","null","html-keyboard-response","180","776823","0.0-11.0-2.179","5f5b8a0de610d92df74219d7","lxmzmw","HGB","29","F","{""name"":""Chrome"",""chrome"":true,""version"":""105.0"",""blink"":true,""mac"":true,""osname"":""macOS"",""osversion"":""10.15.7"",""a"":true}","9:17:56","1","4","Test_2","70","f","1","593.5","1792 x 1120","1792 x 1041","true","1","10","","","","",""
"null","<p style=""font-size: 80px;"">+ 0 points</p>","null","html-keyboard-response","181","779540","0.0-11.0-2.180","5f5b8a0de610d92df74219d7","lxmzmw","HGB","29","F","{""name"":""Chrome"",""chrome"":true,""version"":""105.0"",""blink"":true,""mac"":true,""osname"":""macOS"",""osversion"":""10.15.7"",""a"":true}","9:17:56","1","3","Test_1","74","f","0","705.5","1792 x 1120","1792 x 1041","true","1","0","","","","",""
"null","<p style=""font-size: 80px;"">+ 10 points</p>","null","html-keyboard-response","182","782659","0.0-11.0-2.181","5f5b8a0de610d92df74219d7","lxmzmw","HGB","29","F","{""name"":""Chrome"",""chrome"":true,""version"":""105.0"",""blink"":true,""mac"":true,""osname"":""macOS"",""osversion"":""10.15.7"",""a"":true}","9:17:56","1","3","Test_4","74","j","1","1112.699999988079","1792 x 1120","1792 x 1041","true","1","10","","","","",""
"null","<p style=""font-size: 80px;"">+ 10 points</p>","null","html-keyboard-response","183","785575","0.0-11.0-2.182","5f5b8a0de610d92df74219d7","lxmzmw","HGB","29","F","{""name"":""Chrome"",""chrome"":true,""version"":""105.0"",""blink"":true,""mac"":true,""osname"":""macOS"",""osversion"":""10.15.7"",""a"":true}","9:17:56","1","3","Test_1","70","f","1","907.5999999642372","1792 x 1120","1792 x 1041","true","1","10","","","","",""
"null","<p style=""font-size: 80px;"">+ 10 points</p>","null","html-keyboard-response","184","788428","0.0-11.0-2.183","5f5b8a0de610d92df74219d7","lxmzmw","HGB","29","F","{""name"":""Chrome"",""chrome"":true,""version"":""105.0"",""blink"":true,""mac"":true,""osname"":""macOS"",""osversion"":""10.15.7"",""a"":true}","9:17:56","1","3","Test_1","70","f","1","844.3000000119209","1792 x 1120","1792 x 1041","true","1","10","","","","",""
"null","<p style=""font-size: 80px;"">+ 10 points</p>","null","html-keyboard-response","185","791179","0.0-11.0-2.184","5f5b8a0de610d92df74219d7","lxmzmw","HGB","29","F","{""name"":""Chrome"",""chrome"":true,""version"":""105.0"",""blink"":true,""mac"":true,""osname"":""macOS"",""osversion"":""10.15.7"",""a"":true}","9:17:56","1","3","Test_3","70","f","1","743","1792 x 1120","1792 x 1041","true","1","10","","","","",""
"null","<p style=""font-size: 80px;"">+ 10 points</p>","null","html-keyboard-response","186","793643","0.0-11.0-2.185","5f5b8a0de610d92df74219d7","lxmzmw","HGB","29","F","{""name"":""Chrome"",""chrome"":true,""version"":""105.0"",""blink"":true,""mac"":true,""osname"":""macOS"",""osversion"":""10.15.7"",""a"":true}","9:17:56","1","3","Test_2","74","j","1","458.2999999523163","1792 x 1120","1792 x 1041","true","1","10","","","","",""
"null","<p style=""font-size: 80px;"">+ 10 points</p>","null","html-keyboard-response","187","796536","0.0-11.0-2.186","5f5b8a0de610d92df74219d7","lxmzmw","HGB","29","F","{""name"":""Chrome"",""chrome"":true,""version"":""105.0"",""blink"":true,""mac"":true,""osname"":""macOS"",""osversion"":""10.15.7"",""a"":true}","9:17:56","1","3","Test_4","74","j","1","886.8000000119209","1792 x 1120","1792 x 1041","true","1","10","","","","",""
