"rt","stimulus","key_press","trial_type","trial_index","time_elapsed","internal_node_id","Prolific_ID","random_ID","initials","age","gender","pc_info","start_time","Phase","Rule","Stimulus","Response","CorrResp","Accuracy","ResponseTime","screen_resolution","window_resolution","focus","relevant","Points","responses","question_order","rev_check","butterfly_check","passed_practice"
"null","<p style=""font-size: 80px;"">+ 0 points</p>","null","html-keyboard-response","1","540548","0.0-7.0-2.0","5a384471e7bc8000010a8df2","e51uj1","SC","40","F","{""name"":""Chrome"",""chrome"":true,""version"":""106.0"",""blink"":true,""windows"":true,""osname"":""Windows"",""osversion"":""10"",""a"":true}","9:21:26","0","1","Practice_1","74","f","0","1434.2999999970198","1920 x 1080","1920 x 1080","true","1","0","","","","",""
"null","<p style=""font-size: 80px;"">+ 10 points</p>","null","html-keyboard-response","2","543550","0.0-7.0-2.1","5a384471e7bc8000010a8df2","e51uj1","SC","40","F","{""name"":""Chrome"",""chrome"":true,""version"":""106.0"",""blink"":true,""windows"":true,""osname"":""Windows"",""osversion"":""10"",""a"":true}","9:21:26","0","1","Practice_1","70","f","1","977.7999999970198","1920 x 1080","1920 x 1080","true","1","10","","","","",""
"null","<p style=""font-size: 80px;"">+ 10 points</p>","null","html-keyboard-response","3","547237","0.0-7.0-2.2","5a384471e7bc8000010a8df2","e51uj1","SC","40","F","{""name"":""Chrome"",""chrome"":true,""version"":""106.0"",""blink"":true,""windows"":true,""osname"":""Windows"",""osversion"":""10"",""a"":true}","9:21:26","0","1","Practice_2","74","j","1","1669.0999999940395","1920 x 1080","1920 x 1080","true","1","10","","","","",""
"null","<p style=""font-size: 80px;"">+ 10 points</p>","null","html-keyboard-response","4","550442","0.0-7.0-2.3","5a384471e7bc8000010a8df2","e51uj1","SC","40","F","{""name"":""Chrome"",""chrome"":true,""version"":""106.0"",""blink"":true,""windows"":true,""osname"":""Windows"",""osversion"":""10"",""a"":true}","9:21:26","0","1","Practice_3","70","f","1","1188.5","1920 x 1080","1920 x 1080","true","1","10","","","","",""
"null","<p style=""font-size: 80px;"">+ 10 points</p>","null","html-keyboard-response","5","554016","0.0-7.0-2.4","5a384471e7bc8000010a8df2","e51uj1","SC","40","F","{""name"":""Chrome"",""chrome"":true,""version"":""106.0"",""blink"":true,""windows"":true,""osname"":""Windows"",""osversion"":""10"",""a"":true}","9:21:26","0","1","Practice_4","74","j","1","1566.3999999910593","1920 x 1080","1920 x 1080","true","1","10","","","","",""
"null","<p style=""font-size: 80px;"">+ 10 points</p>","null","html-keyboard-response","6","557164","0.0-7.0-2.5","5a384471e7bc8000010a8df2","e51uj1","SC","40","F","{""name"":""Chrome"",""chrome"":true,""version"":""106.0"",""blink"":true,""windows"":true,""osname"":""Windows"",""osversion"":""10"",""a"":true}","9:21:26","0","1","Practice_4","74","j","1","1118.7999999970198","1920 x 1080","1920 x 1080","true","1","10","","","","",""
"null","<p style=""font-size: 80px;"">+ 10 points</p>","null","html-keyboard-response","7","560932","0.0-7.0-2.6","5a384471e7bc8000010a8df2","e51uj1","SC","40","F","{""name"":""Chrome"",""chrome"":true,""version"":""106.0"",""blink"":true,""windows"":true,""osname"":""Windows"",""osversion"":""10"",""a"":true}","9:21:26","0","1","Practice_1","70","f","1","1747.8999999910593","1920 x 1080","1920 x 1080","true","1","10","","","","",""
"null","<p style=""font-size: 80px;"">+ 10 points</p>","null","html-keyboard-response","8","564502","0.0-7.0-2.7","5a384471e7bc8000010a8df2","e51uj1","SC","40","F","{""name"":""Chrome"",""chrome"":true,""version"":""106.0"",""blink"":true,""windows"":true,""osname"":""Windows"",""osversion"":""10"",""a"":true}","9:21:26","0","1","Practice_3","70","f","1","1549.2999999970198","1920 x 1080","1920 x 1080","true","1","10","","","","",""
"null","<p style=""font-size: 80px;"">+ 10 points</p>","null","html-keyboard-response","9","567599","0.0-7.0-2.8","5a384471e7bc8000010a8df2","e51uj1","SC","40","F","{""name"":""Chrome"",""chrome"":true,""version"":""106.0"",""blink"":true,""windows"":true,""osname"":""Windows"",""osversion"":""10"",""a"":true}","9:21:26","0","1","Practice_2","74","j","1","1078.9000000059605","1920 x 1080","1920 x 1080","true","1","10","","","","",""
"null","<p style=""font-size: 80px;"">+ 10 points</p>","null","html-keyboard-response","10","570873","0.0-7.0-2.9","5a384471e7bc8000010a8df2","e51uj1","SC","40","F","{""name"":""Chrome"",""chrome"":true,""version"":""106.0"",""blink"":true,""windows"":true,""osname"":""Windows"",""osversion"":""10"",""a"":true}","9:21:26","0","1","Practice_4","74","j","1","1262.5","1920 x 1080","1920 x 1080","true","1","10","","","","",""
"null","<p style=""font-size: 80px;"">+ 10 points</p>","null","html-keyboard-response","11","574516","0.0-7.0-2.10","5a384471e7bc8000010a8df2","e51uj1","SC","40","F","{""name"":""Chrome"",""chrome"":true,""version"":""106.0"",""blink"":true,""windows"":true,""osname"":""Windows"",""osversion"":""10"",""a"":true}","9:21:26","0","1","Practice_1","70","f","1","1620.5","1920 x 1080","1920 x 1080","true","1","10","","","","",""
"null","<p style=""font-size: 80px;"">+ 10 points</p>","null","html-keyboard-response","12","577441","0.0-7.0-2.11","5a384471e7bc8000010a8df2","e51uj1","SC","40","F","{""name"":""Chrome"",""chrome"":true,""version"":""106.0"",""blink"":true,""windows"":true,""osname"":""Windows"",""osversion"":""10"",""a"":true}","9:21:26","0","1","Practice_2","74","j","1","908.0999999940395","1920 x 1080","1920 x 1080","true","1","10","","","","",""
"null","<p style=""font-size: 80px;"">+ 10 points</p>","null","html-keyboard-response","13","581285","0.0-7.0-2.12","5a384471e7bc8000010a8df2","e51uj1","SC","40","F","{""name"":""Chrome"",""chrome"":true,""version"":""106.0"",""blink"":true,""windows"":true,""osname"":""Windows"",""osversion"":""10"",""a"":true}","9:21:26","0","1","Practice_4","74","j","1","1822.800000011921","1920 x 1080","1920 x 1080","true","1","10","","","","",""
"null","<p style=""font-size: 80px;"">+ 10 points</p>","null","html-keyboard-response","14","584036","0.0-7.0-2.13","5a384471e7bc8000010a8df2","e51uj1","SC","40","F","{""name"":""Chrome"",""chrome"":true,""version"":""106.0"",""blink"":true,""windows"":true,""osname"":""Windows"",""osversion"":""10"",""a"":true}","9:21:26","0","1","Practice_3","70","f","1","725.7000000029802","1920 x 1080","1920 x 1080","true","1","10","","","","",""
"null","<p style=""font-size: 80px;"">+ 10 points</p>","null","html-keyboard-response","15","587330","0.0-7.0-2.14","5a384471e7bc8000010a8df2","e51uj1","SC","40","F","{""name"":""Chrome"",""chrome"":true,""version"":""106.0"",""blink"":true,""windows"":true,""osname"":""Windows"",""osversion"":""10"",""a"":true}","9:21:26","0","1","Practice_2","74","j","1","1276.2000000029802","1920 x 1080","1920 x 1080","true","1","10","","","","",""
"null","<p style=""font-size: 80px;"">+ 10 points</p>","null","html-keyboard-response","16","590193","0.0-7.0-2.15","5a384471e7bc8000010a8df2","e51uj1","SC","40","F","{""name"":""Chrome"",""chrome"":true,""version"":""106.0"",""blink"":true,""windows"":true,""osname"":""Windows"",""osversion"":""10"",""a"":true}","9:21:26","0","1","Practice_2","74","j","1","832.0999999940395","1920 x 1080","1920 x 1080","true","1","10","","","","",""
"null","<p style=""font-size: 80px;"">+ 10 points</p>","null","html-keyboard-response","17","593132","0.0-7.0-2.16","5a384471e7bc8000010a8df2","e51uj1","SC","40","F","{""name"":""Chrome"",""chrome"":true,""version"":""106.0"",""blink"":true,""windows"":true,""osname"":""Windows"",""osversion"":""10"",""a"":true}","9:21:26","0","1","Practice_3","70","f","1","906.3999999910593","1920 x 1080","1920 x 1080","true","1","10","","","","",""
"null","<p style=""font-size: 80px;"">+ 10 points</p>","null","html-keyboard-response","18","596046","0.0-7.0-2.17","5a384471e7bc8000010a8df2","e51uj1","SC","40","F","{""name"":""Chrome"",""chrome"":true,""version"":""106.0"",""blink"":true,""windows"":true,""osname"":""Windows"",""osversion"":""10"",""a"":true}","9:21:26","0","1","Practice_1","70","f","1","898.3999999910593","1920 x 1080","1920 x 1080","true","1","10","","","","",""
"null","<p style=""font-size: 80px;"">+ 10 points</p>","null","html-keyboard-response","19","599039","0.0-7.0-2.18","5a384471e7bc8000010a8df2","e51uj1","SC","40","F","{""name"":""Chrome"",""chrome"":true,""version"":""106.0"",""blink"":true,""windows"":true,""osname"":""Windows"",""osversion"":""10"",""a"":true}","9:21:26","0","1","Practice_3","70","f","1","983.7000000029802","1920 x 1080","1920 x 1080","true","1","10","","","","",""
"null","<p style=""font-size: 80px;"">+ 10 points</p>","null","html-keyboard-response","20","601769","0.0-7.0-2.19","5a384471e7bc8000010a8df2","e51uj1","SC","40","F","{""name"":""Chrome"",""chrome"":true,""version"":""106.0"",""blink"":true,""windows"":true,""osname"":""Windows"",""osversion"":""10"",""a"":true}","9:21:26","0","1","Practice_4","74","j","1","706.4000000059605","1920 x 1080","1920 x 1080","true","1","10","","","","",""
"null","<p style=""font-size: 80px;"">+ 0 points</p>","null","html-keyboard-response","21","604637","0.0-7.0-2.20","5a384471e7bc8000010a8df2","e51uj1","SC","40","F","{""name"":""Chrome"",""chrome"":true,""version"":""106.0"",""blink"":true,""windows"":true,""osname"":""Windows"",""osversion"":""10"",""a"":true}","9:21:26","0","2","Practice_2","74","f","0","850.9000000059605","1920 x 1080","1920 x 1080","true","1","0","","","","",""
"null","<p style=""font-size: 80px;"">+ 10 points</p>","null","html-keyboard-response","22","608046","0.0-7.0-2.21","5a384471e7bc8000010a8df2","e51uj1","SC","40","F","{""name"":""Chrome"",""chrome"":true,""version"":""106.0"",""blink"":true,""windows"":true,""osname"":""Windows"",""osversion"":""10"",""a"":true}","9:21:26","0","2","Practice_1","74","j","1","1403.2000000029802","1920 x 1080","1920 x 1080","true","1","10","","","","",""
"null","<p style=""font-size: 80px;"">+ 10 points</p>","null","html-keyboard-response","23","611008","0.0-7.0-2.22","5a384471e7bc8000010a8df2","e51uj1","SC","40","F","{""name"":""Chrome"",""chrome"":true,""version"":""106.0"",""blink"":true,""windows"":true,""osname"":""Windows"",""osversion"":""10"",""a"":true}","9:21:26","0","2","Practice_4","70","f","1","951.7999999970198","1920 x 1080","1920 x 1080","true","1","10","","","","",""
"null","<p style=""font-size: 80px;"">+ 10 points</p>","null","html-keyboard-response","24","615224","0.0-7.0-2.23","5a384471e7bc8000010a8df2","e51uj1","SC","40","F","{""name"":""Chrome"",""chrome"":true,""version"":""106.0"",""blink"":true,""windows"":true,""osname"":""Windows"",""osversion"":""10"",""a"":true}","9:21:26","0","2","Practice_3","74","j","1","2189.1000000089407","1920 x 1080","1920 x 1080","true","1","10","","","","",""
"null","<p style=""font-size: 80px;"">+ 10 points</p>","null","html-keyboard-response","25","618233","0.0-7.0-2.24","5a384471e7bc8000010a8df2","e51uj1","SC","40","F","{""name"":""Chrome"",""chrome"":true,""version"":""106.0"",""blink"":true,""windows"":true,""osname"":""Windows"",""osversion"":""10"",""a"":true}","9:21:26","0","2","Practice_4","70","f","1","987.2999999970198","1920 x 1080","1920 x 1080","true","1","10","","","","",""
"null","<p style=""font-size: 80px;"">+ 10 points</p>","null","html-keyboard-response","26","621292","0.0-7.0-2.25","5a384471e7bc8000010a8df2","e51uj1","SC","40","F","{""name"":""Chrome"",""chrome"":true,""version"":""106.0"",""blink"":true,""windows"":true,""osname"":""Windows"",""osversion"":""10"",""a"":true}","9:21:26","0","2","Practice_4","70","f","1","1033.5","1920 x 1080","1920 x 1080","true","1","10","","","","",""
"null","<p style=""font-size: 80px;"">+ 10 points</p>","null","html-keyboard-response","27","624615","0.0-7.0-2.26","5a384471e7bc8000010a8df2","e51uj1","SC","40","F","{""name"":""Chrome"",""chrome"":true,""version"":""106.0"",""blink"":true,""windows"":true,""osname"":""Windows"",""osversion"":""10"",""a"":true}","9:21:26","0","2","Practice_3","74","j","1","1304.9000000059605","1920 x 1080","1920 x 1080","true","1","10","","","","",""
"null","<p style=""font-size: 80px;"">+ 10 points</p>","null","html-keyboard-response","28","627730","0.0-7.0-2.27","5a384471e7bc8000010a8df2","e51uj1","SC","40","F","{""name"":""Chrome"",""chrome"":true,""version"":""106.0"",""blink"":true,""windows"":true,""osname"":""Windows"",""osversion"":""10"",""a"":true}","9:21:26","0","2","Practice_3","74","j","1","1097.7999999970198","1920 x 1080","1920 x 1080","true","1","10","","","","",""
"null","<p style=""font-size: 80px;"">+ 10 points</p>","null","html-keyboard-response","29","633098","0.0-7.0-2.28","5a384471e7bc8000010a8df2","e51uj1","SC","40","F","{""name"":""Chrome"",""chrome"":true,""version"":""106.0"",""blink"":true,""windows"":true,""osname"":""Windows"",""osversion"":""10"",""a"":true}","9:21:26","0","2","Practice_1","74","j","1","3354.6000000089407","1920 x 1080","1920 x 1080","true","1","10","","","","",""
"null","<p style=""font-size: 80px;"">+ 10 points</p>","null","html-keyboard-response","30","636516","0.0-7.0-2.29","5a384471e7bc8000010a8df2","e51uj1","SC","40","F","{""name"":""Chrome"",""chrome"":true,""version"":""106.0"",""blink"":true,""windows"":true,""osname"":""Windows"",""osversion"":""10"",""a"":true}","9:21:26","0","2","Practice_2","70","f","1","1390.0999999940395","1920 x 1080","1920 x 1080","true","1","10","","","","",""
"null","<p style=""font-size: 80px;"">+ 10 points</p>","null","html-keyboard-response","31","640810","0.0-7.0-2.30","5a384471e7bc8000010a8df2","e51uj1","SC","40","F","{""name"":""Chrome"",""chrome"":true,""version"":""106.0"",""blink"":true,""windows"":true,""osname"":""Windows"",""osversion"":""10"",""a"":true}","9:21:26","0","2","Practice_3","74","j","1","2279.0999999940395","1920 x 1080","1920 x 1080","true","1","10","","","","",""
"null","<p style=""font-size: 80px;"">+ 10 points</p>","null","html-keyboard-response","32","644158","0.0-7.0-2.31","5a384471e7bc8000010a8df2","e51uj1","SC","40","F","{""name"":""Chrome"",""chrome"":true,""version"":""106.0"",""blink"":true,""windows"":true,""osname"":""Windows"",""osversion"":""10"",""a"":true}","9:21:26","0","2","Practice_1","74","j","1","1329","1920 x 1080","1920 x 1080","true","1","10","","","","",""
"null","<p style=""font-size: 80px;"">+ 10 points</p>","null","html-keyboard-response","33","646937","0.0-7.0-2.32","5a384471e7bc8000010a8df2","e51uj1","SC","40","F","{""name"":""Chrome"",""chrome"":true,""version"":""106.0"",""blink"":true,""windows"":true,""osname"":""Windows"",""osversion"":""10"",""a"":true}","9:21:26","0","2","Practice_2","70","f","1","757.7999999970198","1920 x 1080","1920 x 1080","true","1","10","","","","",""
"null","<p style=""font-size: 80px;"">+ 10 points</p>","null","html-keyboard-response","34","650628","0.0-7.0-2.33","5a384471e7bc8000010a8df2","e51uj1","SC","40","F","{""name"":""Chrome"",""chrome"":true,""version"":""106.0"",""blink"":true,""windows"":true,""osname"":""Windows"",""osversion"":""10"",""a"":true}","9:21:26","0","2","Practice_4","70","f","1","1671.2000000029802","1920 x 1080","1920 x 1080","true","1","10","","","","",""
"null","<p style=""font-size: 80px;"">+ 10 points</p>","null","html-keyboard-response","35","653457","0.0-7.0-2.34","5a384471e7bc8000010a8df2","e51uj1","SC","40","F","{""name"":""Chrome"",""chrome"":true,""version"":""106.0"",""blink"":true,""windows"":true,""osname"":""Windows"",""osversion"":""10"",""a"":true}","9:21:26","0","2","Practice_4","70","f","1","809.8000000119209","1920 x 1080","1920 x 1080","true","1","10","","","","",""
"null","<p style=""font-size: 80px;"">+ 10 points</p>","null","html-keyboard-response","36","657590","0.0-7.0-2.35","5a384471e7bc8000010a8df2","e51uj1","SC","40","F","{""name"":""Chrome"",""chrome"":true,""version"":""106.0"",""blink"":true,""windows"":true,""osname"":""Windows"",""osversion"":""10"",""a"":true}","9:21:26","0","2","Practice_2","70","f","1","2123.2999999970198","1920 x 1080","1920 x 1080","true","1","10","","","","",""
"null","<p style=""font-size: 80px;"">+ 10 points</p>","null","html-keyboard-response","37","660709","0.0-7.0-2.36","5a384471e7bc8000010a8df2","e51uj1","SC","40","F","{""name"":""Chrome"",""chrome"":true,""version"":""106.0"",""blink"":true,""windows"":true,""osname"":""Windows"",""osversion"":""10"",""a"":true}","9:21:26","0","2","Practice_3","74","j","1","1104.7000000029802","1920 x 1080","1920 x 1080","true","1","10","","","","",""
"null","<p style=""font-size: 80px;"">+ 10 points</p>","null","html-keyboard-response","38","664279","0.0-7.0-2.37","5a384471e7bc8000010a8df2","e51uj1","SC","40","F","{""name"":""Chrome"",""chrome"":true,""version"":""106.0"",""blink"":true,""windows"":true,""osname"":""Windows"",""osversion"":""10"",""a"":true}","9:21:26","0","2","Practice_2","70","f","1","1553","1920 x 1080","1920 x 1080","true","1","10","","","","",""
"null","<p style=""font-size: 80px;"">+ 10 points</p>","null","html-keyboard-response","39","668887","0.0-7.0-2.38","5a384471e7bc8000010a8df2","e51uj1","SC","40","F","{""name"":""Chrome"",""chrome"":true,""version"":""106.0"",""blink"":true,""windows"":true,""osname"":""Windows"",""osversion"":""10"",""a"":true}","9:21:26","0","2","Practice_1","74","j","1","2593.5","1920 x 1080","1920 x 1080","true","1","10","","","","",""
"null","<p style=""font-size: 80px;"">+ 10 points</p>","null","html-keyboard-response","40","671887","0.0-7.0-2.39","5a384471e7bc8000010a8df2","e51uj1","SC","40","F","{""name"":""Chrome"",""chrome"":true,""version"":""106.0"",""blink"":true,""windows"":true,""osname"":""Windows"",""osversion"":""10"",""a"":true}","9:21:26","0","2","Practice_1","74","j","1","971.2000000029802","1920 x 1080","1920 x 1080","true","1","10","","","","",""
"24757.29999999702","","","survey-multi-choice","127","696647","0.0-8.0","5a384471e7bc8000010a8df2","e51uj1","SC","40","F","{""name"":""Chrome"",""chrome"":true,""version"":""106.0"",""blink"":true,""windows"":true,""osname"":""Windows"",""osversion"":""10"",""a"":true}","9:21:26","","","","","","","","","","","1","","{""Q0"":""The red one"",""Q1"":""1""}","[0,1]","1","The red one","2"
"null","<p style=""font-size: 80px;"">+ 10 points</p>","null","html-keyboard-response","1","742667","0.0-11.0-2.0","5a384471e7bc8000010a8df2","e51uj1","SC","40","F","{""name"":""Chrome"",""chrome"":true,""version"":""106.0"",""blink"":true,""windows"":true,""osname"":""Windows"",""osversion"":""10"",""a"":true}","9:21:26","1","4","Test_3","74","j","1","2098.300000011921","1920 x 1080","1920 x 1080","true","1","10","","","","",""
"null","<p style=""font-size: 80px;"">+ 10 points</p>","null","html-keyboard-response","2","745488","0.0-11.0-2.1","5a384471e7bc8000010a8df2","e51uj1","SC","40","F","{""name"":""Chrome"",""chrome"":true,""version"":""106.0"",""blink"":true,""windows"":true,""osname"":""Windows"",""osversion"":""10"",""a"":true}","9:21:26","1","4","Test_2","70","f","1","810.6000000089407","1920 x 1080","1920 x 1080","true","1","10","","","","",""
"null","<p style=""font-size: 80px;"">+ 10 points</p>","null","html-keyboard-response","3","749084","0.0-11.0-2.2","5a384471e7bc8000010a8df2","e51uj1","SC","40","F","{""name"":""Chrome"",""chrome"":true,""version"":""106.0"",""blink"":true,""windows"":true,""osname"":""Windows"",""osversion"":""10"",""a"":true}","9:21:26","1","4","Test_1","74","j","1","1561.4000000059605","1920 x 1080","1920 x 1080","true","1","10","","","","",""
"null","<p style=""font-size: 80px;"">+ 10 points</p>","null","html-keyboard-response","4","751996","0.0-11.0-2.3","5a384471e7bc8000010a8df2","e51uj1","SC","40","F","{""name"":""Chrome"",""chrome"":true,""version"":""106.0"",""blink"":true,""windows"":true,""osname"":""Windows"",""osversion"":""10"",""a"":true}","9:21:26","1","4","Test_3","74","j","1","895.2999999970198","1920 x 1080","1920 x 1080","true","1","10","","","","",""
"null","<p style=""font-size: 80px;"">+ 10 points</p>","null","html-keyboard-response","5","754644","0.0-11.0-2.4","5a384471e7bc8000010a8df2","e51uj1","SC","40","F","{""name"":""Chrome"",""chrome"":true,""version"":""106.0"",""blink"":true,""windows"":true,""osname"":""Windows"",""osversion"":""10"",""a"":true}","9:21:26","1","4","Test_2","70","f","1","630.5","1920 x 1080","1920 x 1080","true","1","10","","","","",""
"null","<p style=""font-size: 80px;"">+ 10 points</p>","null","html-keyboard-response","6","757467","0.0-11.0-2.5","5a384471e7bc8000010a8df2","e51uj1","SC","40","F","{""name"":""Chrome"",""chrome"":true,""version"":""106.0"",""blink"":true,""windows"":true,""osname"":""Windows"",""osversion"":""10"",""a"":true}","9:21:26","1","4","Test_3","74","j","1","809.2999999970198","1920 x 1080","1920 x 1080","true","1","10","","","","",""
"null","<p style=""font-size: 80px;"">+ 10 points</p>","null","html-keyboard-response","7","760512","0.0-11.0-2.6","5a384471e7bc8000010a8df2","e51uj1","SC","40","F","{""name"":""Chrome"",""chrome"":true,""version"":""106.0"",""blink"":true,""windows"":true,""osname"":""Windows"",""osversion"":""10"",""a"":true}","9:21:26","1","4","Test_4","70","f","1","1015.1999999880791","1920 x 1080","1920 x 1080","true","1","10","","","","",""
"null","<p style=""font-size: 80px;"">+ 10 points</p>","null","html-keyboard-response","8","763284","0.0-11.0-2.7","5a384471e7bc8000010a8df2","e51uj1","SC","40","F","{""name"":""Chrome"",""chrome"":true,""version"":""106.0"",""blink"":true,""windows"":true,""osname"":""Windows"",""osversion"":""10"",""a"":true}","9:21:26","1","4","Test_4","70","f","1","750.8000000119209","1920 x 1080","1920 x 1080","true","1","10","","","","",""
"null","<p style=""font-size: 80px;"">+ 10 points</p>","null","html-keyboard-response","9","766121","0.0-11.0-2.8","5a384471e7bc8000010a8df2","e51uj1","SC","40","F","{""name"":""Chrome"",""chrome"":true,""version"":""106.0"",""blink"":true,""windows"":true,""osname"":""Windows"",""osversion"":""10"",""a"":true}","9:21:26","1","4","Test_3","74","j","1","810.5","1920 x 1080","1920 x 1080","true","1","10","","","","",""
"null","<p style=""font-size: 80px;"">+ 10 points</p>","null","html-keyboard-response","10","768951","0.0-11.0-2.9","5a384471e7bc8000010a8df2","e51uj1","SC","40","F","{""name"":""Chrome"",""chrome"":true,""version"":""106.0"",""blink"":true,""windows"":true,""osname"":""Windows"",""osversion"":""10"",""a"":true}","9:21:26","1","4","Test_2","70","f","1","814","1920 x 1080","1920 x 1080","true","1","10","","","","",""
"null","<p style=""font-size: 80px;"">+ 10 points</p>","null","html-keyboard-response","11","772418","0.0-11.0-2.10","5a384471e7bc8000010a8df2","e51uj1","SC","40","F","{""name"":""Chrome"",""chrome"":true,""version"":""106.0"",""blink"":true,""windows"":true,""osname"":""Windows"",""osversion"":""10"",""a"":true}","9:21:26","1","4","Test_1","74","j","1","1456.5","1920 x 1080","1920 x 1080","true","1","10","","","","",""
"null","<p style=""font-size: 80px;"">+ 10 points</p>","null","html-keyboard-response","12","775037","0.0-11.0-2.11","5a384471e7bc8000010a8df2","e51uj1","SC","40","F","{""name"":""Chrome"",""chrome"":true,""version"":""106.0"",""blink"":true,""windows"":true,""osname"":""Windows"",""osversion"":""10"",""a"":true}","9:21:26","1","4","Test_2","70","f","1","603.5999999940395","1920 x 1080","1920 x 1080","true","1","10","","","","",""
"null","<p style=""font-size: 80px;"">+ 0 points</p>","null","html-keyboard-response","13","777709","0.0-11.0-2.12","5a384471e7bc8000010a8df2","e51uj1","SC","40","F","{""name"":""Chrome"",""chrome"":true,""version"":""106.0"",""blink"":true,""windows"":true,""osname"":""Windows"",""osversion"":""10"",""a"":true}","9:21:26","1","4","Test_4","74","f","0","653.5999999940395","1920 x 1080","1920 x 1080","true","1","0","","","","",""
"null","<p style=""font-size: 80px;"">+ 10 points</p>","null","html-keyboard-response","14","781361","0.0-11.0-2.13","5a384471e7bc8000010a8df2","e51uj1","SC","40","F","{""name"":""Chrome"",""chrome"":true,""version"":""106.0"",""blink"":true,""windows"":true,""osname"":""Windows"",""osversion"":""10"",""a"":true}","9:21:26","1","4","Test_1","74","j","1","1629.300000011921","1920 x 1080","1920 x 1080","true","1","10","","","","",""
"null","<p style=""font-size: 80px;"">+ 10 points</p>","null","html-keyboard-response","15","784366","0.0-11.0-2.14","5a384471e7bc8000010a8df2","e51uj1","SC","40","F","{""name"":""Chrome"",""chrome"":true,""version"":""106.0"",""blink"":true,""windows"":true,""osname"":""Windows"",""osversion"":""10"",""a"":true}","9:21:26","1","4","Test_4","70","f","1","989.0999999940395","1920 x 1080","1920 x 1080","true","1","10","","","","",""
"null","<p style=""font-size: 80px;"">+ 0 points</p>","null","html-keyboard-response","16","787355","0.0-11.0-2.15","5a384471e7bc8000010a8df2","e51uj1","SC","40","F","{""name"":""Chrome"",""chrome"":true,""version"":""106.0"",""blink"":true,""windows"":true,""osname"":""Windows"",""osversion"":""10"",""a"":true}","9:21:26","1","3","Test_1","74","f","0","974.5999999940395","1920 x 1080","1920 x 1080","true","1","0","","","","",""
"null","<p style=""font-size: 80px;"">+ 10 points</p>","null","html-keyboard-response","17","790573","0.0-11.0-2.16","5a384471e7bc8000010a8df2","e51uj1","SC","40","F","{""name"":""Chrome"",""chrome"":true,""version"":""106.0"",""blink"":true,""windows"":true,""osname"":""Windows"",""osversion"":""10"",""a"":true}","9:21:26","1","3","Test_4","74","j","1","1194.2000000029802","1920 x 1080","1920 x 1080","true","1","10","","","","",""
"null","<p style=""font-size: 80px;"">+ 10 points</p>","null","html-keyboard-response","18","793627","0.0-11.0-2.17","5a384471e7bc8000010a8df2","e51uj1","SC","40","F","{""name"":""Chrome"",""chrome"":true,""version"":""106.0"",""blink"":true,""windows"":true,""osname"":""Windows"",""osversion"":""10"",""a"":true}","9:21:26","1","3","Test_4","74","j","1","1022.7999999970198","1920 x 1080","1920 x 1080","true","1","10","","","","",""
"null","<p style=""font-size: 80px;"">+ 10 points</p>","null","html-keyboard-response","19","796376","0.0-11.0-2.18","5a384471e7bc8000010a8df2","e51uj1","SC","40","F","{""name"":""Chrome"",""chrome"":true,""version"":""106.0"",""blink"":true,""windows"":true,""osname"":""Windows"",""osversion"":""10"",""a"":true}","9:21:26","1","3","Test_4","74","j","1","733.8999999910593","1920 x 1080","1920 x 1080","true","1","10","","","","",""
"null","<p style=""font-size: 80px;"">+ 10 points</p>","null","html-keyboard-response","20","799424","0.0-11.0-2.19","5a384471e7bc8000010a8df2","e51uj1","SC","40","F","{""name"":""Chrome"",""chrome"":true,""version"":""106.0"",""blink"":true,""windows"":true,""osname"":""Windows"",""osversion"":""10"",""a"":true}","9:21:26","1","3","Test_2","74","j","1","1026.3999999910593","1920 x 1080","1920 x 1080","true","1","10","","","","",""
"null","<p style=""font-size: 80px;"">+ 10 points</p>","null","html-keyboard-response","21","802202","0.0-11.0-2.20","5a384471e7bc8000010a8df2","e51uj1","SC","40","F","{""name"":""Chrome"",""chrome"":true,""version"":""106.0"",""blink"":true,""windows"":true,""osname"":""Windows"",""osversion"":""10"",""a"":true}","9:21:26","1","3","Test_3","70","f","1","748.6000000089407","1920 x 1080","1920 x 1080","true","1","10","","","","",""
"null","<p style=""font-size: 80px;"">+ 10 points</p>","null","html-keyboard-response","22","805249","0.0-11.0-2.21","5a384471e7bc8000010a8df2","e51uj1","SC","40","F","{""name"":""Chrome"",""chrome"":true,""version"":""106.0"",""blink"":true,""windows"":true,""osname"":""Windows"",""osversion"":""10"",""a"":true}","9:21:26","1","3","Test_4","74","j","1","1023.7999999970198","1920 x 1080","1920 x 1080","true","1","10","","","","",""
"null","<p style=""font-size: 80px;"">+ 10 points</p>","null","html-keyboard-response","23","808240","0.0-11.0-2.22","5a384471e7bc8000010a8df2","e51uj1","SC","40","F","{""name"":""Chrome"",""chrome"":true,""version"":""106.0"",""blink"":true,""windows"":true,""osname"":""Windows"",""osversion"":""10"",""a"":true}","9:21:26","1","3","Test_2","74","j","1","968.2000000029802","1920 x 1080","1920 x 1080","true","1","10","","","","",""
"null","<p style=""font-size: 80px;"">+ 10 points</p>","null","html-keyboard-response","24","810885","0.0-11.0-2.23","5a384471e7bc8000010a8df2","e51uj1","SC","40","F","{""name"":""Chrome"",""chrome"":true,""version"":""106.0"",""blink"":true,""windows"":true,""osname"":""Windows"",""osversion"":""10"",""a"":true}","9:21:26","1","3","Test_4","74","j","1","625.7000000029802","1920 x 1080","1920 x 1080","true","1","10","","","","",""
"null","<p style=""font-size: 80px;"">+ 10 points</p>","null","html-keyboard-response","25","814783","0.0-11.0-2.24","5a384471e7bc8000010a8df2","e51uj1","SC","40","F","{""name"":""Chrome"",""chrome"":true,""version"":""106.0"",""blink"":true,""windows"":true,""osname"":""Windows"",""osversion"":""10"",""a"":true}","9:21:26","1","3","Test_1","70","f","1","1881.6000000089407","1920 x 1080","1920 x 1080","true","1","10","","","","",""
"null","<p style=""font-size: 80px;"">+ 10 points</p>","null","html-keyboard-response","26","817519","0.0-11.0-2.25","5a384471e7bc8000010a8df2","e51uj1","SC","40","F","{""name"":""Chrome"",""chrome"":true,""version"":""106.0"",""blink"":true,""windows"":true,""osname"":""Windows"",""osversion"":""10"",""a"":true}","9:21:26","1","3","Test_2","74","j","1","717.2000000029802","1920 x 1080","1920 x 1080","true","1","10","","","","",""
"null","<p style=""font-size: 80px;"">+ 10 points</p>","null","html-keyboard-response","27","820221","0.0-11.0-2.26","5a384471e7bc8000010a8df2","e51uj1","SC","40","F","{""name"":""Chrome"",""chrome"":true,""version"":""106.0"",""blink"":true,""windows"":true,""osname"":""Windows"",""osversion"":""10"",""a"":true}","9:21:26","1","3","Test_1","70","f","1","695.4000000059605","1920 x 1080","1920 x 1080","true","1","10","","","","",""
"null","<p style=""font-size: 80px;"">+ 10 points</p>","null","html-keyboard-response","28","823374","0.0-11.0-2.27","5a384471e7bc8000010a8df2","e51uj1","SC","40","F","{""name"":""Chrome"",""chrome"":true,""version"":""106.0"",""blink"":true,""windows"":true,""osname"":""Windows"",""osversion"":""10"",""a"":true}","9:21:26","1","3","Test_3","70","f","1","1130.5","1920 x 1080","1920 x 1080","true","1","10","","","","",""
"null","<p style=""font-size: 80px;"">+ 10 points</p>","null","html-keyboard-response","29","826217","0.0-11.0-2.28","5a384471e7bc8000010a8df2","e51uj1","SC","40","F","{""name"":""Chrome"",""chrome"":true,""version"":""106.0"",""blink"":true,""windows"":true,""osname"":""Windows"",""osversion"":""10"",""a"":true}","9:21:26","1","3","Test_3","70","f","1","823","1920 x 1080","1920 x 1080","true","1","10","","","","",""
"null","<p style=""font-size: 80px;"">+ 10 points</p>","null","html-keyboard-response","30","829509","0.0-11.0-2.29","5a384471e7bc8000010a8df2","e51uj1","SC","40","F","{""name"":""Chrome"",""chrome"":true,""version"":""106.0"",""blink"":true,""windows"":true,""osname"":""Windows"",""osversion"":""10"",""a"":true}","9:21:26","1","3","Test_1","70","f","1","1273.2000000029802","1920 x 1080","1920 x 1080","true","1","10","","","","",""
"null","<p style=""font-size: 80px;"">+ 10 points</p>","null","html-keyboard-response","31","832298","0.0-11.0-2.30","5a384471e7bc8000010a8df2","e51uj1","SC","40","F","{""name"":""Chrome"",""chrome"":true,""version"":""106.0"",""blink"":true,""windows"":true,""osname"":""Windows"",""osversion"":""10"",""a"":true}","9:21:26","1","3","Test_2","74","j","1","763.5","1920 x 1080","1920 x 1080","true","1","10","","","","",""
"null","<p style=""font-size: 80px;"">+ 10 points</p>","null","html-keyboard-response","32","835770","0.0-11.0-2.31","5a384471e7bc8000010a8df2","e51uj1","SC","40","F","{""name"":""Chrome"",""chrome"":true,""version"":""106.0"",""blink"":true,""windows"":true,""osname"":""Windows"",""osversion"":""10"",""a"":true}","9:21:26","1","3","Test_3","70","f","1","1455.4000000059605","1920 x 1080","1920 x 1080","true","1","10","","","","",""
"null","<p style=""font-size: 80px;"">+ 10 points</p>","null","html-keyboard-response","33","838669","0.0-11.0-2.32","5a384471e7bc8000010a8df2","e51uj1","SC","40","F","{""name"":""Chrome"",""chrome"":true,""version"":""106.0"",""blink"":true,""windows"":true,""osname"":""Windows"",""osversion"":""10"",""a"":true}","9:21:26","1","3","Test_1","70","f","1","886.5999999940395","1920 x 1080","1920 x 1080","true","1","10","","","","",""
"null","<p style=""font-size: 80px;"">+ 10 points</p>","null","html-keyboard-response","34","842166","0.0-11.0-2.33","5a384471e7bc8000010a8df2","e51uj1","SC","40","F","{""name"":""Chrome"",""chrome"":true,""version"":""106.0"",""blink"":true,""windows"":true,""osname"":""Windows"",""osversion"":""10"",""a"":true}","9:21:26","1","3","Test_2","74","j","1","1468.7000000029802","1920 x 1080","1920 x 1080","true","1","10","","","","",""
"null","<p style=""font-size: 80px;"">+ 10 points</p>","null","html-keyboard-response","35","845006","0.0-11.0-2.34","5a384471e7bc8000010a8df2","e51uj1","SC","40","F","{""name"":""Chrome"",""chrome"":true,""version"":""106.0"",""blink"":true,""windows"":true,""osname"":""Windows"",""osversion"":""10"",""a"":true}","9:21:26","1","3","Test_1","70","f","1","818.2999999970198","1920 x 1080","1920 x 1080","true","1","10","","","","",""
"null","<p style=""font-size: 80px;"">+ 10 points</p>","null","html-keyboard-response","36","847817","0.0-11.0-2.35","5a384471e7bc8000010a8df2","e51uj1","SC","40","F","{""name"":""Chrome"",""chrome"":true,""version"":""106.0"",""blink"":true,""windows"":true,""osname"":""Windows"",""osversion"":""10"",""a"":true}","9:21:26","1","3","Test_3","70","f","1","785.2000000029802","1920 x 1080","1920 x 1080","true","1","10","","","","",""
"null","<p style=""font-size: 80px;"">+ 10 points</p>","null","html-keyboard-response","37","851116","0.0-11.0-2.36","5a384471e7bc8000010a8df2","e51uj1","SC","40","F","{""name"":""Chrome"",""chrome"":true,""version"":""106.0"",""blink"":true,""windows"":true,""osname"":""Windows"",""osversion"":""10"",""a"":true}","9:21:26","1","3","Test_3","70","f","1","1273","1920 x 1080","1920 x 1080","true","1","10","","","","",""
"null","<p style=""font-size: 80px;"">+ 10 points</p>","null","html-keyboard-response","38","854737","0.0-11.0-2.37","5a384471e7bc8000010a8df2","e51uj1","SC","40","F","{""name"":""Chrome"",""chrome"":true,""version"":""106.0"",""blink"":true,""windows"":true,""osname"":""Windows"",""osversion"":""10"",""a"":true}","9:21:26","1","3","Test_2","74","j","1","1600.5999999940395","1920 x 1080","1920 x 1080","true","1","10","","","","",""
"null","<p style=""font-size: 80px;"">+ 0 points</p>","null","html-keyboard-response","39","858556","0.0-11.0-2.38","5a384471e7bc8000010a8df2","e51uj1","SC","40","F","{""name"":""Chrome"",""chrome"":true,""version"":""106.0"",""blink"":true,""windows"":true,""osname"":""Windows"",""osversion"":""10"",""a"":true}","9:21:26","1","4","Test_2","74","f","0","1812.2999999970198","1920 x 1080","1920 x 1080","true","1","0","","","","",""
"null","<p style=""font-size: 80px;"">+ 10 points</p>","null","html-keyboard-response","40","862487","0.0-11.0-2.39","5a384471e7bc8000010a8df2","e51uj1","SC","40","F","{""name"":""Chrome"",""chrome"":true,""version"":""106.0"",""blink"":true,""windows"":true,""osname"":""Windows"",""osversion"":""10"",""a"":true}","9:21:26","1","4","Test_4","70","f","1","1899.5","1920 x 1080","1920 x 1080","true","1","10","","","","",""
"null","<p style=""font-size: 80px;"">+ 10 points</p>","null","html-keyboard-response","41","865447","0.0-11.0-2.40","5a384471e7bc8000010a8df2","e51uj1","SC","40","F","{""name"":""Chrome"",""chrome"":true,""version"":""106.0"",""blink"":true,""windows"":true,""osname"":""Windows"",""osversion"":""10"",""a"":true}","9:21:26","1","4","Test_2","70","f","1","935.5","1920 x 1080","1920 x 1080","true","1","10","","","","",""
"null","<p style=""font-size: 80px;"">+ 10 points</p>","null","html-keyboard-response","42","868288","0.0-11.0-2.41","5a384471e7bc8000010a8df2","e51uj1","SC","40","F","{""name"":""Chrome"",""chrome"":true,""version"":""106.0"",""blink"":true,""windows"":true,""osname"":""Windows"",""osversion"":""10"",""a"":true}","9:21:26","1","4","Test_1","74","j","1","815.3999999910593","1920 x 1080","1920 x 1080","true","1","10","","","","",""
"null","<p style=""font-size: 80px;"">+ 10 points</p>","null","html-keyboard-response","43","871327","0.0-11.0-2.42","5a384471e7bc8000010a8df2","e51uj1","SC","40","F","{""name"":""Chrome"",""chrome"":true,""version"":""106.0"",""blink"":true,""windows"":true,""osname"":""Windows"",""osversion"":""10"",""a"":true}","9:21:26","1","4","Test_2","70","f","1","1016","1920 x 1080","1920 x 1080","true","1","10","","","","",""
"null","<p style=""font-size: 80px;"">+ 10 points</p>","null","html-keyboard-response","44","874080","0.0-11.0-2.43","5a384471e7bc8000010a8df2","e51uj1","SC","40","F","{""name"":""Chrome"",""chrome"":true,""version"":""106.0"",""blink"":true,""windows"":true,""osname"":""Windows"",""osversion"":""10"",""a"":true}","9:21:26","1","4","Test_4","70","f","1","735.9000000059605","1920 x 1080","1920 x 1080","true","1","10","","","","",""
"null","<p style=""font-size: 80px;"">+ 10 points</p>","null","html-keyboard-response","45","876798","0.0-11.0-2.44","5a384471e7bc8000010a8df2","e51uj1","SC","40","F","{""name"":""Chrome"",""chrome"":true,""version"":""106.0"",""blink"":true,""windows"":true,""osname"":""Windows"",""osversion"":""10"",""a"":true}","9:21:26","1","4","Test_2","70","f","1","701.5","1920 x 1080","1920 x 1080","true","1","10","","","","",""
"null","<p style=""font-size: 80px;"">+ 10 points</p>","null","html-keyboard-response","46","880603","0.0-11.0-2.45","5a384471e7bc8000010a8df2","e51uj1","SC","40","F","{""name"":""Chrome"",""chrome"":true,""version"":""106.0"",""blink"":true,""windows"":true,""osname"":""Windows"",""osversion"":""10"",""a"":true}","9:21:26","1","4","Test_3","74","j","1","1790.7999999970198","1920 x 1080","1920 x 1080","true","1","10","","","","",""
"null","<p style=""font-size: 80px;"">+ 10 points</p>","null","html-keyboard-response","47","883656","0.0-11.0-2.46","5a384471e7bc8000010a8df2","e51uj1","SC","40","F","{""name"":""Chrome"",""chrome"":true,""version"":""106.0"",""blink"":true,""windows"":true,""osname"":""Windows"",""osversion"":""10"",""a"":true}","9:21:26","1","4","Test_4","70","f","1","1028","1920 x 1080","1920 x 1080","true","1","10","","","","",""
"null","<p style=""font-size: 80px;"">+ 10 points</p>","null","html-keyboard-response","48","886996","0.0-11.0-2.47","5a384471e7bc8000010a8df2","e51uj1","SC","40","F","{""name"":""Chrome"",""chrome"":true,""version"":""106.0"",""blink"":true,""windows"":true,""osname"":""Windows"",""osversion"":""10"",""a"":true}","9:21:26","1","4","Test_3","74","j","1","1321.2000000029802","1920 x 1080","1920 x 1080","true","1","10","","","","",""
"null","<p style=""font-size: 80px;"">+ 10 points</p>","null","html-keyboard-response","49","890166","0.0-11.0-2.48","5a384471e7bc8000010a8df2","e51uj1","SC","40","F","{""name"":""Chrome"",""chrome"":true,""version"":""106.0"",""blink"":true,""windows"":true,""osname"":""Windows"",""osversion"":""10"",""a"":true}","9:21:26","1","4","Test_1","74","j","1","1157.4000000059605","1920 x 1080","1920 x 1080","true","1","10","","","","",""
"null","<p style=""font-size: 80px;"">+ 10 points</p>","null","html-keyboard-response","50","893541","0.0-11.0-2.49","5a384471e7bc8000010a8df2","e51uj1","SC","40","F","{""name"":""Chrome"",""chrome"":true,""version"":""106.0"",""blink"":true,""windows"":true,""osname"":""Windows"",""osversion"":""10"",""a"":true}","9:21:26","1","4","Test_1","74","j","1","1355.2000000029802","1920 x 1080","1920 x 1080","true","1","10","","","","",""
"null","<p style=""font-size: 80px;"">+ 10 points</p>","null","html-keyboard-response","51","896637","0.0-11.0-2.50","5a384471e7bc8000010a8df2","e51uj1","SC","40","F","{""name"":""Chrome"",""chrome"":true,""version"":""106.0"",""blink"":true,""windows"":true,""osname"":""Windows"",""osversion"":""10"",""a"":true}","9:21:26","1","4","Test_3","74","j","1","1067.9000000059605","1920 x 1080","1920 x 1080","true","1","10","","","","",""
"null","<p style=""font-size: 80px;"">+ 10 points</p>","null","html-keyboard-response","52","899642","0.0-11.0-2.51","5a384471e7bc8000010a8df2","e51uj1","SC","40","F","{""name"":""Chrome"",""chrome"":true,""version"":""106.0"",""blink"":true,""windows"":true,""osname"":""Windows"",""osversion"":""10"",""a"":true}","9:21:26","1","4","Test_3","74","j","1","970.6999999880791","1920 x 1080","1920 x 1080","true","1","10","","","","",""
"null","<p style=""font-size: 80px;"">+ 10 points</p>","null","html-keyboard-response","53","902657","0.0-11.0-2.52","5a384471e7bc8000010a8df2","e51uj1","SC","40","F","{""name"":""Chrome"",""chrome"":true,""version"":""106.0"",""blink"":true,""windows"":true,""osname"":""Windows"",""osversion"":""10"",""a"":true}","9:21:26","1","4","Test_4","70","f","1","983.7999999970198","1920 x 1080","1920 x 1080","true","1","10","","","","",""
"null","<p style=""font-size: 80px;"">+ 10 points</p>","null","html-keyboard-response","54","905406","0.0-11.0-2.53","5a384471e7bc8000010a8df2","e51uj1","SC","40","F","{""name"":""Chrome"",""chrome"":true,""version"":""106.0"",""blink"":true,""windows"":true,""osname"":""Windows"",""osversion"":""10"",""a"":true}","9:21:26","1","4","Test_4","70","f","1","740.2000000029802","1920 x 1080","1920 x 1080","true","1","10","","","","",""
"null","<p style=""font-size: 80px;"">+ 10 points</p>","null","html-keyboard-response","55","909265","0.0-11.0-2.54","5a384471e7bc8000010a8df2","e51uj1","SC","40","F","{""name"":""Chrome"",""chrome"":true,""version"":""106.0"",""blink"":true,""windows"":true,""osname"":""Windows"",""osversion"":""10"",""a"":true}","9:21:26","1","4","Test_1","74","j","1","1828","1920 x 1080","1920 x 1080","true","1","10","","","","",""
"null","<p style=""font-size: 80px;"">+ 10 points</p>","null","html-keyboard-response","56","912393","0.0-11.0-2.55","5a384471e7bc8000010a8df2","e51uj1","SC","40","F","{""name"":""Chrome"",""chrome"":true,""version"":""106.0"",""blink"":true,""windows"":true,""osname"":""Windows"",""osversion"":""10"",""a"":true}","9:21:26","1","4","Test_3","74","j","1","1101.5","1920 x 1080","1920 x 1080","true","1","10","","","","",""
"null","<p style=""font-size: 80px;"">+ 10 points</p>","null","html-keyboard-response","57","915050","0.0-11.0-2.56","5a384471e7bc8000010a8df2","e51uj1","SC","40","F","{""name"":""Chrome"",""chrome"":true,""version"":""106.0"",""blink"":true,""windows"":true,""osname"":""Windows"",""osversion"":""10"",""a"":true}","9:21:26","1","4","Test_4","70","f","1","642.1000000089407","1920 x 1080","1920 x 1080","true","1","10","","","","",""
"null","<p style=""font-size: 80px;"">+ 0 points</p>","null","html-keyboard-response","58","917897","0.0-11.0-2.57","5a384471e7bc8000010a8df2","e51uj1","SC","40","F","{""name"":""Chrome"",""chrome"":true,""version"":""106.0"",""blink"":true,""windows"":true,""osname"":""Windows"",""osversion"":""10"",""a"":true}","9:21:26","1","4","Test_1","70","j","0","814.9000000059605","1920 x 1080","1920 x 1080","true","1","0","","","","",""
"null","<p style=""font-size: 80px;"">+ 10 points</p>","null","html-keyboard-response","59","921250","0.0-11.0-2.58","5a384471e7bc8000010a8df2","e51uj1","SC","40","F","{""name"":""Chrome"",""chrome"":true,""version"":""106.0"",""blink"":true,""windows"":true,""osname"":""Windows"",""osversion"":""10"",""a"":true}","9:21:26","1","4","Test_2","70","f","1","1329.3999999910593","1920 x 1080","1920 x 1080","true","1","10","","","","",""
"null","<p style=""font-size: 80px;"">+ 10 points</p>","null","html-keyboard-response","60","924195","0.0-11.0-2.59","5a384471e7bc8000010a8df2","e51uj1","SC","40","F","{""name"":""Chrome"",""chrome"":true,""version"":""106.0"",""blink"":true,""windows"":true,""osname"":""Windows"",""osversion"":""10"",""a"":true}","9:21:26","1","4","Test_3","74","j","1","927.7999999970198","1920 x 1080","1920 x 1080","true","1","10","","","","",""
"null","<p style=""font-size: 80px;"">+ 10 points</p>","null","html-keyboard-response","61","927297","0.0-11.0-2.60","5a384471e7bc8000010a8df2","e51uj1","SC","40","F","{""name"":""Chrome"",""chrome"":true,""version"":""106.0"",""blink"":true,""windows"":true,""osname"":""Windows"",""osversion"":""10"",""a"":true}","9:21:26","1","4","Test_2","70","f","1","1085.7999999970198","1920 x 1080","1920 x 1080","true","1","10","","","","",""
"null","<p style=""font-size: 80px;"">+ 10 points</p>","null","html-keyboard-response","62","930259","0.0-11.0-2.61","5a384471e7bc8000010a8df2","e51uj1","SC","40","F","{""name"":""Chrome"",""chrome"":true,""version"":""106.0"",""blink"":true,""windows"":true,""osname"":""Windows"",""osversion"":""10"",""a"":true}","9:21:26","1","4","Test_1","74","j","1","935.2999999970198","1920 x 1080","1920 x 1080","true","1","10","","","","",""
"null","<p style=""font-size: 80px;"">+ 0 points</p>","null","html-keyboard-response","63","933088","0.0-11.0-2.62","5a384471e7bc8000010a8df2","e51uj1","SC","40","F","{""name"":""Chrome"",""chrome"":true,""version"":""106.0"",""blink"":true,""windows"":true,""osname"":""Windows"",""osversion"":""10"",""a"":true}","9:21:26","1","3","Test_2","70","j","0","810","1920 x 1080","1920 x 1080","true","1","0","","","","",""
"null","<p style=""font-size: 80px;"">+ 10 points</p>","null","html-keyboard-response","64","936988","0.0-11.0-2.63","5a384471e7bc8000010a8df2","e51uj1","SC","40","F","{""name"":""Chrome"",""chrome"":true,""version"":""106.0"",""blink"":true,""windows"":true,""osname"":""Windows"",""osversion"":""10"",""a"":true}","9:21:26","1","3","Test_4","74","j","1","1873","1920 x 1080","1920 x 1080","true","1","10","","","","",""
"null","<p style=""font-size: 80px;"">+ 10 points</p>","null","html-keyboard-response","65","940022","0.0-11.0-2.64","5a384471e7bc8000010a8df2","e51uj1","SC","40","F","{""name"":""Chrome"",""chrome"":true,""version"":""106.0"",""blink"":true,""windows"":true,""osname"":""Windows"",""osversion"":""10"",""a"":true}","9:21:26","1","3","Test_3","70","f","1","1008.5999999940395","1920 x 1080","1920 x 1080","true","1","10","","","","",""
"null","<p style=""font-size: 80px;"">+ 10 points</p>","null","html-keyboard-response","66","942751","0.0-11.0-2.65","5a384471e7bc8000010a8df2","e51uj1","SC","40","F","{""name"":""Chrome"",""chrome"":true,""version"":""106.0"",""blink"":true,""windows"":true,""osname"":""Windows"",""osversion"":""10"",""a"":true}","9:21:26","1","3","Test_3","70","f","1","705.5","1920 x 1080","1920 x 1080","true","1","10","","","","",""
"null","<p style=""font-size: 80px;"">+ 10 points</p>","null","html-keyboard-response","67","946669","0.0-11.0-2.66","5a384471e7bc8000010a8df2","e51uj1","SC","40","F","{""name"":""Chrome"",""chrome"":true,""version"":""106.0"",""blink"":true,""windows"":true,""osname"":""Windows"",""osversion"":""10"",""a"":true}","9:21:26","1","3","Test_2","74","j","1","1912","1920 x 1080","1920 x 1080","true","1","10","","","","",""
"null","<p style=""font-size: 80px;"">+ 10 points</p>","null","html-keyboard-response","68","949691","0.0-11.0-2.67","5a384471e7bc8000010a8df2","e51uj1","SC","40","F","{""name"":""Chrome"",""chrome"":true,""version"":""106.0"",""blink"":true,""windows"":true,""osname"":""Windows"",""osversion"":""10"",""a"":true}","9:21:26","1","3","Test_2","74","j","1","994.5","1920 x 1080","1920 x 1080","true","1","10","","","","",""
"null","<p style=""font-size: 80px;"">+ 0 points</p>","null","html-keyboard-response","69","953765","0.0-11.0-2.68","5a384471e7bc8000010a8df2","e51uj1","SC","40","F","{""name"":""Chrome"",""chrome"":true,""version"":""106.0"",""blink"":true,""windows"":true,""osname"":""Windows"",""osversion"":""10"",""a"":true}","9:21:26","1","3","Test_4","70","j","0","2058.2999999970198","1920 x 1080","1920 x 1080","true","1","0","","","","",""
"null","<p style=""font-size: 80px;"">+ 10 points</p>","null","html-keyboard-response","70","957651","0.0-11.0-2.69","5a384471e7bc8000010a8df2","e51uj1","SC","40","F","{""name"":""Chrome"",""chrome"":true,""version"":""106.0"",""blink"":true,""windows"":true,""osname"":""Windows"",""osversion"":""10"",""a"":true}","9:21:26","1","3","Test_4","74","j","1","1876.300000011921","1920 x 1080","1920 x 1080","true","1","10","","","","",""
"null","<p style=""font-size: 80px;"">+ 10 points</p>","null","html-keyboard-response","71","961239","0.0-11.0-2.70","5a384471e7bc8000010a8df2","e51uj1","SC","40","F","{""name"":""Chrome"",""chrome"":true,""version"":""106.0"",""blink"":true,""windows"":true,""osname"":""Windows"",""osversion"":""10"",""a"":true}","9:21:26","1","3","Test_4","74","j","1","1578.199999988079","1920 x 1080","1920 x 1080","true","1","10","","","","",""
"null","<p style=""font-size: 80px;"">+ 10 points</p>","null","html-keyboard-response","72","964290","0.0-11.0-2.71","5a384471e7bc8000010a8df2","e51uj1","SC","40","F","{""name"":""Chrome"",""chrome"":true,""version"":""106.0"",""blink"":true,""windows"":true,""osname"":""Windows"",""osversion"":""10"",""a"":true}","9:21:26","1","3","Test_2","74","j","1","1035.5","1920 x 1080","1920 x 1080","true","1","10","","","","",""
"null","<p style=""font-size: 80px;"">+ 10 points</p>","null","html-keyboard-response","73","967175","0.0-11.0-2.72","5a384471e7bc8000010a8df2","e51uj1","SC","40","F","{""name"":""Chrome"",""chrome"":true,""version"":""106.0"",""blink"":true,""windows"":true,""osname"":""Windows"",""osversion"":""10"",""a"":true}","9:21:26","1","3","Test_3","70","f","1","864.8999999910593","1920 x 1080","1920 x 1080","true","1","10","","","","",""
"null","<p style=""font-size: 80px;"">+ 10 points</p>","null","html-keyboard-response","74","970519","0.0-11.0-2.73","5a384471e7bc8000010a8df2","e51uj1","SC","40","F","{""name"":""Chrome"",""chrome"":true,""version"":""106.0"",""blink"":true,""windows"":true,""osname"":""Windows"",""osversion"":""10"",""a"":true}","9:21:26","1","3","Test_3","70","f","1","1327.5999999940395","1920 x 1080","1920 x 1080","true","1","10","","","","",""
"null","<p style=""font-size: 80px;"">+ 10 points</p>","null","html-keyboard-response","75","973730","0.0-11.0-2.74","5a384471e7bc8000010a8df2","e51uj1","SC","40","F","{""name"":""Chrome"",""chrome"":true,""version"":""106.0"",""blink"":true,""windows"":true,""osname"":""Windows"",""osversion"":""10"",""a"":true}","9:21:26","1","3","Test_3","70","f","1","1198.8999999910593","1920 x 1080","1920 x 1080","true","1","10","","","","",""
"null","<p style=""font-size: 80px;"">+ 10 points</p>","null","html-keyboard-response","76","976606","0.0-11.0-2.75","5a384471e7bc8000010a8df2","e51uj1","SC","40","F","{""name"":""Chrome"",""chrome"":true,""version"":""106.0"",""blink"":true,""windows"":true,""osname"":""Windows"",""osversion"":""10"",""a"":true}","9:21:26","1","3","Test_4","74","j","1","859.3999999910593","1920 x 1080","1920 x 1080","true","1","10","","","","",""
"null","<p style=""font-size: 80px;"">+ 10 points</p>","null","html-keyboard-response","77","979615","0.0-11.0-2.76","5a384471e7bc8000010a8df2","e51uj1","SC","40","F","{""name"":""Chrome"",""chrome"":true,""version"":""106.0"",""blink"":true,""windows"":true,""osname"":""Windows"",""osversion"":""10"",""a"":true}","9:21:26","1","3","Test_1","70","f","1","976.5","1920 x 1080","1920 x 1080","true","1","10","","","","",""
"null","<p style=""font-size: 80px;"">+ 10 points</p>","null","html-keyboard-response","78","982223","0.0-11.0-2.77","5a384471e7bc8000010a8df2","e51uj1","SC","40","F","{""name"":""Chrome"",""chrome"":true,""version"":""106.0"",""blink"":true,""windows"":true,""osname"":""Windows"",""osversion"":""10"",""a"":true}","9:21:26","1","3","Test_1","70","f","1","578.2999999970198","1920 x 1080","1920 x 1080","true","1","10","","","","",""
"null","<p style=""font-size: 80px;"">+ 10 points</p>","null","html-keyboard-response","79","984961","0.0-11.0-2.78","5a384471e7bc8000010a8df2","e51uj1","SC","40","F","{""name"":""Chrome"",""chrome"":true,""version"":""106.0"",""blink"":true,""windows"":true,""osname"":""Windows"",""osversion"":""10"",""a"":true}","9:21:26","1","3","Test_1","70","f","1","721.2999999970198","1920 x 1080","1920 x 1080","true","1","10","","","","",""
"null","<p style=""font-size: 80px;"">+ 10 points</p>","null","html-keyboard-response","80","987880","0.0-11.0-2.79","5a384471e7bc8000010a8df2","e51uj1","SC","40","F","{""name"":""Chrome"",""chrome"":true,""version"":""106.0"",""blink"":true,""windows"":true,""osname"":""Windows"",""osversion"":""10"",""a"":true}","9:21:26","1","3","Test_3","70","f","1","897","1920 x 1080","1920 x 1080","true","1","10","","","","",""
"null","<p style=""font-size: 80px;"">+ 10 points</p>","null","html-keyboard-response","81","990605","0.0-11.0-2.80","5a384471e7bc8000010a8df2","e51uj1","SC","40","F","{""name"":""Chrome"",""chrome"":true,""version"":""106.0"",""blink"":true,""windows"":true,""osname"":""Windows"",""osversion"":""10"",""a"":true}","9:21:26","1","3","Test_1","70","f","1","706.0999999940395","1920 x 1080","1920 x 1080","true","1","10","","","","",""
"null","<p style=""font-size: 80px;"">+ 10 points</p>","null","html-keyboard-response","82","993333","0.0-11.0-2.81","5a384471e7bc8000010a8df2","e51uj1","SC","40","F","{""name"":""Chrome"",""chrome"":true,""version"":""106.0"",""blink"":true,""windows"":true,""osname"":""Windows"",""osversion"":""10"",""a"":true}","9:21:26","1","3","Test_1","70","f","1","716.1000000089407","1920 x 1080","1920 x 1080","true","1","10","","","","",""
"null","<p style=""font-size: 80px;"">+ 10 points</p>","null","html-keyboard-response","83","996096","0.0-11.0-2.82","5a384471e7bc8000010a8df2","e51uj1","SC","40","F","{""name"":""Chrome"",""chrome"":true,""version"":""106.0"",""blink"":true,""windows"":true,""osname"":""Windows"",""osversion"":""10"",""a"":true}","9:21:26","1","3","Test_2","74","j","1","741.8999999910593","1920 x 1080","1920 x 1080","true","1","10","","","","",""
"null","<p style=""font-size: 80px;"">+ 0 points</p>","null","html-keyboard-response","84","998982","0.0-11.0-2.83","5a384471e7bc8000010a8df2","e51uj1","SC","40","F","{""name"":""Chrome"",""chrome"":true,""version"":""106.0"",""blink"":true,""windows"":true,""osname"":""Windows"",""osversion"":""10"",""a"":true}","9:21:26","1","4","Test_4","74","f","0","855.4000000059605","1920 x 1080","1920 x 1080","true","1","0","","","","",""
"null","<p style=""font-size: 80px;"">+ 10 points</p>","null","html-keyboard-response","85","1002140","0.0-11.0-2.84","5a384471e7bc8000010a8df2","e51uj1","SC","40","F","{""name"":""Chrome"",""chrome"":true,""version"":""106.0"",""blink"":true,""windows"":true,""osname"":""Windows"",""osversion"":""10"",""a"":true}","9:21:26","1","4","Test_1","74","j","1","1139.6000000089407","1920 x 1080","1920 x 1080","true","1","10","","","","",""
"null","<p style=""font-size: 80px;"">+ 10 points</p>","null","html-keyboard-response","86","1005874","0.0-11.0-2.85","5a384471e7bc8000010a8df2","e51uj1","SC","40","F","{""name"":""Chrome"",""chrome"":true,""version"":""106.0"",""blink"":true,""windows"":true,""osname"":""Windows"",""osversion"":""10"",""a"":true}","9:21:26","1","4","Test_3","74","j","1","1720.2999999970198","1920 x 1080","1920 x 1080","true","1","10","","","","",""
"null","<p style=""font-size: 80px;"">+ 10 points</p>","null","html-keyboard-response","87","1008963","0.0-11.0-2.86","5a384471e7bc8000010a8df2","e51uj1","SC","40","F","{""name"":""Chrome"",""chrome"":true,""version"":""106.0"",""blink"":true,""windows"":true,""osname"":""Windows"",""osversion"":""10"",""a"":true}","9:21:26","1","4","Test_4","70","f","1","1082.9000000059605","1920 x 1080","1920 x 1080","true","1","10","","","","",""
"null","<p style=""font-size: 80px;"">+ 10 points</p>","null","html-keyboard-response","88","1011937","0.0-11.0-2.87","5a384471e7bc8000010a8df2","e51uj1","SC","40","F","{""name"":""Chrome"",""chrome"":true,""version"":""106.0"",""blink"":true,""windows"":true,""osname"":""Windows"",""osversion"":""10"",""a"":true}","9:21:26","1","4","Test_1","74","j","1","960.7999999970198","1920 x 1080","1920 x 1080","true","1","10","","","","",""
"null","<p style=""font-size: 80px;"">+ 10 points</p>","null","html-keyboard-response","89","1014571","0.0-11.0-2.88","5a384471e7bc8000010a8df2","e51uj1","SC","40","F","{""name"":""Chrome"",""chrome"":true,""version"":""106.0"",""blink"":true,""windows"":true,""osname"":""Windows"",""osversion"":""10"",""a"":true}","9:21:26","1","4","Test_1","74","j","1","618.7000000029802","1920 x 1080","1920 x 1080","true","1","10","","","","",""
"null","<p style=""font-size: 80px;"">+ 10 points</p>","null","html-keyboard-response","90","1017571","0.0-11.0-2.89","5a384471e7bc8000010a8df2","e51uj1","SC","40","F","{""name"":""Chrome"",""chrome"":true,""version"":""106.0"",""blink"":true,""windows"":true,""osname"":""Windows"",""osversion"":""10"",""a"":true}","9:21:26","1","4","Test_1","74","j","1","982.2000000029802","1920 x 1080","1920 x 1080","true","1","10","","","","",""
"null","<p style=""font-size: 80px;"">+ 10 points</p>","null","html-keyboard-response","91","1021076","0.0-11.0-2.90","5a384471e7bc8000010a8df2","e51uj1","SC","40","F","{""name"":""Chrome"",""chrome"":true,""version"":""106.0"",""blink"":true,""windows"":true,""osname"":""Windows"",""osversion"":""10"",""a"":true}","9:21:26","1","4","Test_4","70","f","1","1489.5","1920 x 1080","1920 x 1080","true","1","10","","","","",""
"null","<p style=""font-size: 80px;"">+ 10 points</p>","null","html-keyboard-response","92","1024048","0.0-11.0-2.91","5a384471e7bc8000010a8df2","e51uj1","SC","40","F","{""name"":""Chrome"",""chrome"":true,""version"":""106.0"",""blink"":true,""windows"":true,""osname"":""Windows"",""osversion"":""10"",""a"":true}","9:21:26","1","4","Test_4","70","f","1","951.0999999940395","1920 x 1080","1920 x 1080","true","1","10","","","","",""
"null","<p style=""font-size: 80px;"">+ 10 points</p>","null","html-keyboard-response","93","1027191","0.0-11.0-2.92","5a384471e7bc8000010a8df2","e51uj1","SC","40","F","{""name"":""Chrome"",""chrome"":true,""version"":""106.0"",""blink"":true,""windows"":true,""osname"":""Windows"",""osversion"":""10"",""a"":true}","9:21:26","1","4","Test_2","70","f","1","1118.9000000059605","1920 x 1080","1920 x 1080","true","1","10","","","","",""
"null","<p style=""font-size: 80px;"">+ 10 points</p>","null","html-keyboard-response","94","1029980","0.0-11.0-2.93","5a384471e7bc8000010a8df2","e51uj1","SC","40","F","{""name"":""Chrome"",""chrome"":true,""version"":""106.0"",""blink"":true,""windows"":true,""osname"":""Windows"",""osversion"":""10"",""a"":true}","9:21:26","1","4","Test_2","70","f","1","779.2999999970198","1920 x 1080","1920 x 1080","true","1","10","","","","",""
"null","<p style=""font-size: 80px;"">+ 10 points</p>","null","html-keyboard-response","95","1032931","0.0-11.0-2.94","5a384471e7bc8000010a8df2","e51uj1","SC","40","F","{""name"":""Chrome"",""chrome"":true,""version"":""106.0"",""blink"":true,""windows"":true,""osname"":""Windows"",""osversion"":""10"",""a"":true}","9:21:26","1","4","Test_2","70","f","1","940.5","1920 x 1080","1920 x 1080","true","1","10","","","","",""
"null","<p style=""font-size: 80px;"">+ 10 points</p>","null","html-keyboard-response","96","1036026","0.0-11.0-2.95","5a384471e7bc8000010a8df2","e51uj1","SC","40","F","{""name"":""Chrome"",""chrome"":true,""version"":""106.0"",""blink"":true,""windows"":true,""osname"":""Windows"",""osversion"":""10"",""a"":true}","9:21:26","1","4","Test_2","70","f","1","1080.7999999970198","1920 x 1080","1920 x 1080","true","1","10","","","","",""
"null","<p style=""font-size: 80px;"">+ 10 points</p>","null","html-keyboard-response","97","1039063","0.0-11.0-2.96","5a384471e7bc8000010a8df2","e51uj1","SC","40","F","{""name"":""Chrome"",""chrome"":true,""version"":""106.0"",""blink"":true,""windows"":true,""osname"":""Windows"",""osversion"":""10"",""a"":true}","9:21:26","1","4","Test_3","74","j","1","1028","1920 x 1080","1920 x 1080","true","1","10","","","","",""
"null","<p style=""font-size: 80px;"">+ 10 points</p>","null","html-keyboard-response","98","1041755","0.0-11.0-2.97","5a384471e7bc8000010a8df2","e51uj1","SC","40","F","{""name"":""Chrome"",""chrome"":true,""version"":""106.0"",""blink"":true,""windows"":true,""osname"":""Windows"",""osversion"":""10"",""a"":true}","9:21:26","1","4","Test_3","74","j","1","680.6000000089407","1920 x 1080","1920 x 1080","true","1","10","","","","",""
"null","<p style=""font-size: 80px;"">+ 0 points</p>","null","html-keyboard-response","99","1044840","0.0-11.0-2.98","5a384471e7bc8000010a8df2","e51uj1","SC","40","F","{""name"":""Chrome"",""chrome"":true,""version"":""106.0"",""blink"":true,""windows"":true,""osname"":""Windows"",""osversion"":""10"",""a"":true}","9:21:26","1","3","Test_4","70","j","0","1066.2999999970198","1920 x 1080","1920 x 1080","true","1","0","","","","",""
"null","<p style=""font-size: 80px;"">+ 10 points</p>","null","html-keyboard-response","100","1048283","0.0-11.0-2.99","5a384471e7bc8000010a8df2","e51uj1","SC","40","F","{""name"":""Chrome"",""chrome"":true,""version"":""106.0"",""blink"":true,""windows"":true,""osname"":""Windows"",""osversion"":""10"",""a"":true}","9:21:26","1","3","Test_4","74","j","1","1427.8999999910593","1920 x 1080","1920 x 1080","true","1","10","","","","",""
"null","<p style=""font-size: 80px;"">+ 10 points</p>","null","html-keyboard-response","101","1051219","0.0-11.0-2.100","5a384471e7bc8000010a8df2","e51uj1","SC","40","F","{""name"":""Chrome"",""chrome"":true,""version"":""106.0"",""blink"":true,""windows"":true,""osname"":""Windows"",""osversion"":""10"",""a"":true}","9:21:26","1","3","Test_3","70","f","1","916","1920 x 1080","1920 x 1080","true","1","10","","","","",""
"null","<p style=""font-size: 80px;"">+ 10 points</p>","null","html-keyboard-response","102","1053988","0.0-11.0-2.101","5a384471e7bc8000010a8df2","e51uj1","SC","40","F","{""name"":""Chrome"",""chrome"":true,""version"":""106.0"",""blink"":true,""windows"":true,""osname"":""Windows"",""osversion"":""10"",""a"":true}","9:21:26","1","3","Test_1","70","f","1","753.3999999910593","1920 x 1080","1920 x 1080","true","1","10","","","","",""
"null","<p style=""font-size: 80px;"">+ 10 points</p>","null","html-keyboard-response","103","1057234","0.0-11.0-2.102","5a384471e7bc8000010a8df2","e51uj1","SC","40","F","{""name"":""Chrome"",""chrome"":true,""version"":""106.0"",""blink"":true,""windows"":true,""osname"":""Windows"",""osversion"":""10"",""a"":true}","9:21:26","1","3","Test_3","70","f","1","1238.5999999940395","1920 x 1080","1920 x 1080","true","1","10","","","","",""
"null","<p style=""font-size: 80px;"">+ 0 points</p>","null","html-keyboard-response","104","1060167","0.0-11.0-2.103","5a384471e7bc8000010a8df2","e51uj1","SC","40","F","{""name"":""Chrome"",""chrome"":true,""version"":""106.0"",""blink"":true,""windows"":true,""osname"":""Windows"",""osversion"":""10"",""a"":true}","9:21:26","1","3","Test_2","70","j","0","921.8999999910593","1920 x 1080","1920 x 1080","true","1","0","","","","",""
"null","<p style=""font-size: 80px;"">+ 10 points</p>","null","html-keyboard-response","105","1063467","0.0-11.0-2.104","5a384471e7bc8000010a8df2","e51uj1","SC","40","F","{""name"":""Chrome"",""chrome"":true,""version"":""106.0"",""blink"":true,""windows"":true,""osname"":""Windows"",""osversion"":""10"",""a"":true}","9:21:26","1","3","Test_3","70","f","1","1273","1920 x 1080","1920 x 1080","true","1","10","","","","",""
"null","<p style=""font-size: 80px;"">+ 10 points</p>","null","html-keyboard-response","106","1067123","0.0-11.0-2.105","5a384471e7bc8000010a8df2","e51uj1","SC","40","F","{""name"":""Chrome"",""chrome"":true,""version"":""106.0"",""blink"":true,""windows"":true,""osname"":""Windows"",""osversion"":""10"",""a"":true}","9:21:26","1","3","Test_4","74","j","1","1640.8999999910593","1920 x 1080","1920 x 1080","true","1","10","","","","",""
"null","<p style=""font-size: 80px;"">+ 10 points</p>","null","html-keyboard-response","107","1070432","0.0-11.0-2.106","5a384471e7bc8000010a8df2","e51uj1","SC","40","F","{""name"":""Chrome"",""chrome"":true,""version"":""106.0"",""blink"":true,""windows"":true,""osname"":""Windows"",""osversion"":""10"",""a"":true}","9:21:26","1","3","Test_1","70","f","1","1287.5","1920 x 1080","1920 x 1080","true","1","10","","","","",""
"null","<p style=""font-size: 80px;"">+ 10 points</p>","null","html-keyboard-response","108","1073495","0.0-11.0-2.107","5a384471e7bc8000010a8df2","e51uj1","SC","40","F","{""name"":""Chrome"",""chrome"":true,""version"":""106.0"",""blink"":true,""windows"":true,""osname"":""Windows"",""osversion"":""10"",""a"":true}","9:21:26","1","3","Test_2","74","j","1","1032.1000000089407","1920 x 1080","1920 x 1080","true","1","10","","","","",""
"null","<p style=""font-size: 80px;"">+ 10 points</p>","null","html-keyboard-response","109","1076221","0.0-11.0-2.108","5a384471e7bc8000010a8df2","e51uj1","SC","40","F","{""name"":""Chrome"",""chrome"":true,""version"":""106.0"",""blink"":true,""windows"":true,""osname"":""Windows"",""osversion"":""10"",""a"":true}","9:21:26","1","3","Test_1","70","f","1","701.5999999940395","1920 x 1080","1920 x 1080","true","1","10","","","","",""
"null","<p style=""font-size: 80px;"">+ 10 points</p>","null","html-keyboard-response","110","1100004","0.0-11.0-2.109","5a384471e7bc8000010a8df2","e51uj1","SC","40","F","{""name"":""Chrome"",""chrome"":true,""version"":""106.0"",""blink"":true,""windows"":true,""osname"":""Windows"",""osversion"":""10"",""a"":true}","9:21:26","1","3","Test_1","70","f","1","2476.8999999910593","1920 x 1080","1920 x 1080","true","1","10","","","","",""
"null","<p style=""font-size: 80px;"">+ 10 points</p>","null","html-keyboard-response","111","1103352","0.0-11.0-2.110","5a384471e7bc8000010a8df2","e51uj1","SC","40","F","{""name"":""Chrome"",""chrome"":true,""version"":""106.0"",""blink"":true,""windows"":true,""osname"":""Windows"",""osversion"":""10"",""a"":true}","9:21:26","1","3","Test_2","74","j","1","1332.5","1920 x 1080","1920 x 1080","true","1","10","","","","",""
"null","<p style=""font-size: 80px;"">+ 10 points</p>","null","html-keyboard-response","112","1106046","0.0-11.0-2.111","5a384471e7bc8000010a8df2","e51uj1","SC","40","F","{""name"":""Chrome"",""chrome"":true,""version"":""106.0"",""blink"":true,""windows"":true,""osname"":""Windows"",""osversion"":""10"",""a"":true}","9:21:26","1","3","Test_1","70","f","1","680.1000000089407","1920 x 1080","1920 x 1080","true","1","10","","","","",""
"null","<p style=""font-size: 80px;"">+ 10 points</p>","null","html-keyboard-response","113","1109274","0.0-11.0-2.112","5a384471e7bc8000010a8df2","e51uj1","SC","40","F","{""name"":""Chrome"",""chrome"":true,""version"":""106.0"",""blink"":true,""windows"":true,""osname"":""Windows"",""osversion"":""10"",""a"":true}","9:21:26","1","3","Test_3","70","f","1","1206.2000000029802","1920 x 1080","1920 x 1080","true","1","10","","","","",""
"null","<p style=""font-size: 80px;"">+ 10 points</p>","null","html-keyboard-response","114","1112429","0.0-11.0-2.113","5a384471e7bc8000010a8df2","e51uj1","SC","40","F","{""name"":""Chrome"",""chrome"":true,""version"":""106.0"",""blink"":true,""windows"":true,""osname"":""Windows"",""osversion"":""10"",""a"":true}","9:21:26","1","3","Test_2","74","j","1","1137.6000000089407","1920 x 1080","1920 x 1080","true","1","10","","","","",""
"null","<p style=""font-size: 80px;"">+ 10 points</p>","null","html-keyboard-response","115","1115568","0.0-11.0-2.114","5a384471e7bc8000010a8df2","e51uj1","SC","40","F","{""name"":""Chrome"",""chrome"":true,""version"":""106.0"",""blink"":true,""windows"":true,""osname"":""Windows"",""osversion"":""10"",""a"":true}","9:21:26","1","3","Test_4","74","j","1","1128.5999999940395","1920 x 1080","1920 x 1080","true","1","10","","","","",""
"null","<p style=""font-size: 80px;"">+ 10 points</p>","null","html-keyboard-response","116","1118309","0.0-11.0-2.115","5a384471e7bc8000010a8df2","e51uj1","SC","40","F","{""name"":""Chrome"",""chrome"":true,""version"":""106.0"",""blink"":true,""windows"":true,""osname"":""Windows"",""osversion"":""10"",""a"":true}","9:21:26","1","3","Test_2","74","j","1","723.3999999910593","1920 x 1080","1920 x 1080","true","1","10","","","","",""
"null","<p style=""font-size: 80px;"">+ 10 points</p>","null","html-keyboard-response","117","1121468","0.0-11.0-2.116","5a384471e7bc8000010a8df2","e51uj1","SC","40","F","{""name"":""Chrome"",""chrome"":true,""version"":""106.0"",""blink"":true,""windows"":true,""osname"":""Windows"",""osversion"":""10"",""a"":true}","9:21:26","1","3","Test_2","74","j","1","1132.4000000059605","1920 x 1080","1920 x 1080","true","1","10","","","","",""
"null","<p style=""font-size: 80px;"">+ 10 points</p>","null","html-keyboard-response","118","1124814","0.0-11.0-2.117","5a384471e7bc8000010a8df2","e51uj1","SC","40","F","{""name"":""Chrome"",""chrome"":true,""version"":""106.0"",""blink"":true,""windows"":true,""osname"":""Windows"",""osversion"":""10"",""a"":true}","9:21:26","1","3","Test_4","74","j","1","1323.5999999940395","1920 x 1080","1920 x 1080","true","1","10","","","","",""
"null","<p style=""font-size: 80px;"">+ 10 points</p>","null","html-keyboard-response","119","1127610","0.0-11.0-2.118","5a384471e7bc8000010a8df2","e51uj1","SC","40","F","{""name"":""Chrome"",""chrome"":true,""version"":""106.0"",""blink"":true,""windows"":true,""osname"":""Windows"",""osversion"":""10"",""a"":true}","9:21:26","1","3","Test_3","70","f","1","779.8999999910593","1920 x 1080","1920 x 1080","true","1","10","","","","",""
"null","<p style=""font-size: 80px;"">+ 10 points</p>","null","html-keyboard-response","120","1130947","0.0-11.0-2.119","5a384471e7bc8000010a8df2","e51uj1","SC","40","F","{""name"":""Chrome"",""chrome"":true,""version"":""106.0"",""blink"":true,""windows"":true,""osname"":""Windows"",""osversion"":""10"",""a"":true}","9:21:26","1","3","Test_3","70","f","1","1326.2999999970198","1920 x 1080","1920 x 1080","true","1","10","","","","",""
"null","<p style=""font-size: 80px;"">+ 10 points</p>","null","html-keyboard-response","121","1134203","0.0-11.0-2.120","5a384471e7bc8000010a8df2","e51uj1","SC","40","F","{""name"":""Chrome"",""chrome"":true,""version"":""106.0"",""blink"":true,""windows"":true,""osname"":""Windows"",""osversion"":""10"",""a"":true}","9:21:26","1","3","Test_4","74","j","1","1232.2000000029802","1920 x 1080","1920 x 1080","true","1","10","","","","",""
"null","<p style=""font-size: 80px;"">+ 0 points</p>","null","html-keyboard-response","122","1136954","0.0-11.0-2.121","5a384471e7bc8000010a8df2","e51uj1","SC","40","F","{""name"":""Chrome"",""chrome"":true,""version"":""106.0"",""blink"":true,""windows"":true,""osname"":""Windows"",""osversion"":""10"",""a"":true}","9:21:26","1","4","Test_4","74","f","0","746.2999999970198","1920 x 1080","1920 x 1080","true","1","0","","","","",""
"null","<p style=""font-size: 80px;"">+ 10 points</p>","null","html-keyboard-response","123","1140257","0.0-11.0-2.122","5a384471e7bc8000010a8df2","e51uj1","SC","40","F","{""name"":""Chrome"",""chrome"":true,""version"":""106.0"",""blink"":true,""windows"":true,""osname"":""Windows"",""osversion"":""10"",""a"":true}","9:21:26","1","4","Test_1","74","j","1","1293.300000011921","1920 x 1080","1920 x 1080","true","1","10","","","","",""
"null","<p style=""font-size: 80px;"">+ 10 points</p>","null","html-keyboard-response","124","1143229","0.0-11.0-2.123","5a384471e7bc8000010a8df2","e51uj1","SC","40","F","{""name"":""Chrome"",""chrome"":true,""version"":""106.0"",""blink"":true,""windows"":true,""osname"":""Windows"",""osversion"":""10"",""a"":true}","9:21:26","1","4","Test_3","74","j","1","964.2000000029802","1920 x 1080","1920 x 1080","true","1","10","","","","",""
"null","<p style=""font-size: 80px;"">+ 0 points</p>","null","html-keyboard-response","125","1147138","0.0-11.0-2.124","5a384471e7bc8000010a8df2","e51uj1","SC","40","F","{""name"":""Chrome"",""chrome"":true,""version"":""106.0"",""blink"":true,""windows"":true,""osname"":""Windows"",""osversion"":""10"",""a"":true}","9:21:26","1","4","Test_2","74","f","0","1892.699999988079","1920 x 1080","1920 x 1080","true","1","0","","","","",""
"null","<p style=""font-size: 80px;"">+ 0 points</p>","null","html-keyboard-response","126","1151522","0.0-11.0-2.125","5a384471e7bc8000010a8df2","e51uj1","SC","40","F","{""name"":""Chrome"",""chrome"":true,""version"":""106.0"",""blink"":true,""windows"":true,""osname"":""Windows"",""osversion"":""10"",""a"":true}","9:21:26","1","4","Test_1","70","j","0","2378.6000000089407","1920 x 1080","1920 x 1080","true","1","0","","","","",""
"null","<p style=""font-size: 80px;"">+ 10 points</p>","null","html-keyboard-response","127","1154838","0.0-11.0-2.126","5a384471e7bc8000010a8df2","e51uj1","SC","40","F","{""name"":""Chrome"",""chrome"":true,""version"":""106.0"",""blink"":true,""windows"":true,""osname"":""Windows"",""osversion"":""10"",""a"":true}","9:21:26","1","4","Test_2","70","f","1","1292.3999999910593","1920 x 1080","1920 x 1080","true","1","10","","","","",""
"null","<p style=""font-size: 80px;"">+ 10 points</p>","null","html-keyboard-response","128","1157944","0.0-11.0-2.127","5a384471e7bc8000010a8df2","e51uj1","SC","40","F","{""name"":""Chrome"",""chrome"":true,""version"":""106.0"",""blink"":true,""windows"":true,""osname"":""Windows"",""osversion"":""10"",""a"":true}","9:21:26","1","4","Test_3","74","j","1","1087","1920 x 1080","1920 x 1080","true","1","10","","","","",""
"null","<p style=""font-size: 80px;"">+ 10 points</p>","null","html-keyboard-response","129","1162777","0.0-11.0-2.128","5a384471e7bc8000010a8df2","e51uj1","SC","40","F","{""name"":""Chrome"",""chrome"":true,""version"":""106.0"",""blink"":true,""windows"":true,""osname"":""Windows"",""osversion"":""10"",""a"":true}","9:21:26","1","4","Test_3","74","j","1","2810.3999999910593","1920 x 1080","1920 x 1080","true","1","10","","","","",""
"null","<p style=""font-size: 80px;"">+ 10 points</p>","null","html-keyboard-response","130","1166495","0.0-11.0-2.129","5a384471e7bc8000010a8df2","e51uj1","SC","40","F","{""name"":""Chrome"",""chrome"":true,""version"":""106.0"",""blink"":true,""windows"":true,""osname"":""Windows"",""osversion"":""10"",""a"":true}","9:21:26","1","4","Test_1","74","j","1","1703.5","1920 x 1080","1920 x 1080","true","1","10","","","","",""
"null","<p style=""font-size: 80px;"">+ 10 points</p>","null","html-keyboard-response","131","1170339","0.0-11.0-2.130","5a384471e7bc8000010a8df2","e51uj1","SC","40","F","{""name"":""Chrome"",""chrome"":true,""version"":""106.0"",""blink"":true,""windows"":true,""osname"":""Windows"",""osversion"":""10"",""a"":true}","9:21:26","1","4","Test_4","70","f","1","1832.4000000059605","1920 x 1080","1920 x 1080","true","1","10","","","","",""
"null","<p style=""font-size: 80px;"">+ 0 points</p>","null","html-keyboard-response","132","1173208","0.0-11.0-2.131","5a384471e7bc8000010a8df2","e51uj1","SC","40","F","{""name"":""Chrome"",""chrome"":true,""version"":""106.0"",""blink"":true,""windows"":true,""osname"":""Windows"",""osversion"":""10"",""a"":true}","9:21:26","1","4","Test_3","70","j","0","843","1920 x 1080","1920 x 1080","true","1","0","","","","",""
"null","<p style=""font-size: 80px;"">+ 10 points</p>","null","html-keyboard-response","133","1176159","0.0-11.0-2.132","5a384471e7bc8000010a8df2","e51uj1","SC","40","F","{""name"":""Chrome"",""chrome"":true,""version"":""106.0"",""blink"":true,""windows"":true,""osname"":""Windows"",""osversion"":""10"",""a"":true}","9:21:26","1","4","Test_2","70","f","1","936.8999999910593","1920 x 1080","1920 x 1080","true","1","10","","","","",""
"null","<p style=""font-size: 80px;"">+ 10 points</p>","null","html-keyboard-response","134","1179188","0.0-11.0-2.133","5a384471e7bc8000010a8df2","e51uj1","SC","40","F","{""name"":""Chrome"",""chrome"":true,""version"":""106.0"",""blink"":true,""windows"":true,""osname"":""Windows"",""osversion"":""10"",""a"":true}","9:21:26","1","4","Test_2","70","f","1","1015.9000000059605","1920 x 1080","1920 x 1080","true","1","10","","","","",""
"null","<p style=""font-size: 80px;"">+ 10 points</p>","null","html-keyboard-response","135","1182590","0.0-11.0-2.134","5a384471e7bc8000010a8df2","e51uj1","SC","40","F","{""name"":""Chrome"",""chrome"":true,""version"":""106.0"",""blink"":true,""windows"":true,""osname"":""Windows"",""osversion"":""10"",""a"":true}","9:21:26","1","4","Test_4","70","f","1","1374.7000000029802","1920 x 1080","1920 x 1080","true","1","10","","","","",""
"null","<p style=""font-size: 80px;"">+ 10 points</p>","null","html-keyboard-response","136","1185498","0.0-11.0-2.135","5a384471e7bc8000010a8df2","e51uj1","SC","40","F","{""name"":""Chrome"",""chrome"":true,""version"":""106.0"",""blink"":true,""windows"":true,""osname"":""Windows"",""osversion"":""10"",""a"":true}","9:21:26","1","4","Test_3","74","j","1","899.3000000119209","1920 x 1080","1920 x 1080","true","1","10","","","","",""
"null","<p style=""font-size: 80px;"">+ 10 points</p>","null","html-keyboard-response","137","1188823","0.0-11.0-2.136","5a384471e7bc8000010a8df2","e51uj1","SC","40","F","{""name"":""Chrome"",""chrome"":true,""version"":""106.0"",""blink"":true,""windows"":true,""osname"":""Windows"",""osversion"":""10"",""a"":true}","9:21:26","1","4","Test_1","74","j","1","1303.2000000029802","1920 x 1080","1920 x 1080","true","1","10","","","","",""
"null","<p style=""font-size: 80px;"">+ 10 points</p>","null","html-keyboard-response","138","1192110","0.0-11.0-2.137","5a384471e7bc8000010a8df2","e51uj1","SC","40","F","{""name"":""Chrome"",""chrome"":true,""version"":""106.0"",""blink"":true,""windows"":true,""osname"":""Windows"",""osversion"":""10"",""a"":true}","9:21:26","1","4","Test_1","74","j","1","1253.9000000059605","1920 x 1080","1920 x 1080","true","1","10","","","","",""
"null","<p style=""font-size: 80px;"">+ 0 points</p>","null","html-keyboard-response","139","1194837","0.0-11.0-2.138","5a384471e7bc8000010a8df2","e51uj1","SC","40","F","{""name"":""Chrome"",""chrome"":true,""version"":""106.0"",""blink"":true,""windows"":true,""osname"":""Windows"",""osversion"":""10"",""a"":true}","9:21:26","1","4","Test_4","74","f","0","704.5999999940395","1920 x 1080","1920 x 1080","true","1","0","","","","",""
"null","<p style=""font-size: 80px;"">+ 10 points</p>","null","html-keyboard-response","140","1197737","0.0-11.0-2.139","5a384471e7bc8000010a8df2","e51uj1","SC","40","F","{""name"":""Chrome"",""chrome"":true,""version"":""106.0"",""blink"":true,""windows"":true,""osname"":""Windows"",""osversion"":""10"",""a"":true}","9:21:26","1","4","Test_4","70","f","1","875.2999999970198","1920 x 1080","1920 x 1080","true","1","10","","","","",""
"null","<p style=""font-size: 80px;"">+ 0 points</p>","null","html-keyboard-response","141","1200861","0.0-11.0-2.140","5a384471e7bc8000010a8df2","e51uj1","SC","40","F","{""name"":""Chrome"",""chrome"":true,""version"":""106.0"",""blink"":true,""windows"":true,""osname"":""Windows"",""osversion"":""10"",""a"":true}","9:21:26","1","3","Test_1","74","f","0","1101.5999999940395","1920 x 1080","1920 x 1080","true","1","0","","","","",""
"null","<p style=""font-size: 80px;"">+ 10 points</p>","null","html-keyboard-response","142","1204703","0.0-11.0-2.141","5a384471e7bc8000010a8df2","e51uj1","SC","40","F","{""name"":""Chrome"",""chrome"":true,""version"":""106.0"",""blink"":true,""windows"":true,""osname"":""Windows"",""osversion"":""10"",""a"":true}","9:21:26","1","3","Test_3","70","f","1","1817.7999999970198","1920 x 1080","1920 x 1080","true","1","10","","","","",""
"null","<p style=""font-size: 80px;"">+ 10 points</p>","null","html-keyboard-response","143","1208620","0.0-11.0-2.142","5a384471e7bc8000010a8df2","e51uj1","SC","40","F","{""name"":""Chrome"",""chrome"":true,""version"":""106.0"",""blink"":true,""windows"":true,""osname"":""Windows"",""osversion"":""10"",""a"":true}","9:21:26","1","3","Test_4","74","j","1","1898.4000000059605","1920 x 1080","1920 x 1080","true","1","10","","","","",""
"null","<p style=""font-size: 80px;"">+ 10 points</p>","null","html-keyboard-response","144","1211997","0.0-11.0-2.143","5a384471e7bc8000010a8df2","e51uj1","SC","40","F","{""name"":""Chrome"",""chrome"":true,""version"":""106.0"",""blink"":true,""windows"":true,""osname"":""Windows"",""osversion"":""10"",""a"":true}","9:21:26","1","3","Test_2","74","j","1","1350.0999999940395","1920 x 1080","1920 x 1080","true","1","10","","","","",""
"null","<p style=""font-size: 80px;"">+ 10 points</p>","null","html-keyboard-response","145","1214906","0.0-11.0-2.144","5a384471e7bc8000010a8df2","e51uj1","SC","40","F","{""name"":""Chrome"",""chrome"":true,""version"":""106.0"",""blink"":true,""windows"":true,""osname"":""Windows"",""osversion"":""10"",""a"":true}","9:21:26","1","3","Test_1","70","f","1","887.1000000089407","1920 x 1080","1920 x 1080","true","1","10","","","","",""
"null","<p style=""font-size: 80px;"">+ 10 points</p>","null","html-keyboard-response","146","1218577","0.0-11.0-2.145","5a384471e7bc8000010a8df2","e51uj1","SC","40","F","{""name"":""Chrome"",""chrome"":true,""version"":""106.0"",""blink"":true,""windows"":true,""osname"":""Windows"",""osversion"":""10"",""a"":true}","9:21:26","1","3","Test_1","70","f","1","1636.800000011921","1920 x 1080","1920 x 1080","true","1","10","","","","",""
"null","<p style=""font-size: 80px;"">+ 10 points</p>","null","html-keyboard-response","147","1221469","0.0-11.0-2.146","5a384471e7bc8000010a8df2","e51uj1","SC","40","F","{""name"":""Chrome"",""chrome"":true,""version"":""106.0"",""blink"":true,""windows"":true,""osname"":""Windows"",""osversion"":""10"",""a"":true}","9:21:26","1","3","Test_2","74","j","1","875.7000000029802","1920 x 1080","1920 x 1080","true","1","10","","","","",""
"null","<p style=""font-size: 80px;"">+ 10 points</p>","null","html-keyboard-response","148","1225049","0.0-11.0-2.147","5a384471e7bc8000010a8df2","e51uj1","SC","40","F","{""name"":""Chrome"",""chrome"":true,""version"":""106.0"",""blink"":true,""windows"":true,""osname"":""Windows"",""osversion"":""10"",""a"":true}","9:21:26","1","3","Test_2","74","j","1","1569.2999999970198","1920 x 1080","1920 x 1080","true","1","10","","","","",""
"null","<p style=""font-size: 80px;"">+ 10 points</p>","null","html-keyboard-response","149","1228220","0.0-11.0-2.148","5a384471e7bc8000010a8df2","e51uj1","SC","40","F","{""name"":""Chrome"",""chrome"":true,""version"":""106.0"",""blink"":true,""windows"":true,""osname"":""Windows"",""osversion"":""10"",""a"":true}","9:21:26","1","3","Test_3","70","f","1","1143.1000000089407","1920 x 1080","1920 x 1080","true","1","10","","","","",""
"null","<p style=""font-size: 80px;"">+ 10 points</p>","null","html-keyboard-response","150","1231302","0.0-11.0-2.149","5a384471e7bc8000010a8df2","e51uj1","SC","40","F","{""name"":""Chrome"",""chrome"":true,""version"":""106.0"",""blink"":true,""windows"":true,""osname"":""Windows"",""osversion"":""10"",""a"":true}","9:21:26","1","3","Test_1","70","f","1","1066.5999999940395","1920 x 1080","1920 x 1080","true","1","10","","","","",""
"null","<p style=""font-size: 80px;"">+ 10 points</p>","null","html-keyboard-response","151","1234241","0.0-11.0-2.150","5a384471e7bc8000010a8df2","e51uj1","SC","40","F","{""name"":""Chrome"",""chrome"":true,""version"":""106.0"",""blink"":true,""windows"":true,""osname"":""Windows"",""osversion"":""10"",""a"":true}","9:21:26","1","3","Test_3","70","f","1","919.7000000029802","1920 x 1080","1920 x 1080","true","1","10","","","","",""
"null","<p style=""font-size: 80px;"">+ 10 points</p>","null","html-keyboard-response","152","1237126","0.0-11.0-2.151","5a384471e7bc8000010a8df2","e51uj1","SC","40","F","{""name"":""Chrome"",""chrome"":true,""version"":""106.0"",""blink"":true,""windows"":true,""osname"":""Windows"",""osversion"":""10"",""a"":true}","9:21:26","1","3","Test_1","70","f","1","875.7999999970198","1920 x 1080","1920 x 1080","true","1","10","","","","",""
"null","<p style=""font-size: 80px;"">+ 10 points</p>","null","html-keyboard-response","153","1240061","0.0-11.0-2.152","5a384471e7bc8000010a8df2","e51uj1","SC","40","F","{""name"":""Chrome"",""chrome"":true,""version"":""106.0"",""blink"":true,""windows"":true,""osname"":""Windows"",""osversion"":""10"",""a"":true}","9:21:26","1","3","Test_3","70","f","1","908.0999999940395","1920 x 1080","1920 x 1080","true","1","10","","","","",""
"null","<p style=""font-size: 80px;"">+ 10 points</p>","null","html-keyboard-response","154","1243977","0.0-11.0-2.153","5a384471e7bc8000010a8df2","e51uj1","SC","40","F","{""name"":""Chrome"",""chrome"":true,""version"":""106.0"",""blink"":true,""windows"":true,""osname"":""Windows"",""osversion"":""10"",""a"":true}","9:21:26","1","3","Test_2","74","j","1","1898.0999999940395","1920 x 1080","1920 x 1080","true","1","10","","","","",""
"null","<p style=""font-size: 80px;"">+ 10 points</p>","null","html-keyboard-response","155","1246767","0.0-11.0-2.154","5a384471e7bc8000010a8df2","e51uj1","SC","40","F","{""name"":""Chrome"",""chrome"":true,""version"":""106.0"",""blink"":true,""windows"":true,""osname"":""Windows"",""osversion"":""10"",""a"":true}","9:21:26","1","3","Test_1","70","f","1","774.5","1920 x 1080","1920 x 1080","true","1","10","","","","",""
"null","<p style=""font-size: 80px;"">+ 10 points</p>","null","html-keyboard-response","156","1249580","0.0-11.0-2.155","5a384471e7bc8000010a8df2","e51uj1","SC","40","F","{""name"":""Chrome"",""chrome"":true,""version"":""106.0"",""blink"":true,""windows"":true,""osname"":""Windows"",""osversion"":""10"",""a"":true}","9:21:26","1","3","Test_4","74","j","1","799.7000000029802","1920 x 1080","1920 x 1080","true","1","10","","","","",""
"null","<p style=""font-size: 80px;"">+ 10 points</p>","null","html-keyboard-response","157","1252554","0.0-11.0-2.156","5a384471e7bc8000010a8df2","e51uj1","SC","40","F","{""name"":""Chrome"",""chrome"":true,""version"":""106.0"",""blink"":true,""windows"":true,""osname"":""Windows"",""osversion"":""10"",""a"":true}","9:21:26","1","3","Test_2","74","j","1","968.5","1920 x 1080","1920 x 1080","true","1","10","","","","",""
"null","<p style=""font-size: 80px;"">+ 10 points</p>","null","html-keyboard-response","158","1255687","0.0-11.0-2.157","5a384471e7bc8000010a8df2","e51uj1","SC","40","F","{""name"":""Chrome"",""chrome"":true,""version"":""106.0"",""blink"":true,""windows"":true,""osname"":""Windows"",""osversion"":""10"",""a"":true}","9:21:26","1","3","Test_2","74","j","1","1119.2999999970198","1920 x 1080","1920 x 1080","true","1","10","","","","",""
"null","<p style=""font-size: 80px;"">+ 10 points</p>","null","html-keyboard-response","159","1258987","0.0-11.0-2.158","5a384471e7bc8000010a8df2","e51uj1","SC","40","F","{""name"":""Chrome"",""chrome"":true,""version"":""106.0"",""blink"":true,""windows"":true,""osname"":""Windows"",""osversion"":""10"",""a"":true}","9:21:26","1","3","Test_3","70","f","1","1279.5","1920 x 1080","1920 x 1080","true","1","10","","","","",""
"null","<p style=""font-size: 80px;"">+ 10 points</p>","null","html-keyboard-response","160","1261637","0.0-11.0-2.159","5a384471e7bc8000010a8df2","e51uj1","SC","40","F","{""name"":""Chrome"",""chrome"":true,""version"":""106.0"",""blink"":true,""windows"":true,""osname"":""Windows"",""osversion"":""10"",""a"":true}","9:21:26","1","3","Test_4","74","j","1","634.0999999940395","1920 x 1080","1920 x 1080","true","1","10","","","","",""
"null","<p style=""font-size: 80px;"">+ 10 points</p>","null","html-keyboard-response","161","1264634","0.0-11.0-2.160","5a384471e7bc8000010a8df2","e51uj1","SC","40","F","{""name"":""Chrome"",""chrome"":true,""version"":""106.0"",""blink"":true,""windows"":true,""osname"":""Windows"",""osversion"":""10"",""a"":true}","9:21:26","1","3","Test_4","74","j","1","976","1920 x 1080","1920 x 1080","true","1","10","","","","",""
"null","<p style=""font-size: 80px;"">+ 0 points</p>","null","html-keyboard-response","162","1267570","0.0-11.0-2.161","5a384471e7bc8000010a8df2","e51uj1","SC","40","F","{""name"":""Chrome"",""chrome"":true,""version"":""106.0"",""blink"":true,""windows"":true,""osname"":""Windows"",""osversion"":""10"",""a"":true}","9:21:26","1","4","Test_1","70","j","0","928.5999999940395","1920 x 1080","1920 x 1080","true","1","0","","","","",""
"null","<p style=""font-size: 80px;"">+ 10 points</p>","null","html-keyboard-response","163","1273845","0.0-11.0-2.162","5a384471e7bc8000010a8df2","e51uj1","SC","40","F","{""name"":""Chrome"",""chrome"":true,""version"":""106.0"",""blink"":true,""windows"":true,""osname"":""Windows"",""osversion"":""10"",""a"":true}","9:21:26","1","4","Test_3","74","j","1","4256.0999999940395","1920 x 1080","1920 x 1080","true","1","10","","","","",""
"null","<p style=""font-size: 80px;"">+ 10 points</p>","null","html-keyboard-response","164","1276676","0.0-11.0-2.163","5a384471e7bc8000010a8df2","e51uj1","SC","40","F","{""name"":""Chrome"",""chrome"":true,""version"":""106.0"",""blink"":true,""windows"":true,""osname"":""Windows"",""osversion"":""10"",""a"":true}","9:21:26","1","4","Test_3","74","j","1","813.9000000059605","1920 x 1080","1920 x 1080","true","1","10","","","","",""
"null","<p style=""font-size: 80px;"">+ 10 points</p>","null","html-keyboard-response","165","1280128","0.0-11.0-2.164","5a384471e7bc8000010a8df2","e51uj1","SC","40","F","{""name"":""Chrome"",""chrome"":true,""version"":""106.0"",""blink"":true,""windows"":true,""osname"":""Windows"",""osversion"":""10"",""a"":true}","9:21:26","1","4","Test_2","70","f","1","1426.0999999940395","1920 x 1080","1920 x 1080","true","1","10","","","","",""
"null","<p style=""font-size: 80px;"">+ 10 points</p>","null","html-keyboard-response","166","1283667","0.0-11.0-2.165","5a384471e7bc8000010a8df2","e51uj1","SC","40","F","{""name"":""Chrome"",""chrome"":true,""version"":""106.0"",""blink"":true,""windows"":true,""osname"":""Windows"",""osversion"":""10"",""a"":true}","9:21:26","1","4","Test_1","74","j","1","1523.5","1920 x 1080","1920 x 1080","true","1","10","","","","",""
"null","<p style=""font-size: 80px;"">+ 10 points</p>","null","html-keyboard-response","167","1286512","0.0-11.0-2.166","5a384471e7bc8000010a8df2","e51uj1","SC","40","F","{""name"":""Chrome"",""chrome"":true,""version"":""106.0"",""blink"":true,""windows"":true,""osname"":""Windows"",""osversion"":""10"",""a"":true}","9:21:26","1","4","Test_4","70","f","1","833.6000000089407","1920 x 1080","1920 x 1080","true","1","10","","","","",""
"null","<p style=""font-size: 80px;"">+ 10 points</p>","null","html-keyboard-response","168","1290177","0.0-11.0-2.167","5a384471e7bc8000010a8df2","e51uj1","SC","40","F","{""name"":""Chrome"",""chrome"":true,""version"":""106.0"",""blink"":true,""windows"":true,""osname"":""Windows"",""osversion"":""10"",""a"":true}","9:21:26","1","4","Test_1","74","j","1","1654","1920 x 1080","1920 x 1080","true","1","10","","","","",""
"null","<p style=""font-size: 80px;"">+ 10 points</p>","null","html-keyboard-response","169","1292929","0.0-11.0-2.168","5a384471e7bc8000010a8df2","e51uj1","SC","40","F","{""name"":""Chrome"",""chrome"":true,""version"":""106.0"",""blink"":true,""windows"":true,""osname"":""Windows"",""osversion"":""10"",""a"":true}","9:21:26","1","4","Test_3","74","j","1","747.7999999970198","1920 x 1080","1920 x 1080","true","1","10","","","","",""
"null","<p style=""font-size: 80px;"">+ 10 points</p>","null","html-keyboard-response","170","1295745","0.0-11.0-2.169","5a384471e7bc8000010a8df2","e51uj1","SC","40","F","{""name"":""Chrome"",""chrome"":true,""version"":""106.0"",""blink"":true,""windows"":true,""osname"":""Windows"",""osversion"":""10"",""a"":true}","9:21:26","1","4","Test_4","70","f","1","805.2999999970198","1920 x 1080","1920 x 1080","true","1","10","","","","",""
"null","<p style=""font-size: 80px;"">+ 10 points</p>","null","html-keyboard-response","171","1298864","0.0-11.0-2.170","5a384471e7bc8000010a8df2","e51uj1","SC","40","F","{""name"":""Chrome"",""chrome"":true,""version"":""106.0"",""blink"":true,""windows"":true,""osname"":""Windows"",""osversion"":""10"",""a"":true}","9:21:26","1","4","Test_1","74","j","1","1097.3999999910593","1920 x 1080","1920 x 1080","true","1","10","","","","",""
"null","<p style=""font-size: 80px;"">+ 10 points</p>","null","html-keyboard-response","172","1301649","0.0-11.0-2.171","5a384471e7bc8000010a8df2","e51uj1","SC","40","F","{""name"":""Chrome"",""chrome"":true,""version"":""106.0"",""blink"":true,""windows"":true,""osname"":""Windows"",""osversion"":""10"",""a"":true}","9:21:26","1","4","Test_4","70","f","1","774.3000000119209","1920 x 1080","1920 x 1080","true","1","10","","","","",""
"null","<p style=""font-size: 80px;"">+ 10 points</p>","null","html-keyboard-response","173","1304714","0.0-11.0-2.172","5a384471e7bc8000010a8df2","e51uj1","SC","40","F","{""name"":""Chrome"",""chrome"":true,""version"":""106.0"",""blink"":true,""windows"":true,""osname"":""Windows"",""osversion"":""10"",""a"":true}","9:21:26","1","4","Test_4","70","f","1","1058.5","1920 x 1080","1920 x 1080","true","1","10","","","","",""
"null","<p style=""font-size: 80px;"">+ 10 points</p>","null","html-keyboard-response","174","1307560","0.0-11.0-2.173","5a384471e7bc8000010a8df2","e51uj1","SC","40","F","{""name"":""Chrome"",""chrome"":true,""version"":""106.0"",""blink"":true,""windows"":true,""osname"":""Windows"",""osversion"":""10"",""a"":true}","9:21:26","1","4","Test_2","70","f","1","823.0999999940395","1920 x 1080","1920 x 1080","true","1","10","","","","",""
"null","<p style=""font-size: 80px;"">+ 10 points</p>","null","html-keyboard-response","175","1310770","0.0-11.0-2.174","5a384471e7bc8000010a8df2","e51uj1","SC","40","F","{""name"":""Chrome"",""chrome"":true,""version"":""106.0"",""blink"":true,""windows"":true,""osname"":""Windows"",""osversion"":""10"",""a"":true}","9:21:26","1","4","Test_2","70","f","1","1185","1920 x 1080","1920 x 1080","true","1","10","","","","",""
"null","<p style=""font-size: 80px;"">+ 10 points</p>","null","html-keyboard-response","176","1314084","0.0-11.0-2.175","5a384471e7bc8000010a8df2","e51uj1","SC","40","F","{""name"":""Chrome"",""chrome"":true,""version"":""106.0"",""blink"":true,""windows"":true,""osname"":""Windows"",""osversion"":""10"",""a"":true}","9:21:26","1","4","Test_3","74","j","1","1303.2000000029802","1920 x 1080","1920 x 1080","true","1","10","","","","",""
"null","<p style=""font-size: 80px;"">+ 0 points</p>","null","html-keyboard-response","177","1316954","0.0-11.0-2.176","5a384471e7bc8000010a8df2","e51uj1","SC","40","F","{""name"":""Chrome"",""chrome"":true,""version"":""106.0"",""blink"":true,""windows"":true,""osname"":""Windows"",""osversion"":""10"",""a"":true}","9:21:26","1","3","Test_1","74","f","0","844.6000000089407","1920 x 1080","1920 x 1080","true","1","0","","","","",""
"null","<p style=""font-size: 80px;"">+ 10 points</p>","null","html-keyboard-response","178","1320589","0.0-11.0-2.177","5a384471e7bc8000010a8df2","e51uj1","SC","40","F","{""name"":""Chrome"",""chrome"":true,""version"":""106.0"",""blink"":true,""windows"":true,""osname"":""Windows"",""osversion"":""10"",""a"":true}","9:21:26","1","3","Test_3","70","f","1","1607.2999999970198","1920 x 1080","1920 x 1080","true","1","10","","","","",""
"null","<p style=""font-size: 80px;"">+ 10 points</p>","null","html-keyboard-response","179","1323345","0.0-11.0-2.178","5a384471e7bc8000010a8df2","e51uj1","SC","40","F","{""name"":""Chrome"",""chrome"":true,""version"":""106.0"",""blink"":true,""windows"":true,""osname"":""Windows"",""osversion"":""10"",""a"":true}","9:21:26","1","3","Test_2","74","j","1","748.6000000089407","1920 x 1080","1920 x 1080","true","1","10","","","","",""
"null","<p style=""font-size: 80px;"">+ 10 points</p>","null","html-keyboard-response","180","1326259","0.0-11.0-2.179","5a384471e7bc8000010a8df2","e51uj1","SC","40","F","{""name"":""Chrome"",""chrome"":true,""version"":""106.0"",""blink"":true,""windows"":true,""osname"":""Windows"",""osversion"":""10"",""a"":true}","9:21:26","1","3","Test_1","70","f","1","906.5","1920 x 1080","1920 x 1080","true","1","10","","","","",""
"null","<p style=""font-size: 80px;"">+ 10 points</p>","null","html-keyboard-response","181","1329243","0.0-11.0-2.180","5a384471e7bc8000010a8df2","e51uj1","SC","40","F","{""name"":""Chrome"",""chrome"":true,""version"":""106.0"",""blink"":true,""windows"":true,""osname"":""Windows"",""osversion"":""10"",""a"":true}","9:21:26","1","3","Test_3","70","f","1","953.7999999970198","1920 x 1080","1920 x 1080","true","1","10","","","","",""
"null","<p style=""font-size: 80px;"">+ 0 points</p>","null","html-keyboard-response","182","1331934","0.0-11.0-2.181","5a384471e7bc8000010a8df2","e51uj1","SC","40","F","{""name"":""Chrome"",""chrome"":true,""version"":""106.0"",""blink"":true,""windows"":true,""osname"":""Windows"",""osversion"":""10"",""a"":true}","9:21:26","1","3","Test_2","70","j","0","677.3999999910593","1920 x 1080","1920 x 1080","true","1","0","","","","",""
"null","<p style=""font-size: 80px;"">+ 10 points</p>","null","html-keyboard-response","183","1335137","0.0-11.0-2.182","5a384471e7bc8000010a8df2","e51uj1","SC","40","F","{""name"":""Chrome"",""chrome"":true,""version"":""106.0"",""blink"":true,""windows"":true,""osname"":""Windows"",""osversion"":""10"",""a"":true}","9:21:26","1","3","Test_1","70","f","1","1184.7999999970198","1920 x 1080","1920 x 1080","true","1","10","","","","",""
"null","<p style=""font-size: 80px;"">+ 10 points</p>","null","html-keyboard-response","184","1338887","0.0-11.0-2.183","5a384471e7bc8000010a8df2","e51uj1","SC","40","F","{""name"":""Chrome"",""chrome"":true,""version"":""106.0"",""blink"":true,""windows"":true,""osname"":""Windows"",""osversion"":""10"",""a"":true}","9:21:26","1","3","Test_4","74","j","1","1724.9000000059605","1920 x 1080","1920 x 1080","true","1","10","","","","",""
"null","<p style=""font-size: 80px;"">+ 10 points</p>","null","html-keyboard-response","185","1341652","0.0-11.0-2.184","5a384471e7bc8000010a8df2","e51uj1","SC","40","F","{""name"":""Chrome"",""chrome"":true,""version"":""106.0"",""blink"":true,""windows"":true,""osname"":""Windows"",""osversion"":""10"",""a"":true}","9:21:26","1","3","Test_4","74","j","1","743","1920 x 1080","1920 x 1080","true","1","10","","","","",""
"null","<p style=""font-size: 80px;"">+ 10 points</p>","null","html-keyboard-response","186","1344717","0.0-11.0-2.185","5a384471e7bc8000010a8df2","e51uj1","SC","40","F","{""name"":""Chrome"",""chrome"":true,""version"":""106.0"",""blink"":true,""windows"":true,""osname"":""Windows"",""osversion"":""10"",""a"":true}","9:21:26","1","3","Test_1","70","f","1","1054.0999999940395","1920 x 1080","1920 x 1080","true","1","10","","","","",""
"null","<p style=""font-size: 80px;"">+ 0 points</p>","null","html-keyboard-response","187","1348206","0.0-11.0-2.186","5a384471e7bc8000010a8df2","e51uj1","SC","40","F","{""name"":""Chrome"",""chrome"":true,""version"":""106.0"",""blink"":true,""windows"":true,""osname"":""Windows"",""osversion"":""10"",""a"":true}","9:21:26","1","3","Test_3","74","f","0","1474.5","1920 x 1080","1920 x 1080","true","1","0","","","","",""
"null","<p style=""font-size: 80px;"">+ 10 points</p>","null","html-keyboard-response","188","1351453","0.0-11.0-2.187","5a384471e7bc8000010a8df2","e51uj1","SC","40","F","{""name"":""Chrome"",""chrome"":true,""version"":""106.0"",""blink"":true,""windows"":true,""osname"":""Windows"",""osversion"":""10"",""a"":true}","9:21:26","1","3","Test_3","70","f","1","1235","1920 x 1080","1920 x 1080","true","1","10","","","","",""
