"rt","stimulus","key_press","trial_type","trial_index","time_elapsed","internal_node_id","Prolific_ID","random_ID","initials","age","gender","pc_info","start_time","Phase","Rule","Stimulus","Response","CorrResp","Accuracy","ResponseTime","screen_resolution","window_resolution","focus","relevant","Points","responses","question_order","rev_check","butterfly_check","passed_practice"
"null","<p style=""font-size: 80px;"">+ 10 points</p>","null","html-keyboard-response","1","98152","0.0-7.0-2.0","5b8810541af951000129f4c5","y4fkwx","MG","28","F","{""name"":""Chrome"",""chrome"":true,""version"":""106.0"",""blink"":true,""windows"":true,""osname"":""Windows"",""osversion"":""10"",""a"":true}","9:22:32","0","1","Practice_4","74","j","1","986.6999999880791","1536 x 864","1536 x 864","true","1","10","","","","",""
"null","<p style=""font-size: 80px;"">+ 10 points</p>","null","html-keyboard-response","2","101166","0.0-7.0-2.1","5b8810541af951000129f4c5","y4fkwx","MG","28","F","{""name"":""Chrome"",""chrome"":true,""version"":""106.0"",""blink"":true,""windows"":true,""osname"":""Windows"",""osversion"":""10"",""a"":true}","9:22:32","0","1","Practice_1","70","f","1","998.0999999940395","1536 x 864","1536 x 864","true","1","10","","","","",""
"null","<p style=""font-size: 80px;"">+ 10 points</p>","null","html-keyboard-response","3","103785","0.0-7.0-2.2","5b8810541af951000129f4c5","y4fkwx","MG","28","F","{""name"":""Chrome"",""chrome"":true,""version"":""106.0"",""blink"":true,""windows"":true,""osname"":""Windows"",""osversion"":""10"",""a"":true}","9:22:32","0","1","Practice_4","74","j","1","617.5","1536 x 864","1536 x 864","true","1","10","","","","",""
"null","<p style=""font-size: 80px;"">+ 10 points</p>","null","html-keyboard-response","4","106878","0.0-7.0-2.3","5b8810541af951000129f4c5","y4fkwx","MG","28","F","{""name"":""Chrome"",""chrome"":true,""version"":""106.0"",""blink"":true,""windows"":true,""osname"":""Windows"",""osversion"":""10"",""a"":true}","9:22:32","0","1","Practice_2","74","j","1","1084.0999999940395","1536 x 864","1536 x 864","true","1","10","","","","",""
"null","<p style=""font-size: 80px;"">+ 0 points</p>","null","html-keyboard-response","5","109411","0.0-7.0-2.4","5b8810541af951000129f4c5","y4fkwx","MG","28","F","{""name"":""Chrome"",""chrome"":true,""version"":""106.0"",""blink"":true,""windows"":true,""osname"":""Windows"",""osversion"":""10"",""a"":true}","9:22:32","0","1","Practice_2","70","j","0","513.7000000178814","1536 x 864","1536 x 864","true","1","0","","","","",""
"null","<p style=""font-size: 80px;"">+ 10 points</p>","null","html-keyboard-response","6","112903","0.0-7.0-2.5","5b8810541af951000129f4c5","y4fkwx","MG","28","F","{""name"":""Chrome"",""chrome"":true,""version"":""106.0"",""blink"":true,""windows"":true,""osname"":""Windows"",""osversion"":""10"",""a"":true}","9:22:32","0","1","Practice_1","70","f","1","1479.4000000059605","1536 x 864","1536 x 864","true","1","10","","","","",""
"null","<p style=""font-size: 80px;"">+ 0 points</p>","null","html-keyboard-response","7","115479","0.0-7.0-2.6","5b8810541af951000129f4c5","y4fkwx","MG","28","F","{""name"":""Chrome"",""chrome"":true,""version"":""106.0"",""blink"":true,""windows"":true,""osname"":""Windows"",""osversion"":""10"",""a"":true}","9:22:32","0","1","Practice_4","70","j","0","560","1536 x 864","1536 x 864","true","1","0","","","","",""
"null","<p style=""font-size: 80px;"">+ 10 points</p>","null","html-keyboard-response","8","118508","0.0-7.0-2.7","5b8810541af951000129f4c5","y4fkwx","MG","28","F","{""name"":""Chrome"",""chrome"":true,""version"":""106.0"",""blink"":true,""windows"":true,""osname"":""Windows"",""osversion"":""10"",""a"":true}","9:22:32","0","1","Practice_3","70","f","1","1015.4000000059605","1536 x 864","1536 x 864","true","1","10","","","","",""
"null","<p style=""font-size: 80px;"">+ 10 points</p>","null","html-keyboard-response","9","121056","0.0-7.0-2.8","5b8810541af951000129f4c5","y4fkwx","MG","28","F","{""name"":""Chrome"",""chrome"":true,""version"":""106.0"",""blink"":true,""windows"":true,""osname"":""Windows"",""osversion"":""10"",""a"":true}","9:22:32","0","1","Practice_3","70","f","1","535.5","1536 x 864","1536 x 864","true","1","10","","","","",""
"null","<p style=""font-size: 80px;"">+ 10 points</p>","null","html-keyboard-response","10","123597","0.0-7.0-2.9","5b8810541af951000129f4c5","y4fkwx","MG","28","F","{""name"":""Chrome"",""chrome"":true,""version"":""106.0"",""blink"":true,""windows"":true,""osname"":""Windows"",""osversion"":""10"",""a"":true}","9:22:32","0","1","Practice_4","74","j","1","531.0999999940395","1536 x 864","1536 x 864","true","1","10","","","","",""
"null","<p style=""font-size: 80px;"">+ 10 points</p>","null","html-keyboard-response","11","126113","0.0-7.0-2.10","5b8810541af951000129f4c5","y4fkwx","MG","28","F","{""name"":""Chrome"",""chrome"":true,""version"":""106.0"",""blink"":true,""windows"":true,""osname"":""Windows"",""osversion"":""10"",""a"":true}","9:22:32","0","1","Practice_3","70","f","1","503.59999999403954","1536 x 864","1536 x 864","true","1","10","","","","",""
"null","<p style=""font-size: 80px;"">+ 10 points</p>","null","html-keyboard-response","12","128497","0.0-7.0-2.11","5b8810541af951000129f4c5","y4fkwx","MG","28","F","{""name"":""Chrome"",""chrome"":true,""version"":""106.0"",""blink"":true,""windows"":true,""osname"":""Windows"",""osversion"":""10"",""a"":true}","9:22:32","0","1","Practice_3","70","f","1","366.5","1536 x 864","1536 x 864","true","1","10","","","","",""
"null","<p style=""font-size: 80px;"">+ 10 points</p>","null","html-keyboard-response","13","131032","0.0-7.0-2.12","5b8810541af951000129f4c5","y4fkwx","MG","28","F","{""name"":""Chrome"",""chrome"":true,""version"":""106.0"",""blink"":true,""windows"":true,""osname"":""Windows"",""osversion"":""10"",""a"":true}","9:22:32","0","1","Practice_2","74","j","1","517.1999999880791","1536 x 864","1536 x 864","true","1","10","","","","",""
"null","<p style=""font-size: 80px;"">+ 10 points</p>","null","html-keyboard-response","14","133791","0.0-7.0-2.13","5b8810541af951000129f4c5","y4fkwx","MG","28","F","{""name"":""Chrome"",""chrome"":true,""version"":""106.0"",""blink"":true,""windows"":true,""osname"":""Windows"",""osversion"":""10"",""a"":true}","9:22:32","0","1","Practice_4","74","j","1","751.7999999821186","1536 x 864","1536 x 864","true","1","10","","","","",""
"null","<p style=""font-size: 80px;"">+ 10 points</p>","null","html-keyboard-response","15","136314","0.0-7.0-2.14","5b8810541af951000129f4c5","y4fkwx","MG","28","F","{""name"":""Chrome"",""chrome"":true,""version"":""106.0"",""blink"":true,""windows"":true,""osname"":""Windows"",""osversion"":""10"",""a"":true}","9:22:32","0","1","Practice_1","70","f","1","515.3999999761581","1536 x 864","1536 x 864","true","1","10","","","","",""
"null","<p style=""font-size: 80px;"">+ 10 points</p>","null","html-keyboard-response","16","138808","0.0-7.0-2.15","5b8810541af951000129f4c5","y4fkwx","MG","28","F","{""name"":""Chrome"",""chrome"":true,""version"":""106.0"",""blink"":true,""windows"":true,""osname"":""Windows"",""osversion"":""10"",""a"":true}","9:22:32","0","1","Practice_2","74","j","1","483.2999999821186","1536 x 864","1536 x 864","true","1","10","","","","",""
"null","<p style=""font-size: 80px;"">+ 10 points</p>","null","html-keyboard-response","17","141381","0.0-7.0-2.16","5b8810541af951000129f4c5","y4fkwx","MG","28","F","{""name"":""Chrome"",""chrome"":true,""version"":""106.0"",""blink"":true,""windows"":true,""osname"":""Windows"",""osversion"":""10"",""a"":true}","9:22:32","0","1","Practice_1","70","f","1","559.3000000119209","1536 x 864","1536 x 864","true","1","10","","","","",""
"null","<p style=""font-size: 80px;"">+ 10 points</p>","null","html-keyboard-response","18","143918","0.0-7.0-2.17","5b8810541af951000129f4c5","y4fkwx","MG","28","F","{""name"":""Chrome"",""chrome"":true,""version"":""106.0"",""blink"":true,""windows"":true,""osname"":""Windows"",""osversion"":""10"",""a"":true}","9:22:32","0","1","Practice_1","70","f","1","524","1536 x 864","1536 x 864","true","1","10","","","","",""
"null","<p style=""font-size: 80px;"">+ 10 points</p>","null","html-keyboard-response","19","146621","0.0-7.0-2.18","5b8810541af951000129f4c5","y4fkwx","MG","28","F","{""name"":""Chrome"",""chrome"":true,""version"":""106.0"",""blink"":true,""windows"":true,""osname"":""Windows"",""osversion"":""10"",""a"":true}","9:22:32","0","1","Practice_3","70","f","1","692.9000000059605","1536 x 864","1536 x 864","true","1","10","","","","",""
"null","<p style=""font-size: 80px;"">+ 10 points</p>","null","html-keyboard-response","20","149270","0.0-7.0-2.19","5b8810541af951000129f4c5","y4fkwx","MG","28","F","{""name"":""Chrome"",""chrome"":true,""version"":""106.0"",""blink"":true,""windows"":true,""osname"":""Windows"",""osversion"":""10"",""a"":true}","9:22:32","0","1","Practice_2","74","j","1","635.4000000059605","1536 x 864","1536 x 864","true","1","10","","","","",""
"null","<p style=""font-size: 80px;"">+ 0 points</p>","null","html-keyboard-response","21","152278","0.0-7.0-2.20","5b8810541af951000129f4c5","y4fkwx","MG","28","F","{""name"":""Chrome"",""chrome"":true,""version"":""106.0"",""blink"":true,""windows"":true,""osname"":""Windows"",""osversion"":""10"",""a"":true}","9:22:32","0","2","Practice_4","74","f","0","994.8000000119209","1536 x 864","1536 x 864","true","1","0","","","","",""
"null","<p style=""font-size: 80px;"">+ 0 points</p>","null","html-keyboard-response","22","155166","0.0-7.0-2.21","5b8810541af951000129f4c5","y4fkwx","MG","28","F","{""name"":""Chrome"",""chrome"":true,""version"":""106.0"",""blink"":true,""windows"":true,""osname"":""Windows"",""osversion"":""10"",""a"":true}","9:22:32","0","2","Practice_3","70","j","0","877","1536 x 864","1536 x 864","true","1","0","","","","",""
"null","<p style=""font-size: 80px;"">+ 10 points</p>","null","html-keyboard-response","23","158074","0.0-7.0-2.22","5b8810541af951000129f4c5","y4fkwx","MG","28","F","{""name"":""Chrome"",""chrome"":true,""version"":""106.0"",""blink"":true,""windows"":true,""osname"":""Windows"",""osversion"":""10"",""a"":true}","9:22:32","0","2","Practice_4","70","f","1","900.7999999821186","1536 x 864","1536 x 864","true","1","10","","","","",""
"null","<p style=""font-size: 80px;"">+ 0 points</p>","null","html-keyboard-response","24","160987","0.0-7.0-2.23","5b8810541af951000129f4c5","y4fkwx","MG","28","F","{""name"":""Chrome"",""chrome"":true,""version"":""106.0"",""blink"":true,""windows"":true,""osname"":""Windows"",""osversion"":""10"",""a"":true}","9:22:32","0","2","Practice_2","74","f","0","904.6000000238419","1536 x 864","1536 x 864","true","1","0","","","","",""
"null","<p style=""font-size: 80px;"">+ 10 points</p>","null","html-keyboard-response","25","163819","0.0-7.0-2.24","5b8810541af951000129f4c5","y4fkwx","MG","28","F","{""name"":""Chrome"",""chrome"":true,""version"":""106.0"",""blink"":true,""windows"":true,""osname"":""Windows"",""osversion"":""10"",""a"":true}","9:22:32","0","2","Practice_3","74","j","1","820","1536 x 864","1536 x 864","true","1","10","","","","",""
"null","<p style=""font-size: 80px;"">+ 10 points</p>","null","html-keyboard-response","26","166563","0.0-7.0-2.25","5b8810541af951000129f4c5","y4fkwx","MG","28","F","{""name"":""Chrome"",""chrome"":true,""version"":""106.0"",""blink"":true,""windows"":true,""osname"":""Windows"",""osversion"":""10"",""a"":true}","9:22:32","0","2","Practice_4","70","f","1","728.6999999880791","1536 x 864","1536 x 864","true","1","10","","","","",""
"null","<p style=""font-size: 80px;"">+ 10 points</p>","null","html-keyboard-response","27","169115","0.0-7.0-2.26","5b8810541af951000129f4c5","y4fkwx","MG","28","F","{""name"":""Chrome"",""chrome"":true,""version"":""106.0"",""blink"":true,""windows"":true,""osname"":""Windows"",""osversion"":""10"",""a"":true}","9:22:32","0","2","Practice_3","74","j","1","540.0999999940395","1536 x 864","1536 x 864","true","1","10","","","","",""
"null","<p style=""font-size: 80px;"">+ 10 points</p>","null","html-keyboard-response","28","171899","0.0-7.0-2.27","5b8810541af951000129f4c5","y4fkwx","MG","28","F","{""name"":""Chrome"",""chrome"":true,""version"":""106.0"",""blink"":true,""windows"":true,""osname"":""Windows"",""osversion"":""10"",""a"":true}","9:22:32","0","2","Practice_1","74","j","1","770.7000000178814","1536 x 864","1536 x 864","true","1","10","","","","",""
"null","<p style=""font-size: 80px;"">+ 10 points</p>","null","html-keyboard-response","29","175090","0.0-7.0-2.28","5b8810541af951000129f4c5","y4fkwx","MG","28","F","{""name"":""Chrome"",""chrome"":true,""version"":""106.0"",""blink"":true,""windows"":true,""osname"":""Windows"",""osversion"":""10"",""a"":true}","9:22:32","0","2","Practice_3","74","j","1","1172.699999988079","1536 x 864","1536 x 864","true","1","10","","","","",""
"null","<p style=""font-size: 80px;"">+ 10 points</p>","null","html-keyboard-response","30","178041","0.0-7.0-2.29","5b8810541af951000129f4c5","y4fkwx","MG","28","F","{""name"":""Chrome"",""chrome"":true,""version"":""106.0"",""blink"":true,""windows"":true,""osname"":""Windows"",""osversion"":""10"",""a"":true}","9:22:32","0","2","Practice_4","70","f","1","929.8000000119209","1536 x 864","1536 x 864","true","1","10","","","","",""
"null","<p style=""font-size: 80px;"">+ 10 points</p>","null","html-keyboard-response","31","180884","0.0-7.0-2.30","5b8810541af951000129f4c5","y4fkwx","MG","28","F","{""name"":""Chrome"",""chrome"":true,""version"":""106.0"",""blink"":true,""windows"":true,""osname"":""Windows"",""osversion"":""10"",""a"":true}","9:22:32","0","2","Practice_1","74","j","1","834.4000000059605","1536 x 864","1536 x 864","true","1","10","","","","",""
"null","<p style=""font-size: 80px;"">+ 0 points</p>","null","html-keyboard-response","32","184858","0.0-7.0-2.31","5b8810541af951000129f4c5","y4fkwx","MG","28","F","{""name"":""Chrome"",""chrome"":true,""version"":""106.0"",""blink"":true,""windows"":true,""osname"":""Windows"",""osversion"":""10"",""a"":true}","9:22:32","0","2","Practice_2","74","f","0","1954.9000000059605","1536 x 864","1536 x 864","true","1","0","","","","",""
"null","<p style=""font-size: 80px;"">+ 10 points</p>","null","html-keyboard-response","33","187801","0.0-7.0-2.32","5b8810541af951000129f4c5","y4fkwx","MG","28","F","{""name"":""Chrome"",""chrome"":true,""version"":""106.0"",""blink"":true,""windows"":true,""osname"":""Windows"",""osversion"":""10"",""a"":true}","9:22:32","0","2","Practice_2","70","f","1","927.9000000059605","1536 x 864","1536 x 864","true","1","10","","","","",""
"null","<p style=""font-size: 80px;"">+ 10 points</p>","null","html-keyboard-response","34","190407","0.0-7.0-2.33","5b8810541af951000129f4c5","y4fkwx","MG","28","F","{""name"":""Chrome"",""chrome"":true,""version"":""106.0"",""blink"":true,""windows"":true,""osname"":""Windows"",""osversion"":""10"",""a"":true}","9:22:32","0","2","Practice_1","74","j","1","590.0999999940395","1536 x 864","1536 x 864","true","1","10","","","","",""
"null","<p style=""font-size: 80px;"">+ 10 points</p>","null","html-keyboard-response","35","192923","0.0-7.0-2.34","5b8810541af951000129f4c5","y4fkwx","MG","28","F","{""name"":""Chrome"",""chrome"":true,""version"":""106.0"",""blink"":true,""windows"":true,""osname"":""Windows"",""osversion"":""10"",""a"":true}","9:22:32","0","2","Practice_1","74","j","1","496.40000000596046","1536 x 864","1536 x 864","true","1","10","","","","",""
"null","<p style=""font-size: 80px;"">+ 0 points</p>","null","html-keyboard-response","36","195652","0.0-7.0-2.35","5b8810541af951000129f4c5","y4fkwx","MG","28","F","{""name"":""Chrome"",""chrome"":true,""version"":""106.0"",""blink"":true,""windows"":true,""osname"":""Windows"",""osversion"":""10"",""a"":true}","9:22:32","0","2","Practice_4","74","f","0","705.1999999880791","1536 x 864","1536 x 864","true","1","0","","","","",""
"null","<p style=""font-size: 80px;"">+ 0 points</p>","null","html-keyboard-response","37","198218","0.0-7.0-2.36","5b8810541af951000129f4c5","y4fkwx","MG","28","F","{""name"":""Chrome"",""chrome"":true,""version"":""106.0"",""blink"":true,""windows"":true,""osname"":""Windows"",""osversion"":""10"",""a"":true}","9:22:32","0","2","Practice_2","74","f","0","551.0999999940395","1536 x 864","1536 x 864","true","1","0","","","","",""
"null","<p style=""font-size: 80px;"">+ 0 points</p>","null","html-keyboard-response","38","200752","0.0-7.0-2.37","5b8810541af951000129f4c5","y4fkwx","MG","28","F","{""name"":""Chrome"",""chrome"":true,""version"":""106.0"",""blink"":true,""windows"":true,""osname"":""Windows"",""osversion"":""10"",""a"":true}","9:22:32","0","2","Practice_2","74","f","0","519.0999999940395","1536 x 864","1536 x 864","true","1","0","","","","",""
"null","<p style=""font-size: 80px;"">+ 0 points</p>","null","html-keyboard-response","39","203603","0.0-7.0-2.38","5b8810541af951000129f4c5","y4fkwx","MG","28","F","{""name"":""Chrome"",""chrome"":true,""version"":""106.0"",""blink"":true,""windows"":true,""osname"":""Windows"",""osversion"":""10"",""a"":true}","9:22:32","0","2","Practice_3","70","j","0","841.2999999821186","1536 x 864","1536 x 864","true","1","0","","","","",""
"null","<p style=""font-size: 80px;"">+ 10 points</p>","null","html-keyboard-response","40","206251","0.0-7.0-2.39","5b8810541af951000129f4c5","y4fkwx","MG","28","F","{""name"":""Chrome"",""chrome"":true,""version"":""106.0"",""blink"":true,""windows"":true,""osname"":""Windows"",""osversion"":""10"",""a"":true}","9:22:32","0","2","Practice_1","74","j","1","628.8000000119209","1536 x 864","1536 x 864","true","1","10","","","","",""
"13426.200000017881","","","survey-multi-choice","127","219682","0.0-8.0","5b8810541af951000129f4c5","y4fkwx","MG","28","F","{""name"":""Chrome"",""chrome"":true,""version"":""106.0"",""blink"":true,""windows"":true,""osname"":""Windows"",""osversion"":""10"",""a"":true}","9:22:32","","","","","","","","","","","1","","{""Q0"":""The red one"",""Q1"":""1""}","[0,1]","1","The red one","2"
"null","<p style=""font-size: 80px;"">+ 10 points</p>","null","html-keyboard-response","1","230991","0.0-11.0-2.0","5b8810541af951000129f4c5","y4fkwx","MG","28","F","{""name"":""Chrome"",""chrome"":true,""version"":""106.0"",""blink"":true,""windows"":true,""osname"":""Windows"",""osversion"":""10"",""a"":true}","9:22:32","1","3","Test_4","74","j","1","905","1536 x 864","1536 x 864","true","1","10","","","","",""
"null","<p style=""font-size: 80px;"">+ 10 points</p>","null","html-keyboard-response","2","233551","0.0-11.0-2.1","5b8810541af951000129f4c5","y4fkwx","MG","28","F","{""name"":""Chrome"",""chrome"":true,""version"":""106.0"",""blink"":true,""windows"":true,""osname"":""Windows"",""osversion"":""10"",""a"":true}","9:22:32","1","3","Test_4","74","j","1","550.5999999940395","1536 x 864","1536 x 864","true","1","10","","","","",""
"null","<p style=""font-size: 80px;"">+ 10 points</p>","null","html-keyboard-response","3","235938","0.0-11.0-2.2","5b8810541af951000129f4c5","y4fkwx","MG","28","F","{""name"":""Chrome"",""chrome"":true,""version"":""106.0"",""blink"":true,""windows"":true,""osname"":""Windows"",""osversion"":""10"",""a"":true}","9:22:32","1","3","Test_4","74","j","1","376.30000001192093","1536 x 864","1536 x 864","true","1","10","","","","",""
"null","<p style=""font-size: 80px;"">+ 0 points</p>","null","html-keyboard-response","4","238425","0.0-11.0-2.3","5b8810541af951000129f4c5","y4fkwx","MG","28","F","{""name"":""Chrome"",""chrome"":true,""version"":""106.0"",""blink"":true,""windows"":true,""osname"":""Windows"",""osversion"":""10"",""a"":true}","9:22:32","1","3","Test_2","70","j","0","478.90000000596046","1536 x 864","1536 x 864","true","1","0","","","","",""
"null","<p style=""font-size: 80px;"">+ 10 points</p>","null","html-keyboard-response","5","240991","0.0-11.0-2.4","5b8810541af951000129f4c5","y4fkwx","MG","28","F","{""name"":""Chrome"",""chrome"":true,""version"":""106.0"",""blink"":true,""windows"":true,""osname"":""Windows"",""osversion"":""10"",""a"":true}","9:22:32","1","3","Test_4","74","j","1","551.1999999880791","1536 x 864","1536 x 864","true","1","10","","","","",""
"null","<p style=""font-size: 80px;"">+ 10 points</p>","null","html-keyboard-response","6","243686","0.0-11.0-2.5","5b8810541af951000129f4c5","y4fkwx","MG","28","F","{""name"":""Chrome"",""chrome"":true,""version"":""106.0"",""blink"":true,""windows"":true,""osname"":""Windows"",""osversion"":""10"",""a"":true}","9:22:32","1","3","Test_2","74","j","1","688.0999999940395","1536 x 864","1536 x 864","true","1","10","","","","",""
"null","<p style=""font-size: 80px;"">+ 10 points</p>","null","html-keyboard-response","7","246765","0.0-11.0-2.6","5b8810541af951000129f4c5","y4fkwx","MG","28","F","{""name"":""Chrome"",""chrome"":true,""version"":""106.0"",""blink"":true,""windows"":true,""osname"":""Windows"",""osversion"":""10"",""a"":true}","9:22:32","1","3","Test_1","70","f","1","1069.2000000178814","1536 x 864","1536 x 864","true","1","10","","","","",""
"null","<p style=""font-size: 80px;"">+ 10 points</p>","null","html-keyboard-response","8","249865","0.0-11.0-2.7","5b8810541af951000129f4c5","y4fkwx","MG","28","F","{""name"":""Chrome"",""chrome"":true,""version"":""106.0"",""blink"":true,""windows"":true,""osname"":""Windows"",""osversion"":""10"",""a"":true}","9:22:32","1","3","Test_2","74","j","1","1083.0999999940395","1536 x 864","1536 x 864","true","1","10","","","","",""
"null","<p style=""font-size: 80px;"">+ 10 points</p>","null","html-keyboard-response","9","252356","0.0-11.0-2.8","5b8810541af951000129f4c5","y4fkwx","MG","28","F","{""name"":""Chrome"",""chrome"":true,""version"":""106.0"",""blink"":true,""windows"":true,""osname"":""Windows"",""osversion"":""10"",""a"":true}","9:22:32","1","3","Test_1","70","f","1","475.90000000596046","1536 x 864","1536 x 864","true","1","10","","","","",""
"null","<p style=""font-size: 80px;"">+ 10 points</p>","null","html-keyboard-response","10","255155","0.0-11.0-2.9","5b8810541af951000129f4c5","y4fkwx","MG","28","F","{""name"":""Chrome"",""chrome"":true,""version"":""106.0"",""blink"":true,""windows"":true,""osname"":""Windows"",""osversion"":""10"",""a"":true}","9:22:32","1","3","Test_3","70","f","1","791.7000000178814","1536 x 864","1536 x 864","true","1","10","","","","",""
"null","<p style=""font-size: 80px;"">+ 10 points</p>","null","html-keyboard-response","11","257742","0.0-11.0-2.10","5b8810541af951000129f4c5","y4fkwx","MG","28","F","{""name"":""Chrome"",""chrome"":true,""version"":""106.0"",""blink"":true,""windows"":true,""osname"":""Windows"",""osversion"":""10"",""a"":true}","9:22:32","1","3","Test_3","70","f","1","576","1536 x 864","1536 x 864","true","1","10","","","","",""
"null","<p style=""font-size: 80px;"">+ 0 points</p>","null","html-keyboard-response","12","260303","0.0-11.0-2.11","5b8810541af951000129f4c5","y4fkwx","MG","28","F","{""name"":""Chrome"",""chrome"":true,""version"":""106.0"",""blink"":true,""windows"":true,""osname"":""Windows"",""osversion"":""10"",""a"":true}","9:22:32","1","3","Test_3","74","f","0","549","1536 x 864","1536 x 864","true","1","0","","","","",""
"null","<p style=""font-size: 80px;"">+ 0 points</p>","null","html-keyboard-response","13","262708","0.0-11.0-2.12","5b8810541af951000129f4c5","y4fkwx","MG","28","F","{""name"":""Chrome"",""chrome"":true,""version"":""106.0"",""blink"":true,""windows"":true,""osname"":""Windows"",""osversion"":""10"",""a"":true}","9:22:32","1","3","Test_2","70","j","0","389","1536 x 864","1536 x 864","true","1","0","","","","",""
"null","<p style=""font-size: 80px;"">+ 10 points</p>","null","html-keyboard-response","14","265809","0.0-11.0-2.13","5b8810541af951000129f4c5","y4fkwx","MG","28","F","{""name"":""Chrome"",""chrome"":true,""version"":""106.0"",""blink"":true,""windows"":true,""osname"":""Windows"",""osversion"":""10"",""a"":true}","9:22:32","1","3","Test_1","70","f","1","1081.800000011921","1536 x 864","1536 x 864","true","1","10","","","","",""
"null","<p style=""font-size: 80px;"">+ 10 points</p>","null","html-keyboard-response","15","268672","0.0-11.0-2.14","5b8810541af951000129f4c5","y4fkwx","MG","28","F","{""name"":""Chrome"",""chrome"":true,""version"":""106.0"",""blink"":true,""windows"":true,""osname"":""Windows"",""osversion"":""10"",""a"":true}","9:22:32","1","3","Test_1","70","f","1","853.1999999880791","1536 x 864","1536 x 864","true","1","10","","","","",""
"null","<p style=""font-size: 80px;"">+ 0 points</p>","null","html-keyboard-response","16","271259","0.0-11.0-2.15","5b8810541af951000129f4c5","y4fkwx","MG","28","F","{""name"":""Chrome"",""chrome"":true,""version"":""106.0"",""blink"":true,""windows"":true,""osname"":""Windows"",""osversion"":""10"",""a"":true}","9:22:32","1","4","Test_2","74","f","0","579.1999999880791","1536 x 864","1536 x 864","true","1","0","","","","",""
"null","<p style=""font-size: 80px;"">+ 10 points</p>","null","html-keyboard-response","17","274420","0.0-11.0-2.16","5b8810541af951000129f4c5","y4fkwx","MG","28","F","{""name"":""Chrome"",""chrome"":true,""version"":""106.0"",""blink"":true,""windows"":true,""osname"":""Windows"",""osversion"":""10"",""a"":true}","9:22:32","1","4","Test_1","74","j","1","1152.300000011921","1536 x 864","1536 x 864","true","1","10","","","","",""
"null","<p style=""font-size: 80px;"">+ 10 points</p>","null","html-keyboard-response","18","277067","0.0-11.0-2.17","5b8810541af951000129f4c5","y4fkwx","MG","28","F","{""name"":""Chrome"",""chrome"":true,""version"":""106.0"",""blink"":true,""windows"":true,""osname"":""Windows"",""osversion"":""10"",""a"":true}","9:22:32","1","4","Test_2","70","f","1","635.5","1536 x 864","1536 x 864","true","1","10","","","","",""
"null","<p style=""font-size: 80px;"">+ 10 points</p>","null","html-keyboard-response","19","279476","0.0-11.0-2.18","5b8810541af951000129f4c5","y4fkwx","MG","28","F","{""name"":""Chrome"",""chrome"":true,""version"":""106.0"",""blink"":true,""windows"":true,""osname"":""Windows"",""osversion"":""10"",""a"":true}","9:22:32","1","4","Test_2","70","f","1","402","1536 x 864","1536 x 864","true","1","10","","","","",""
"null","<p style=""font-size: 80px;"">+ 10 points</p>","null","html-keyboard-response","20","282386","0.0-11.0-2.19","5b8810541af951000129f4c5","y4fkwx","MG","28","F","{""name"":""Chrome"",""chrome"":true,""version"":""106.0"",""blink"":true,""windows"":true,""osname"":""Windows"",""osversion"":""10"",""a"":true}","9:22:32","1","4","Test_4","70","f","1","894.4000000059605","1536 x 864","1536 x 864","true","1","10","","","","",""
"null","<p style=""font-size: 80px;"">+ 10 points</p>","null","html-keyboard-response","21","285074","0.0-11.0-2.20","5b8810541af951000129f4c5","y4fkwx","MG","28","F","{""name"":""Chrome"",""chrome"":true,""version"":""106.0"",""blink"":true,""windows"":true,""osname"":""Windows"",""osversion"":""10"",""a"":true}","9:22:32","1","4","Test_3","74","j","1","678.5999999940395","1536 x 864","1536 x 864","true","1","10","","","","",""
"null","<p style=""font-size: 80px;"">+ 10 points</p>","null","html-keyboard-response","22","287864","0.0-11.0-2.21","5b8810541af951000129f4c5","y4fkwx","MG","28","F","{""name"":""Chrome"",""chrome"":true,""version"":""106.0"",""blink"":true,""windows"":true,""osname"":""Windows"",""osversion"":""10"",""a"":true}","9:22:32","1","4","Test_1","74","j","1","776.2000000178814","1536 x 864","1536 x 864","true","1","10","","","","",""
"null","<p style=""font-size: 80px;"">+ 10 points</p>","null","html-keyboard-response","23","290637","0.0-11.0-2.22","5b8810541af951000129f4c5","y4fkwx","MG","28","F","{""name"":""Chrome"",""chrome"":true,""version"":""106.0"",""blink"":true,""windows"":true,""osname"":""Windows"",""osversion"":""10"",""a"":true}","9:22:32","1","4","Test_1","74","j","1","762.7999999821186","1536 x 864","1536 x 864","true","1","10","","","","",""
"null","<p style=""font-size: 80px;"">+ 0 points</p>","null","html-keyboard-response","24","293299","0.0-11.0-2.23","5b8810541af951000129f4c5","y4fkwx","MG","28","F","{""name"":""Chrome"",""chrome"":true,""version"":""106.0"",""blink"":true,""windows"":true,""osname"":""Windows"",""osversion"":""10"",""a"":true}","9:22:32","1","4","Test_3","70","j","0","652.9000000059605","1536 x 864","1536 x 864","true","1","0","","","","",""
"null","<p style=""font-size: 80px;"">+ 10 points</p>","null","html-keyboard-response","25","295961","0.0-11.0-2.24","5b8810541af951000129f4c5","y4fkwx","MG","28","F","{""name"":""Chrome"",""chrome"":true,""version"":""106.0"",""blink"":true,""windows"":true,""osname"":""Windows"",""osversion"":""10"",""a"":true}","9:22:32","1","4","Test_3","74","j","1","655.9000000059605","1536 x 864","1536 x 864","true","1","10","","","","",""
"null","<p style=""font-size: 80px;"">+ 0 points</p>","null","html-keyboard-response","26","298372","0.0-11.0-2.25","5b8810541af951000129f4c5","y4fkwx","MG","28","F","{""name"":""Chrome"",""chrome"":true,""version"":""106.0"",""blink"":true,""windows"":true,""osname"":""Windows"",""osversion"":""10"",""a"":true}","9:22:32","1","4","Test_1","70","j","0","398.19999998807907","1536 x 864","1536 x 864","true","1","0","","","","",""
"null","<p style=""font-size: 80px;"">+ 10 points</p>","null","html-keyboard-response","27","300884","0.0-11.0-2.26","5b8810541af951000129f4c5","y4fkwx","MG","28","F","{""name"":""Chrome"",""chrome"":true,""version"":""106.0"",""blink"":true,""windows"":true,""osname"":""Windows"",""osversion"":""10"",""a"":true}","9:22:32","1","4","Test_2","70","f","1","506.90000000596046","1536 x 864","1536 x 864","true","1","10","","","","",""
"null","<p style=""font-size: 80px;"">+ 10 points</p>","null","html-keyboard-response","28","304031","0.0-11.0-2.27","5b8810541af951000129f4c5","y4fkwx","MG","28","F","{""name"":""Chrome"",""chrome"":true,""version"":""106.0"",""blink"":true,""windows"":true,""osname"":""Windows"",""osversion"":""10"",""a"":true}","9:22:32","1","4","Test_1","74","j","1","1135.5","1536 x 864","1536 x 864","true","1","10","","","","",""
"null","<p style=""font-size: 80px;"">+ 10 points</p>","null","html-keyboard-response","29","306800","0.0-11.0-2.28","5b8810541af951000129f4c5","y4fkwx","MG","28","F","{""name"":""Chrome"",""chrome"":true,""version"":""106.0"",""blink"":true,""windows"":true,""osname"":""Windows"",""osversion"":""10"",""a"":true}","9:22:32","1","4","Test_4","70","f","1","755.8999999761581","1536 x 864","1536 x 864","true","1","10","","","","",""
"null","<p style=""font-size: 80px;"">+ 10 points</p>","null","html-keyboard-response","30","310426","0.0-11.0-2.29","5b8810541af951000129f4c5","y4fkwx","MG","28","F","{""name"":""Chrome"",""chrome"":true,""version"":""106.0"",""blink"":true,""windows"":true,""osname"":""Windows"",""osversion"":""10"",""a"":true}","9:22:32","1","4","Test_3","74","j","1","1615.5999999940395","1536 x 864","1536 x 864","true","1","10","","","","",""
"null","<p style=""font-size: 80px;"">+ 10 points</p>","null","html-keyboard-response","31","313093","0.0-11.0-2.30","5b8810541af951000129f4c5","y4fkwx","MG","28","F","{""name"":""Chrome"",""chrome"":true,""version"":""106.0"",""blink"":true,""windows"":true,""osname"":""Windows"",""osversion"":""10"",""a"":true}","9:22:32","1","4","Test_4","70","f","1","653","1536 x 864","1536 x 864","true","1","10","","","","",""
"null","<p style=""font-size: 80px;"">+ 10 points</p>","null","html-keyboard-response","32","315500","0.0-11.0-2.31","5b8810541af951000129f4c5","y4fkwx","MG","28","F","{""name"":""Chrome"",""chrome"":true,""version"":""106.0"",""blink"":true,""windows"":true,""osname"":""Windows"",""osversion"":""10"",""a"":true}","9:22:32","1","4","Test_4","70","f","1","394.69999998807907","1536 x 864","1536 x 864","true","1","10","","","","",""
"null","<p style=""font-size: 80px;"">+ 10 points</p>","null","html-keyboard-response","33","318076","0.0-11.0-2.32","5b8810541af951000129f4c5","y4fkwx","MG","28","F","{""name"":""Chrome"",""chrome"":true,""version"":""106.0"",""blink"":true,""windows"":true,""osname"":""Windows"",""osversion"":""10"",""a"":true}","9:22:32","1","4","Test_4","70","f","1","567.7999999821186","1536 x 864","1536 x 864","true","1","10","","","","",""
"null","<p style=""font-size: 80px;"">+ 10 points</p>","null","html-keyboard-response","34","320477","0.0-11.0-2.33","5b8810541af951000129f4c5","y4fkwx","MG","28","F","{""name"":""Chrome"",""chrome"":true,""version"":""106.0"",""blink"":true,""windows"":true,""osname"":""Windows"",""osversion"":""10"",""a"":true}","9:22:32","1","4","Test_4","70","f","1","382.09999999403954","1536 x 864","1536 x 864","true","1","10","","","","",""
"null","<p style=""font-size: 80px;"">+ 0 points</p>","null","html-keyboard-response","35","323082","0.0-11.0-2.34","5b8810541af951000129f4c5","y4fkwx","MG","28","F","{""name"":""Chrome"",""chrome"":true,""version"":""106.0"",""blink"":true,""windows"":true,""osname"":""Windows"",""osversion"":""10"",""a"":true}","9:22:32","1","4","Test_2","74","f","0","596.8000000119209","1536 x 864","1536 x 864","true","1","0","","","","",""
"null","<p style=""font-size: 80px;"">+ 10 points</p>","null","html-keyboard-response","36","325471","0.0-11.0-2.35","5b8810541af951000129f4c5","y4fkwx","MG","28","F","{""name"":""Chrome"",""chrome"":true,""version"":""106.0"",""blink"":true,""windows"":true,""osname"":""Windows"",""osversion"":""10"",""a"":true}","9:22:32","1","4","Test_2","70","f","1","369.90000000596046","1536 x 864","1536 x 864","true","1","10","","","","",""
"null","<p style=""font-size: 80px;"">+ 10 points</p>","null","html-keyboard-response","37","327922","0.0-11.0-2.36","5b8810541af951000129f4c5","y4fkwx","MG","28","F","{""name"":""Chrome"",""chrome"":true,""version"":""106.0"",""blink"":true,""windows"":true,""osname"":""Windows"",""osversion"":""10"",""a"":true}","9:22:32","1","4","Test_3","74","j","1","434.09999999403954","1536 x 864","1536 x 864","true","1","10","","","","",""
"null","<p style=""font-size: 80px;"">+ 10 points</p>","null","html-keyboard-response","38","330325","0.0-11.0-2.37","5b8810541af951000129f4c5","y4fkwx","MG","28","F","{""name"":""Chrome"",""chrome"":true,""version"":""106.0"",""blink"":true,""windows"":true,""osname"":""Windows"",""osversion"":""10"",""a"":true}","9:22:32","1","4","Test_3","74","j","1","393.40000000596046","1536 x 864","1536 x 864","true","1","10","","","","",""
"null","<p style=""font-size: 80px;"">+ 0 points</p>","null","html-keyboard-response","39","332710","0.0-11.0-2.38","5b8810541af951000129f4c5","y4fkwx","MG","28","F","{""name"":""Chrome"",""chrome"":true,""version"":""106.0"",""blink"":true,""windows"":true,""osname"":""Windows"",""osversion"":""10"",""a"":true}","9:22:32","1","4","Test_1","70","j","0","367.40000000596046","1536 x 864","1536 x 864","true","1","0","","","","",""
"null","<p style=""font-size: 80px;"">+ 0 points</p>","null","html-keyboard-response","40","335954","0.0-11.0-2.39","5b8810541af951000129f4c5","y4fkwx","MG","28","F","{""name"":""Chrome"",""chrome"":true,""version"":""106.0"",""blink"":true,""windows"":true,""osname"":""Windows"",""osversion"":""10"",""a"":true}","9:22:32","1","3","Test_2","70","j","0","1223.5999999940395","1536 x 864","1536 x 864","true","1","0","","","","",""
"null","<p style=""font-size: 80px;"">+ 10 points</p>","null","html-keyboard-response","41","339445","0.0-11.0-2.40","5b8810541af951000129f4c5","y4fkwx","MG","28","F","{""name"":""Chrome"",""chrome"":true,""version"":""106.0"",""blink"":true,""windows"":true,""osname"":""Windows"",""osversion"":""10"",""a"":true}","9:22:32","1","3","Test_4","74","j","1","1479.699999988079","1536 x 864","1536 x 864","true","1","10","","","","",""
"null","<p style=""font-size: 80px;"">+ 0 points</p>","null","html-keyboard-response","42","342046","0.0-11.0-2.41","5b8810541af951000129f4c5","y4fkwx","MG","28","F","{""name"":""Chrome"",""chrome"":true,""version"":""106.0"",""blink"":true,""windows"":true,""osname"":""Windows"",""osversion"":""10"",""a"":true}","9:22:32","1","3","Test_3","74","f","0","575.5","1536 x 864","1536 x 864","true","1","0","","","","",""
"null","<p style=""font-size: 80px;"">+ 10 points</p>","null","html-keyboard-response","43","344708","0.0-11.0-2.42","5b8810541af951000129f4c5","y4fkwx","MG","28","F","{""name"":""Chrome"",""chrome"":true,""version"":""106.0"",""blink"":true,""windows"":true,""osname"":""Windows"",""osversion"":""10"",""a"":true}","9:22:32","1","3","Test_2","74","j","1","649.5","1536 x 864","1536 x 864","true","1","10","","","","",""
"null","<p style=""font-size: 80px;"">+ 10 points</p>","null","html-keyboard-response","44","347576","0.0-11.0-2.43","5b8810541af951000129f4c5","y4fkwx","MG","28","F","{""name"":""Chrome"",""chrome"":true,""version"":""106.0"",""blink"":true,""windows"":true,""osname"":""Windows"",""osversion"":""10"",""a"":true}","9:22:32","1","3","Test_1","70","f","1","858.4000000059605","1536 x 864","1536 x 864","true","1","10","","","","",""
"null","<p style=""font-size: 80px;"">+ 0 points</p>","null","html-keyboard-response","45","350000","0.0-11.0-2.44","5b8810541af951000129f4c5","y4fkwx","MG","28","F","{""name"":""Chrome"",""chrome"":true,""version"":""106.0"",""blink"":true,""windows"":true,""osname"":""Windows"",""osversion"":""10"",""a"":true}","9:22:32","1","3","Test_3","74","f","0","405.60000002384186","1536 x 864","1536 x 864","true","1","0","","","","",""
"null","<p style=""font-size: 80px;"">+ 10 points</p>","null","html-keyboard-response","46","353022","0.0-11.0-2.45","5b8810541af951000129f4c5","y4fkwx","MG","28","F","{""name"":""Chrome"",""chrome"":true,""version"":""106.0"",""blink"":true,""windows"":true,""osname"":""Windows"",""osversion"":""10"",""a"":true}","9:22:32","1","3","Test_2","74","j","1","1002.5999999940395","1536 x 864","1536 x 864","true","1","10","","","","",""
"null","<p style=""font-size: 80px;"">+ 10 points</p>","null","html-keyboard-response","47","356393","0.0-11.0-2.46","5b8810541af951000129f4c5","y4fkwx","MG","28","F","{""name"":""Chrome"",""chrome"":true,""version"":""106.0"",""blink"":true,""windows"":true,""osname"":""Windows"",""osversion"":""10"",""a"":true}","9:22:32","1","3","Test_4","74","j","1","1357.7000000178814","1536 x 864","1536 x 864","true","1","10","","","","",""
"null","<p style=""font-size: 80px;"">+ 10 points</p>","null","html-keyboard-response","48","359151","0.0-11.0-2.47","5b8810541af951000129f4c5","y4fkwx","MG","28","F","{""name"":""Chrome"",""chrome"":true,""version"":""106.0"",""blink"":true,""windows"":true,""osname"":""Windows"",""osversion"":""10"",""a"":true}","9:22:32","1","3","Test_3","70","f","1","739.2999999821186","1536 x 864","1536 x 864","true","1","10","","","","",""
"null","<p style=""font-size: 80px;"">+ 10 points</p>","null","html-keyboard-response","49","362135","0.0-11.0-2.48","5b8810541af951000129f4c5","y4fkwx","MG","28","F","{""name"":""Chrome"",""chrome"":true,""version"":""106.0"",""blink"":true,""windows"":true,""osname"":""Windows"",""osversion"":""10"",""a"":true}","9:22:32","1","3","Test_4","74","j","1","965.7000000178814","1536 x 864","1536 x 864","true","1","10","","","","",""
"null","<p style=""font-size: 80px;"">+ 10 points</p>","null","html-keyboard-response","50","365086","0.0-11.0-2.49","5b8810541af951000129f4c5","y4fkwx","MG","28","F","{""name"":""Chrome"",""chrome"":true,""version"":""106.0"",""blink"":true,""windows"":true,""osname"":""Windows"",""osversion"":""10"",""a"":true}","9:22:32","1","3","Test_1","70","f","1","934.4000000059605","1536 x 864","1536 x 864","true","1","10","","","","",""
"null","<p style=""font-size: 80px;"">+ 10 points</p>","null","html-keyboard-response","51","367849","0.0-11.0-2.50","5b8810541af951000129f4c5","y4fkwx","MG","28","F","{""name"":""Chrome"",""chrome"":true,""version"":""106.0"",""blink"":true,""windows"":true,""osname"":""Windows"",""osversion"":""10"",""a"":true}","9:22:32","1","3","Test_1","70","f","1","747.5","1536 x 864","1536 x 864","true","1","10","","","","",""
"null","<p style=""font-size: 80px;"">+ 10 points</p>","null","html-keyboard-response","52","370585","0.0-11.0-2.51","5b8810541af951000129f4c5","y4fkwx","MG","28","F","{""name"":""Chrome"",""chrome"":true,""version"":""106.0"",""blink"":true,""windows"":true,""osname"":""Windows"",""osversion"":""10"",""a"":true}","9:22:32","1","3","Test_3","70","f","1","721.9000000059605","1536 x 864","1536 x 864","true","1","10","","","","",""
"null","<p style=""font-size: 80px;"">+ 10 points</p>","null","html-keyboard-response","53","373375","0.0-11.0-2.52","5b8810541af951000129f4c5","y4fkwx","MG","28","F","{""name"":""Chrome"",""chrome"":true,""version"":""106.0"",""blink"":true,""windows"":true,""osname"":""Windows"",""osversion"":""10"",""a"":true}","9:22:32","1","3","Test_1","70","f","1","768.5","1536 x 864","1536 x 864","true","1","10","","","","",""
"null","<p style=""font-size: 80px;"">+ 10 points</p>","null","html-keyboard-response","54","376138","0.0-11.0-2.53","5b8810541af951000129f4c5","y4fkwx","MG","28","F","{""name"":""Chrome"",""chrome"":true,""version"":""106.0"",""blink"":true,""windows"":true,""osname"":""Windows"",""osversion"":""10"",""a"":true}","9:22:32","1","3","Test_2","74","j","1","746.2999999821186","1536 x 864","1536 x 864","true","1","10","","","","",""
"null","<p style=""font-size: 80px;"">+ 0 points</p>","null","html-keyboard-response","55","379143","0.0-11.0-2.54","5b8810541af951000129f4c5","y4fkwx","MG","28","F","{""name"":""Chrome"",""chrome"":true,""version"":""106.0"",""blink"":true,""windows"":true,""osname"":""Windows"",""osversion"":""10"",""a"":true}","9:22:32","1","3","Test_4","70","j","0","989.2000000178814","1536 x 864","1536 x 864","true","1","0","","","","",""
"null","<p style=""font-size: 80px;"">+ 0 points</p>","null","html-keyboard-response","56","381774","0.0-11.0-2.55","5b8810541af951000129f4c5","y4fkwx","MG","28","F","{""name"":""Chrome"",""chrome"":true,""version"":""106.0"",""blink"":true,""windows"":true,""osname"":""Windows"",""osversion"":""10"",""a"":true}","9:22:32","1","4","Test_3","70","j","0","618.1000000238419","1536 x 864","1536 x 864","true","1","0","","","","",""
"null","<p style=""font-size: 80px;"">+ 10 points</p>","null","html-keyboard-response","57","384359","0.0-11.0-2.56","5b8810541af951000129f4c5","y4fkwx","MG","28","F","{""name"":""Chrome"",""chrome"":true,""version"":""106.0"",""blink"":true,""windows"":true,""osname"":""Windows"",""osversion"":""10"",""a"":true}","9:22:32","1","4","Test_3","74","j","1","566.3000000119209","1536 x 864","1536 x 864","true","1","10","","","","",""
"null","<p style=""font-size: 80px;"">+ 10 points</p>","null","html-keyboard-response","58","387224","0.0-11.0-2.57","5b8810541af951000129f4c5","y4fkwx","MG","28","F","{""name"":""Chrome"",""chrome"":true,""version"":""106.0"",""blink"":true,""windows"":true,""osname"":""Windows"",""osversion"":""10"",""a"":true}","9:22:32","1","4","Test_2","70","f","1","847.9000000059605","1536 x 864","1536 x 864","true","1","10","","","","",""
"null","<p style=""font-size: 80px;"">+ 10 points</p>","null","html-keyboard-response","59","389743","0.0-11.0-2.58","5b8810541af951000129f4c5","y4fkwx","MG","28","F","{""name"":""Chrome"",""chrome"":true,""version"":""106.0"",""blink"":true,""windows"":true,""osname"":""Windows"",""osversion"":""10"",""a"":true}","9:22:32","1","4","Test_2","70","f","1","500.5","1536 x 864","1536 x 864","true","1","10","","","","",""
"null","<p style=""font-size: 80px;"">+ 10 points</p>","null","html-keyboard-response","60","392319","0.0-11.0-2.59","5b8810541af951000129f4c5","y4fkwx","MG","28","F","{""name"":""Chrome"",""chrome"":true,""version"":""106.0"",""blink"":true,""windows"":true,""osname"":""Windows"",""osversion"":""10"",""a"":true}","9:22:32","1","4","Test_3","74","j","1","561.8000000119209","1536 x 864","1536 x 864","true","1","10","","","","",""
"null","<p style=""font-size: 80px;"">+ 10 points</p>","null","html-keyboard-response","61","394904","0.0-11.0-2.60","5b8810541af951000129f4c5","y4fkwx","MG","28","F","{""name"":""Chrome"",""chrome"":true,""version"":""106.0"",""blink"":true,""windows"":true,""osname"":""Windows"",""osversion"":""10"",""a"":true}","9:22:32","1","4","Test_3","74","j","1","566.6000000238419","1536 x 864","1536 x 864","true","1","10","","","","",""
"null","<p style=""font-size: 80px;"">+ 10 points</p>","null","html-keyboard-response","62","397514","0.0-11.0-2.61","5b8810541af951000129f4c5","y4fkwx","MG","28","F","{""name"":""Chrome"",""chrome"":true,""version"":""106.0"",""blink"":true,""windows"":true,""osname"":""Windows"",""osversion"":""10"",""a"":true}","9:22:32","1","4","Test_4","70","f","1","589.5999999940395","1536 x 864","1536 x 864","true","1","10","","","","",""
"null","<p style=""font-size: 80px;"">+ 0 points</p>","null","html-keyboard-response","63","400121","0.0-11.0-2.62","5b8810541af951000129f4c5","y4fkwx","MG","28","F","{""name"":""Chrome"",""chrome"":true,""version"":""106.0"",""blink"":true,""windows"":true,""osname"":""Windows"",""osversion"":""10"",""a"":true}","9:22:32","1","4","Test_3","70","j","0","592.8000000119209","1536 x 864","1536 x 864","true","1","0","","","","",""
"null","<p style=""font-size: 80px;"">+ 10 points</p>","null","html-keyboard-response","64","403047","0.0-11.0-2.63","5b8810541af951000129f4c5","y4fkwx","MG","28","F","{""name"":""Chrome"",""chrome"":true,""version"":""106.0"",""blink"":true,""windows"":true,""osname"":""Windows"",""osversion"":""10"",""a"":true}","9:22:32","1","4","Test_2","70","f","1","913.7999999821186","1536 x 864","1536 x 864","true","1","10","","","","",""
"null","<p style=""font-size: 80px;"">+ 10 points</p>","null","html-keyboard-response","65","405591","0.0-11.0-2.64","5b8810541af951000129f4c5","y4fkwx","MG","28","F","{""name"":""Chrome"",""chrome"":true,""version"":""106.0"",""blink"":true,""windows"":true,""osname"":""Windows"",""osversion"":""10"",""a"":true}","9:22:32","1","4","Test_2","70","f","1","534.2000000178814","1536 x 864","1536 x 864","true","1","10","","","","",""
"null","<p style=""font-size: 80px;"">+ 10 points</p>","null","html-keyboard-response","66","408255","0.0-11.0-2.65","5b8810541af951000129f4c5","y4fkwx","MG","28","F","{""name"":""Chrome"",""chrome"":true,""version"":""106.0"",""blink"":true,""windows"":true,""osname"":""Windows"",""osversion"":""10"",""a"":true}","9:22:32","1","4","Test_1","74","j","1","655","1536 x 864","1536 x 864","true","1","10","","","","",""
"null","<p style=""font-size: 80px;"">+ 10 points</p>","null","html-keyboard-response","67","411538","0.0-11.0-2.66","5b8810541af951000129f4c5","y4fkwx","MG","28","F","{""name"":""Chrome"",""chrome"":true,""version"":""106.0"",""blink"":true,""windows"":true,""osname"":""Windows"",""osversion"":""10"",""a"":true}","9:22:32","1","4","Test_4","70","f","1","1270","1536 x 864","1536 x 864","true","1","10","","","","",""
"null","<p style=""font-size: 80px;"">+ 10 points</p>","null","html-keyboard-response","68","414094","0.0-11.0-2.67","5b8810541af951000129f4c5","y4fkwx","MG","28","F","{""name"":""Chrome"",""chrome"":true,""version"":""106.0"",""blink"":true,""windows"":true,""osname"":""Windows"",""osversion"":""10"",""a"":true}","9:22:32","1","4","Test_1","74","j","1","540.4000000059605","1536 x 864","1536 x 864","true","1","10","","","","",""
"null","<p style=""font-size: 80px;"">+ 10 points</p>","null","html-keyboard-response","69","416652","0.0-11.0-2.68","5b8810541af951000129f4c5","y4fkwx","MG","28","F","{""name"":""Chrome"",""chrome"":true,""version"":""106.0"",""blink"":true,""windows"":true,""osname"":""Windows"",""osversion"":""10"",""a"":true}","9:22:32","1","4","Test_1","74","j","1","549.0999999940395","1536 x 864","1536 x 864","true","1","10","","","","",""
"null","<p style=""font-size: 80px;"">+ 10 points</p>","null","html-keyboard-response","70","419272","0.0-11.0-2.69","5b8810541af951000129f4c5","y4fkwx","MG","28","F","{""name"":""Chrome"",""chrome"":true,""version"":""106.0"",""blink"":true,""windows"":true,""osname"":""Windows"",""osversion"":""10"",""a"":true}","9:22:32","1","4","Test_4","70","f","1","608.7000000178814","1536 x 864","1536 x 864","true","1","10","","","","",""
"null","<p style=""font-size: 80px;"">+ 10 points</p>","null","html-keyboard-response","71","421823","0.0-11.0-2.70","5b8810541af951000129f4c5","y4fkwx","MG","28","F","{""name"":""Chrome"",""chrome"":true,""version"":""106.0"",""blink"":true,""windows"":true,""osname"":""Windows"",""osversion"":""10"",""a"":true}","9:22:32","1","4","Test_4","70","f","1","539","1536 x 864","1536 x 864","true","1","10","","","","",""
"null","<p style=""font-size: 80px;"">+ 10 points</p>","null","html-keyboard-response","72","424538","0.0-11.0-2.71","5b8810541af951000129f4c5","y4fkwx","MG","28","F","{""name"":""Chrome"",""chrome"":true,""version"":""106.0"",""blink"":true,""windows"":true,""osname"":""Windows"",""osversion"":""10"",""a"":true}","9:22:32","1","4","Test_3","74","j","1","702.5999999940395","1536 x 864","1536 x 864","true","1","10","","","","",""
"null","<p style=""font-size: 80px;"">+ 10 points</p>","null","html-keyboard-response","73","427044","0.0-11.0-2.72","5b8810541af951000129f4c5","y4fkwx","MG","28","F","{""name"":""Chrome"",""chrome"":true,""version"":""106.0"",""blink"":true,""windows"":true,""osname"":""Windows"",""osversion"":""10"",""a"":true}","9:22:32","1","4","Test_2","70","f","1","494.59999999403954","1536 x 864","1536 x 864","true","1","10","","","","",""
"null","<p style=""font-size: 80px;"">+ 10 points</p>","null","html-keyboard-response","74","431359","0.0-11.0-2.73","5b8810541af951000129f4c5","y4fkwx","MG","28","F","{""name"":""Chrome"",""chrome"":true,""version"":""106.0"",""blink"":true,""windows"":true,""osname"":""Windows"",""osversion"":""10"",""a"":true}","9:22:32","1","4","Test_1","74","j","1","2306","1536 x 864","1536 x 864","true","1","10","","","","",""
"null","<p style=""font-size: 80px;"">+ 10 points</p>","null","html-keyboard-response","75","434092","0.0-11.0-2.74","5b8810541af951000129f4c5","y4fkwx","MG","28","F","{""name"":""Chrome"",""chrome"":true,""version"":""106.0"",""blink"":true,""windows"":true,""osname"":""Windows"",""osversion"":""10"",""a"":true}","9:22:32","1","4","Test_4","70","f","1","718.7999999821186","1536 x 864","1536 x 864","true","1","10","","","","",""
"null","<p style=""font-size: 80px;"">+ 10 points</p>","null","html-keyboard-response","76","436655","0.0-11.0-2.75","5b8810541af951000129f4c5","y4fkwx","MG","28","F","{""name"":""Chrome"",""chrome"":true,""version"":""106.0"",""blink"":true,""windows"":true,""osname"":""Windows"",""osversion"":""10"",""a"":true}","9:22:32","1","4","Test_1","74","j","1","552.2999999821186","1536 x 864","1536 x 864","true","1","10","","","","",""
"null","<p style=""font-size: 80px;"">+ 0 points</p>","null","html-keyboard-response","77","439197","0.0-11.0-2.76","5b8810541af951000129f4c5","y4fkwx","MG","28","F","{""name"":""Chrome"",""chrome"":true,""version"":""106.0"",""blink"":true,""windows"":true,""osname"":""Windows"",""osversion"":""10"",""a"":true}","9:22:32","1","3","Test_1","74","f","0","533.3000000119209","1536 x 864","1536 x 864","true","1","0","","","","",""
"null","<p style=""font-size: 80px;"">+ 10 points</p>","null","html-keyboard-response","78","441867","0.0-11.0-2.77","5b8810541af951000129f4c5","y4fkwx","MG","28","F","{""name"":""Chrome"",""chrome"":true,""version"":""106.0"",""blink"":true,""windows"":true,""osname"":""Windows"",""osversion"":""10"",""a"":true}","9:22:32","1","3","Test_4","74","j","1","663.1999999880791","1536 x 864","1536 x 864","true","1","10","","","","",""
"null","<p style=""font-size: 80px;"">+ 10 points</p>","null","html-keyboard-response","79","444907","0.0-11.0-2.78","5b8810541af951000129f4c5","y4fkwx","MG","28","F","{""name"":""Chrome"",""chrome"":true,""version"":""106.0"",""blink"":true,""windows"":true,""osname"":""Windows"",""osversion"":""10"",""a"":true}","9:22:32","1","3","Test_2","74","j","1","1020.9000000059605","1536 x 864","1536 x 864","true","1","10","","","","",""
"null","<p style=""font-size: 80px;"">+ 10 points</p>","null","html-keyboard-response","80","447545","0.0-11.0-2.79","5b8810541af951000129f4c5","y4fkwx","MG","28","F","{""name"":""Chrome"",""chrome"":true,""version"":""106.0"",""blink"":true,""windows"":true,""osname"":""Windows"",""osversion"":""10"",""a"":true}","9:22:32","1","3","Test_2","74","j","1","627","1536 x 864","1536 x 864","true","1","10","","","","",""
"null","<p style=""font-size: 80px;"">+ 0 points</p>","null","html-keyboard-response","81","449900","0.0-11.0-2.80","5b8810541af951000129f4c5","y4fkwx","MG","28","F","{""name"":""Chrome"",""chrome"":true,""version"":""106.0"",""blink"":true,""windows"":true,""osname"":""Windows"",""osversion"":""10"",""a"":true}","9:22:32","1","3","Test_3","74","f","0","344.2999999821186","1536 x 864","1536 x 864","true","1","0","","","","",""
"null","<p style=""font-size: 80px;"">+ 10 points</p>","null","html-keyboard-response","82","453276","0.0-11.0-2.81","5b8810541af951000129f4c5","y4fkwx","MG","28","F","{""name"":""Chrome"",""chrome"":true,""version"":""106.0"",""blink"":true,""windows"":true,""osname"":""Windows"",""osversion"":""10"",""a"":true}","9:22:32","1","3","Test_1","70","f","1","1365","1536 x 864","1536 x 864","true","1","10","","","","",""
"null","<p style=""font-size: 80px;"">+ 10 points</p>","null","html-keyboard-response","83","455742","0.0-11.0-2.82","5b8810541af951000129f4c5","y4fkwx","MG","28","F","{""name"":""Chrome"",""chrome"":true,""version"":""106.0"",""blink"":true,""windows"":true,""osname"":""Windows"",""osversion"":""10"",""a"":true}","9:22:32","1","3","Test_1","70","f","1","452.60000002384186","1536 x 864","1536 x 864","true","1","10","","","","",""
"null","<p style=""font-size: 80px;"">+ 10 points</p>","null","html-keyboard-response","84","458318","0.0-11.0-2.83","5b8810541af951000129f4c5","y4fkwx","MG","28","F","{""name"":""Chrome"",""chrome"":true,""version"":""106.0"",""blink"":true,""windows"":true,""osname"":""Windows"",""osversion"":""10"",""a"":true}","9:22:32","1","3","Test_4","74","j","1","568.1000000238419","1536 x 864","1536 x 864","true","1","10","","","","",""
"null","<p style=""font-size: 80px;"">+ 10 points</p>","null","html-keyboard-response","85","461224","0.0-11.0-2.84","5b8810541af951000129f4c5","y4fkwx","MG","28","F","{""name"":""Chrome"",""chrome"":true,""version"":""106.0"",""blink"":true,""windows"":true,""osname"":""Windows"",""osversion"":""10"",""a"":true}","9:22:32","1","3","Test_2","74","j","1","896.0999999940395","1536 x 864","1536 x 864","true","1","10","","","","",""
"null","<p style=""font-size: 80px;"">+ 10 points</p>","null","html-keyboard-response","86","463929","0.0-11.0-2.85","5b8810541af951000129f4c5","y4fkwx","MG","28","F","{""name"":""Chrome"",""chrome"":true,""version"":""106.0"",""blink"":true,""windows"":true,""osname"":""Windows"",""osversion"":""10"",""a"":true}","9:22:32","1","3","Test_1","70","f","1","686.4000000059605","1536 x 864","1536 x 864","true","1","10","","","","",""
"null","<p style=""font-size: 80px;"">+ 10 points</p>","null","html-keyboard-response","87","466873","0.0-11.0-2.86","5b8810541af951000129f4c5","y4fkwx","MG","28","F","{""name"":""Chrome"",""chrome"":true,""version"":""106.0"",""blink"":true,""windows"":true,""osname"":""Windows"",""osversion"":""10"",""a"":true}","9:22:32","1","3","Test_4","74","j","1","930.2999999821186","1536 x 864","1536 x 864","true","1","10","","","","",""
"null","<p style=""font-size: 80px;"">+ 10 points</p>","null","html-keyboard-response","88","469409","0.0-11.0-2.87","5b8810541af951000129f4c5","y4fkwx","MG","28","F","{""name"":""Chrome"",""chrome"":true,""version"":""106.0"",""blink"":true,""windows"":true,""osname"":""Windows"",""osversion"":""10"",""a"":true}","9:22:32","1","3","Test_4","74","j","1","531.0999999940395","1536 x 864","1536 x 864","true","1","10","","","","",""
"null","<p style=""font-size: 80px;"">+ 10 points</p>","null","html-keyboard-response","89","472110","0.0-11.0-2.88","5b8810541af951000129f4c5","y4fkwx","MG","28","F","{""name"":""Chrome"",""chrome"":true,""version"":""106.0"",""blink"":true,""windows"":true,""osname"":""Windows"",""osversion"":""10"",""a"":true}","9:22:32","1","3","Test_3","70","f","1","685.4000000059605","1536 x 864","1536 x 864","true","1","10","","","","",""
"null","<p style=""font-size: 80px;"">+ 10 points</p>","null","html-keyboard-response","90","474687","0.0-11.0-2.89","5b8810541af951000129f4c5","y4fkwx","MG","28","F","{""name"":""Chrome"",""chrome"":true,""version"":""106.0"",""blink"":true,""windows"":true,""osname"":""Windows"",""osversion"":""10"",""a"":true}","9:22:32","1","3","Test_3","70","f","1","570.6999999880791","1536 x 864","1536 x 864","true","1","10","","","","",""
"null","<p style=""font-size: 80px;"">+ 0 points</p>","null","html-keyboard-response","91","477723","0.0-11.0-2.90","5b8810541af951000129f4c5","y4fkwx","MG","28","F","{""name"":""Chrome"",""chrome"":true,""version"":""106.0"",""blink"":true,""windows"":true,""osname"":""Windows"",""osversion"":""10"",""a"":true}","9:22:32","1","3","Test_2","70","j","0","1029.5","1536 x 864","1536 x 864","true","1","0","","","","",""
"null","<p style=""font-size: 80px;"">+ 10 points</p>","null","html-keyboard-response","92","480402","0.0-11.0-2.91","5b8810541af951000129f4c5","y4fkwx","MG","28","F","{""name"":""Chrome"",""chrome"":true,""version"":""106.0"",""blink"":true,""windows"":true,""osname"":""Windows"",""osversion"":""10"",""a"":true}","9:22:32","1","3","Test_3","70","f","1","671.2999999821186","1536 x 864","1536 x 864","true","1","10","","","","",""
"null","<p style=""font-size: 80px;"">+ 0 points</p>","null","html-keyboard-response","93","482853","0.0-11.0-2.92","5b8810541af951000129f4c5","y4fkwx","MG","28","F","{""name"":""Chrome"",""chrome"":true,""version"":""106.0"",""blink"":true,""windows"":true,""osname"":""Windows"",""osversion"":""10"",""a"":true}","9:22:32","1","4","Test_4","74","f","0","442.09999999403954","1536 x 864","1536 x 864","true","1","0","","","","",""
"null","<p style=""font-size: 80px;"">+ 10 points</p>","null","html-keyboard-response","94","485528","0.0-11.0-2.93","5b8810541af951000129f4c5","y4fkwx","MG","28","F","{""name"":""Chrome"",""chrome"":true,""version"":""106.0"",""blink"":true,""windows"":true,""osname"":""Windows"",""osversion"":""10"",""a"":true}","9:22:32","1","4","Test_4","70","f","1","663.2000000178814","1536 x 864","1536 x 864","true","1","10","","","","",""
"null","<p style=""font-size: 80px;"">+ 10 points</p>","null","html-keyboard-response","95","488021","0.0-11.0-2.94","5b8810541af951000129f4c5","y4fkwx","MG","28","F","{""name"":""Chrome"",""chrome"":true,""version"":""106.0"",""blink"":true,""windows"":true,""osname"":""Windows"",""osversion"":""10"",""a"":true}","9:22:32","1","4","Test_4","70","f","1","482.5","1536 x 864","1536 x 864","true","1","10","","","","",""
"null","<p style=""font-size: 80px;"">+ 10 points</p>","null","html-keyboard-response","96","490737","0.0-11.0-2.95","5b8810541af951000129f4c5","y4fkwx","MG","28","F","{""name"":""Chrome"",""chrome"":true,""version"":""106.0"",""blink"":true,""windows"":true,""osname"":""Windows"",""osversion"":""10"",""a"":true}","9:22:32","1","4","Test_3","74","j","1","697.0999999940395","1536 x 864","1536 x 864","true","1","10","","","","",""
"null","<p style=""font-size: 80px;"">+ 10 points</p>","null","html-keyboard-response","97","493387","0.0-11.0-2.96","5b8810541af951000129f4c5","y4fkwx","MG","28","F","{""name"":""Chrome"",""chrome"":true,""version"":""106.0"",""blink"":true,""windows"":true,""osname"":""Windows"",""osversion"":""10"",""a"":true}","9:22:32","1","4","Test_3","74","j","1","630.8000000119209","1536 x 864","1536 x 864","true","1","10","","","","",""
"null","<p style=""font-size: 80px;"">+ 0 points</p>","null","html-keyboard-response","98","497251","0.0-11.0-2.97","5b8810541af951000129f4c5","y4fkwx","MG","28","F","{""name"":""Chrome"",""chrome"":true,""version"":""106.0"",""blink"":true,""windows"":true,""osname"":""Windows"",""osversion"":""10"",""a"":true}","9:22:32","1","4","Test_1","70","j","0","1846.4000000059605","1536 x 864","1536 x 864","true","1","0","","","","",""
"null","<p style=""font-size: 80px;"">+ 10 points</p>","null","html-keyboard-response","99","499734","0.0-11.0-2.98","5b8810541af951000129f4c5","y4fkwx","MG","28","F","{""name"":""Chrome"",""chrome"":true,""version"":""106.0"",""blink"":true,""windows"":true,""osname"":""Windows"",""osversion"":""10"",""a"":true}","9:22:32","1","4","Test_1","74","j","1","471.40000000596046","1536 x 864","1536 x 864","true","1","10","","","","",""
"null","<p style=""font-size: 80px;"">+ 10 points</p>","null","html-keyboard-response","100","502221","0.0-11.0-2.99","5b8810541af951000129f4c5","y4fkwx","MG","28","F","{""name"":""Chrome"",""chrome"":true,""version"":""106.0"",""blink"":true,""windows"":true,""osname"":""Windows"",""osversion"":""10"",""a"":true}","9:22:32","1","4","Test_1","74","j","1","472.19999998807907","1536 x 864","1536 x 864","true","1","10","","","","",""
"null","<p style=""font-size: 80px;"">+ 0 points</p>","null","html-keyboard-response","101","504688","0.0-11.0-2.100","5b8810541af951000129f4c5","y4fkwx","MG","28","F","{""name"":""Chrome"",""chrome"":true,""version"":""106.0"",""blink"":true,""windows"":true,""osname"":""Windows"",""osversion"":""10"",""a"":true}","9:22:32","1","4","Test_2","74","f","0","453.30000001192093","1536 x 864","1536 x 864","true","1","0","","","","",""
"null","<p style=""font-size: 80px;"">+ 10 points</p>","null","html-keyboard-response","102","507205","0.0-11.0-2.101","5b8810541af951000129f4c5","y4fkwx","MG","28","F","{""name"":""Chrome"",""chrome"":true,""version"":""106.0"",""blink"":true,""windows"":true,""osname"":""Windows"",""osversion"":""10"",""a"":true}","9:22:32","1","4","Test_3","74","j","1","501.19999998807907","1536 x 864","1536 x 864","true","1","10","","","","",""
"null","<p style=""font-size: 80px;"">+ 10 points</p>","null","html-keyboard-response","103","510695","0.0-11.0-2.102","5b8810541af951000129f4c5","y4fkwx","MG","28","F","{""name"":""Chrome"",""chrome"":true,""version"":""106.0"",""blink"":true,""windows"":true,""osname"":""Windows"",""osversion"":""10"",""a"":true}","9:22:32","1","4","Test_1","74","j","1","1475.699999988079","1536 x 864","1536 x 864","true","1","10","","","","",""
"null","<p style=""font-size: 80px;"">+ 0 points</p>","null","html-keyboard-response","104","513290","0.0-11.0-2.103","5b8810541af951000129f4c5","y4fkwx","MG","28","F","{""name"":""Chrome"",""chrome"":true,""version"":""106.0"",""blink"":true,""windows"":true,""osname"":""Windows"",""osversion"":""10"",""a"":true}","9:22:32","1","4","Test_3","70","j","0","585.5999999940395","1536 x 864","1536 x 864","true","1","0","","","","",""
"null","<p style=""font-size: 80px;"">+ 10 points</p>","null","html-keyboard-response","105","516497","0.0-11.0-2.104","5b8810541af951000129f4c5","y4fkwx","MG","28","F","{""name"":""Chrome"",""chrome"":true,""version"":""106.0"",""blink"":true,""windows"":true,""osname"":""Windows"",""osversion"":""10"",""a"":true}","9:22:32","1","4","Test_4","70","f","1","1186.4000000059605","1536 x 864","1536 x 864","true","1","10","","","","",""
"null","<p style=""font-size: 80px;"">+ 10 points</p>","null","html-keyboard-response","106","519255","0.0-11.0-2.105","5b8810541af951000129f4c5","y4fkwx","MG","28","F","{""name"":""Chrome"",""chrome"":true,""version"":""106.0"",""blink"":true,""windows"":true,""osname"":""Windows"",""osversion"":""10"",""a"":true}","9:22:32","1","4","Test_4","70","f","1","740.6999999880791","1536 x 864","1536 x 864","true","1","10","","","","",""
"null","<p style=""font-size: 80px;"">+ 0 points</p>","null","html-keyboard-response","107","521631","0.0-11.0-2.106","5b8810541af951000129f4c5","y4fkwx","MG","28","F","{""name"":""Chrome"",""chrome"":true,""version"":""106.0"",""blink"":true,""windows"":true,""osname"":""Windows"",""osversion"":""10"",""a"":true}","9:22:32","1","4","Test_1","70","j","0","354.59999999403954","1536 x 864","1536 x 864","true","1","0","","","","",""
"null","<p style=""font-size: 80px;"">+ 10 points</p>","null","html-keyboard-response","108","525142","0.0-11.0-2.107","5b8810541af951000129f4c5","y4fkwx","MG","28","F","{""name"":""Chrome"",""chrome"":true,""version"":""106.0"",""blink"":true,""windows"":true,""osname"":""Windows"",""osversion"":""10"",""a"":true}","9:22:32","1","4","Test_2","70","f","1","1494.2999999821186","1536 x 864","1536 x 864","true","1","10","","","","",""
"null","<p style=""font-size: 80px;"">+ 10 points</p>","null","html-keyboard-response","109","527626","0.0-11.0-2.108","5b8810541af951000129f4c5","y4fkwx","MG","28","F","{""name"":""Chrome"",""chrome"":true,""version"":""106.0"",""blink"":true,""windows"":true,""osname"":""Windows"",""osversion"":""10"",""a"":true}","9:22:32","1","4","Test_2","70","f","1","461.7999999821186","1536 x 864","1536 x 864","true","1","10","","","","",""
"null","<p style=""font-size: 80px;"">+ 10 points</p>","null","html-keyboard-response","110","535427","0.0-11.0-2.109","5b8810541af951000129f4c5","y4fkwx","MG","28","F","{""name"":""Chrome"",""chrome"":true,""version"":""106.0"",""blink"":true,""windows"":true,""osname"":""Windows"",""osversion"":""10"",""a"":true}","9:22:32","1","3","Test_4","74","j","1","1151.6000000238419","1536 x 864","1536 x 864","true","1","10","","","","",""
"null","<p style=""font-size: 80px;"">+ 10 points</p>","null","html-keyboard-response","111","538059","0.0-11.0-2.110","5b8810541af951000129f4c5","y4fkwx","MG","28","F","{""name"":""Chrome"",""chrome"":true,""version"":""106.0"",""blink"":true,""windows"":true,""osname"":""Windows"",""osversion"":""10"",""a"":true}","9:22:32","1","3","Test_3","70","f","1","616.5","1536 x 864","1536 x 864","true","1","10","","","","",""
"null","<p style=""font-size: 80px;"">+ 10 points</p>","null","html-keyboard-response","112","540687","0.0-11.0-2.111","5b8810541af951000129f4c5","y4fkwx","MG","28","F","{""name"":""Chrome"",""chrome"":true,""version"":""106.0"",""blink"":true,""windows"":true,""osname"":""Windows"",""osversion"":""10"",""a"":true}","9:22:32","1","3","Test_3","70","f","1","604","1536 x 864","1536 x 864","true","1","10","","","","",""
"null","<p style=""font-size: 80px;"">+ 10 points</p>","null","html-keyboard-response","113","543211","0.0-11.0-2.112","5b8810541af951000129f4c5","y4fkwx","MG","28","F","{""name"":""Chrome"",""chrome"":true,""version"":""106.0"",""blink"":true,""windows"":true,""osname"":""Windows"",""osversion"":""10"",""a"":true}","9:22:32","1","3","Test_4","74","j","1","504.39999997615814","1536 x 864","1536 x 864","true","1","10","","","","",""
"null","<p style=""font-size: 80px;"">+ 10 points</p>","null","html-keyboard-response","114","546020","0.0-11.0-2.113","5b8810541af951000129f4c5","y4fkwx","MG","28","F","{""name"":""Chrome"",""chrome"":true,""version"":""106.0"",""blink"":true,""windows"":true,""osname"":""Windows"",""osversion"":""10"",""a"":true}","9:22:32","1","3","Test_1","70","f","1","783.7999999821186","1536 x 864","1536 x 864","true","1","10","","","","",""
"null","<p style=""font-size: 80px;"">+ 10 points</p>","null","html-keyboard-response","115","548740","0.0-11.0-2.114","5b8810541af951000129f4c5","y4fkwx","MG","28","F","{""name"":""Chrome"",""chrome"":true,""version"":""106.0"",""blink"":true,""windows"":true,""osname"":""Windows"",""osversion"":""10"",""a"":true}","9:22:32","1","3","Test_2","74","j","1","705.5","1536 x 864","1536 x 864","true","1","10","","","","",""
"null","<p style=""font-size: 80px;"">+ 10 points</p>","null","html-keyboard-response","116","551495","0.0-11.0-2.115","5b8810541af951000129f4c5","y4fkwx","MG","28","F","{""name"":""Chrome"",""chrome"":true,""version"":""106.0"",""blink"":true,""windows"":true,""osname"":""Windows"",""osversion"":""10"",""a"":true}","9:22:32","1","3","Test_1","70","f","1","737.5999999940395","1536 x 864","1536 x 864","true","1","10","","","","",""
"null","<p style=""font-size: 80px;"">+ 10 points</p>","null","html-keyboard-response","117","553897","0.0-11.0-2.116","5b8810541af951000129f4c5","y4fkwx","MG","28","F","{""name"":""Chrome"",""chrome"":true,""version"":""106.0"",""blink"":true,""windows"":true,""osname"":""Windows"",""osversion"":""10"",""a"":true}","9:22:32","1","3","Test_1","70","f","1","389.19999998807907","1536 x 864","1536 x 864","true","1","10","","","","",""
"null","<p style=""font-size: 80px;"">+ 0 points</p>","null","html-keyboard-response","118","556322","0.0-11.0-2.117","5b8810541af951000129f4c5","y4fkwx","MG","28","F","{""name"":""Chrome"",""chrome"":true,""version"":""106.0"",""blink"":true,""windows"":true,""osname"":""Windows"",""osversion"":""10"",""a"":true}","9:22:32","1","3","Test_3","74","f","0","407.7999999821186","1536 x 864","1536 x 864","true","1","0","","","","",""
"null","<p style=""font-size: 80px;"">+ 10 points</p>","null","html-keyboard-response","119","558855","0.0-11.0-2.118","5b8810541af951000129f4c5","y4fkwx","MG","28","F","{""name"":""Chrome"",""chrome"":true,""version"":""106.0"",""blink"":true,""windows"":true,""osname"":""Windows"",""osversion"":""10"",""a"":true}","9:22:32","1","3","Test_2","74","j","1","515.9000000059605","1536 x 864","1536 x 864","true","1","10","","","","",""
"null","<p style=""font-size: 80px;"">+ 10 points</p>","null","html-keyboard-response","120","561562","0.0-11.0-2.119","5b8810541af951000129f4c5","y4fkwx","MG","28","F","{""name"":""Chrome"",""chrome"":true,""version"":""106.0"",""blink"":true,""windows"":true,""osname"":""Windows"",""osversion"":""10"",""a"":true}","9:22:32","1","3","Test_1","70","f","1","692.6999999880791","1536 x 864","1536 x 864","true","1","10","","","","",""
"null","<p style=""font-size: 80px;"">+ 10 points</p>","null","html-keyboard-response","121","564153","0.0-11.0-2.120","5b8810541af951000129f4c5","y4fkwx","MG","28","F","{""name"":""Chrome"",""chrome"":true,""version"":""106.0"",""blink"":true,""windows"":true,""osname"":""Windows"",""osversion"":""10"",""a"":true}","9:22:32","1","3","Test_2","74","j","1","571.8000000119209","1536 x 864","1536 x 864","true","1","10","","","","",""
"null","<p style=""font-size: 80px;"">+ 10 points</p>","null","html-keyboard-response","122","566761","0.0-11.0-2.121","5b8810541af951000129f4c5","y4fkwx","MG","28","F","{""name"":""Chrome"",""chrome"":true,""version"":""106.0"",""blink"":true,""windows"":true,""osname"":""Windows"",""osversion"":""10"",""a"":true}","9:22:32","1","3","Test_1","70","f","1","592","1536 x 864","1536 x 864","true","1","10","","","","",""
"null","<p style=""font-size: 80px;"">+ 0 points</p>","null","html-keyboard-response","123","569407","0.0-11.0-2.122","5b8810541af951000129f4c5","y4fkwx","MG","28","F","{""name"":""Chrome"",""chrome"":true,""version"":""106.0"",""blink"":true,""windows"":true,""osname"":""Windows"",""osversion"":""10"",""a"":true}","9:22:32","1","3","Test_4","70","j","0","631.0999999940395","1536 x 864","1536 x 864","true","1","0","","","","",""
"null","<p style=""font-size: 80px;"">+ 10 points</p>","null","html-keyboard-response","124","572112","0.0-11.0-2.123","5b8810541af951000129f4c5","y4fkwx","MG","28","F","{""name"":""Chrome"",""chrome"":true,""version"":""106.0"",""blink"":true,""windows"":true,""osname"":""Windows"",""osversion"":""10"",""a"":true}","9:22:32","1","3","Test_3","70","f","1","694.5","1536 x 864","1536 x 864","true","1","10","","","","",""
"null","<p style=""font-size: 80px;"">+ 10 points</p>","null","html-keyboard-response","125","574839","0.0-11.0-2.124","5b8810541af951000129f4c5","y4fkwx","MG","28","F","{""name"":""Chrome"",""chrome"":true,""version"":""106.0"",""blink"":true,""windows"":true,""osname"":""Windows"",""osversion"":""10"",""a"":true}","9:22:32","1","3","Test_3","70","f","1","708.5","1536 x 864","1536 x 864","true","1","10","","","","",""
"null","<p style=""font-size: 80px;"">+ 10 points</p>","null","html-keyboard-response","126","577397","0.0-11.0-2.125","5b8810541af951000129f4c5","y4fkwx","MG","28","F","{""name"":""Chrome"",""chrome"":true,""version"":""106.0"",""blink"":true,""windows"":true,""osname"":""Windows"",""osversion"":""10"",""a"":true}","9:22:32","1","3","Test_2","74","j","1","541.3000000119209","1536 x 864","1536 x 864","true","1","10","","","","",""
"null","<p style=""font-size: 80px;"">+ 10 points</p>","null","html-keyboard-response","127","580491","0.0-11.0-2.126","5b8810541af951000129f4c5","y4fkwx","MG","28","F","{""name"":""Chrome"",""chrome"":true,""version"":""106.0"",""blink"":true,""windows"":true,""osname"":""Windows"",""osversion"":""10"",""a"":true}","9:22:32","1","3","Test_4","74","j","1","1078.4000000059605","1536 x 864","1536 x 864","true","1","10","","","","",""
"null","<p style=""font-size: 80px;"">+ 10 points</p>","null","html-keyboard-response","128","583445","0.0-11.0-2.127","5b8810541af951000129f4c5","y4fkwx","MG","28","F","{""name"":""Chrome"",""chrome"":true,""version"":""106.0"",""blink"":true,""windows"":true,""osname"":""Windows"",""osversion"":""10"",""a"":true}","9:22:32","1","3","Test_2","74","j","1","937.7999999821186","1536 x 864","1536 x 864","true","1","10","","","","",""
"null","<p style=""font-size: 80px;"">+ 10 points</p>","null","html-keyboard-response","129","585981","0.0-11.0-2.128","5b8810541af951000129f4c5","y4fkwx","MG","28","F","{""name"":""Chrome"",""chrome"":true,""version"":""106.0"",""blink"":true,""windows"":true,""osname"":""Windows"",""osversion"":""10"",""a"":true}","9:22:32","1","3","Test_3","70","f","1","519.6999999880791","1536 x 864","1536 x 864","true","1","10","","","","",""
"null","<p style=""font-size: 80px;"">+ 10 points</p>","null","html-keyboard-response","130","588859","0.0-11.0-2.129","5b8810541af951000129f4c5","y4fkwx","MG","28","F","{""name"":""Chrome"",""chrome"":true,""version"":""106.0"",""blink"":true,""windows"":true,""osname"":""Windows"",""osversion"":""10"",""a"":true}","9:22:32","1","3","Test_4","74","j","1","865.0999999940395","1536 x 864","1536 x 864","true","1","10","","","","",""
"null","<p style=""font-size: 80px;"">+ 10 points</p>","null","html-keyboard-response","131","591580","0.0-11.0-2.130","5b8810541af951000129f4c5","y4fkwx","MG","28","F","{""name"":""Chrome"",""chrome"":true,""version"":""106.0"",""blink"":true,""windows"":true,""osname"":""Windows"",""osversion"":""10"",""a"":true}","9:22:32","1","3","Test_4","74","j","1","706.3000000119209","1536 x 864","1536 x 864","true","1","10","","","","",""
"null","<p style=""font-size: 80px;"">+ 10 points</p>","null","html-keyboard-response","132","594500","0.0-11.0-2.131","5b8810541af951000129f4c5","y4fkwx","MG","28","F","{""name"":""Chrome"",""chrome"":true,""version"":""106.0"",""blink"":true,""windows"":true,""osname"":""Windows"",""osversion"":""10"",""a"":true}","9:22:32","1","3","Test_2","74","j","1","910.4000000059605","1536 x 864","1536 x 864","true","1","10","","","","",""
"null","<p style=""font-size: 80px;"">+ 0 points</p>","null","html-keyboard-response","133","597150","0.0-11.0-2.132","5b8810541af951000129f4c5","y4fkwx","MG","28","F","{""name"":""Chrome"",""chrome"":true,""version"":""106.0"",""blink"":true,""windows"":true,""osname"":""Windows"",""osversion"":""10"",""a"":true}","9:22:32","1","4","Test_2","74","f","0","639.2000000178814","1536 x 864","1536 x 864","true","1","0","","","","",""
"null","<p style=""font-size: 80px;"">+ 10 points</p>","null","html-keyboard-response","134","600909","0.0-11.0-2.133","5b8810541af951000129f4c5","y4fkwx","MG","28","F","{""name"":""Chrome"",""chrome"":true,""version"":""106.0"",""blink"":true,""windows"":true,""osname"":""Windows"",""osversion"":""10"",""a"":true}","9:22:32","1","4","Test_4","70","f","1","1753","1536 x 864","1536 x 864","true","1","10","","","","",""
"null","<p style=""font-size: 80px;"">+ 10 points</p>","null","html-keyboard-response","135","603413","0.0-11.0-2.134","5b8810541af951000129f4c5","y4fkwx","MG","28","F","{""name"":""Chrome"",""chrome"":true,""version"":""106.0"",""blink"":true,""windows"":true,""osname"":""Windows"",""osversion"":""10"",""a"":true}","9:22:32","1","4","Test_3","74","j","1","495.5","1536 x 864","1536 x 864","true","1","10","","","","",""
"null","<p style=""font-size: 80px;"">+ 10 points</p>","null","html-keyboard-response","136","606251","0.0-11.0-2.135","5b8810541af951000129f4c5","y4fkwx","MG","28","F","{""name"":""Chrome"",""chrome"":true,""version"":""106.0"",""blink"":true,""windows"":true,""osname"":""Windows"",""osversion"":""10"",""a"":true}","9:22:32","1","4","Test_4","70","f","1","827.1999999880791","1536 x 864","1536 x 864","true","1","10","","","","",""
"null","<p style=""font-size: 80px;"">+ 10 points</p>","null","html-keyboard-response","137","609179","0.0-11.0-2.136","5b8810541af951000129f4c5","y4fkwx","MG","28","F","{""name"":""Chrome"",""chrome"":true,""version"":""106.0"",""blink"":true,""windows"":true,""osname"":""Windows"",""osversion"":""10"",""a"":true}","9:22:32","1","4","Test_2","70","f","1","919.3999999761581","1536 x 864","1536 x 864","true","1","10","","","","",""
"null","<p style=""font-size: 80px;"">+ 10 points</p>","null","html-keyboard-response","138","612149","0.0-11.0-2.137","5b8810541af951000129f4c5","y4fkwx","MG","28","F","{""name"":""Chrome"",""chrome"":true,""version"":""106.0"",""blink"":true,""windows"":true,""osname"":""Windows"",""osversion"":""10"",""a"":true}","9:22:32","1","4","Test_4","70","f","1","961.8000000119209","1536 x 864","1536 x 864","true","1","10","","","","",""
"null","<p style=""font-size: 80px;"">+ 10 points</p>","null","html-keyboard-response","139","615096","0.0-11.0-2.138","5b8810541af951000129f4c5","y4fkwx","MG","28","F","{""name"":""Chrome"",""chrome"":true,""version"":""106.0"",""blink"":true,""windows"":true,""osname"":""Windows"",""osversion"":""10"",""a"":true}","9:22:32","1","4","Test_2","70","f","1","932.2999999821186","1536 x 864","1536 x 864","true","1","10","","","","",""
"null","<p style=""font-size: 80px;"">+ 10 points</p>","null","html-keyboard-response","140","617706","0.0-11.0-2.139","5b8810541af951000129f4c5","y4fkwx","MG","28","F","{""name"":""Chrome"",""chrome"":true,""version"":""106.0"",""blink"":true,""windows"":true,""osname"":""Windows"",""osversion"":""10"",""a"":true}","9:22:32","1","4","Test_4","70","f","1","603.9000000059605","1536 x 864","1536 x 864","true","1","10","","","","",""
"null","<p style=""font-size: 80px;"">+ 0 points</p>","null","html-keyboard-response","141","620224","0.0-11.0-2.140","5b8810541af951000129f4c5","y4fkwx","MG","28","F","{""name"":""Chrome"",""chrome"":true,""version"":""106.0"",""blink"":true,""windows"":true,""osname"":""Windows"",""osversion"":""10"",""a"":true}","9:22:32","1","4","Test_3","70","j","0","507.2999999821186","1536 x 864","1536 x 864","true","1","0","","","","",""
"null","<p style=""font-size: 80px;"">+ 10 points</p>","null","html-keyboard-response","142","623965","0.0-11.0-2.141","5b8810541af951000129f4c5","y4fkwx","MG","28","F","{""name"":""Chrome"",""chrome"":true,""version"":""106.0"",""blink"":true,""windows"":true,""osname"":""Windows"",""osversion"":""10"",""a"":true}","9:22:32","1","4","Test_1","74","j","1","1727.800000011921","1536 x 864","1536 x 864","true","1","10","","","","",""
"null","<p style=""font-size: 80px;"">+ 10 points</p>","null","html-keyboard-response","143","626644","0.0-11.0-2.142","5b8810541af951000129f4c5","y4fkwx","MG","28","F","{""name"":""Chrome"",""chrome"":true,""version"":""106.0"",""blink"":true,""windows"":true,""osname"":""Windows"",""osversion"":""10"",""a"":true}","9:22:32","1","4","Test_2","70","f","1","668.4000000059605","1536 x 864","1536 x 864","true","1","10","","","","",""
"null","<p style=""font-size: 80px;"">+ 10 points</p>","null","html-keyboard-response","144","629280","0.0-11.0-2.143","5b8810541af951000129f4c5","y4fkwx","MG","28","F","{""name"":""Chrome"",""chrome"":true,""version"":""106.0"",""blink"":true,""windows"":true,""osname"":""Windows"",""osversion"":""10"",""a"":true}","9:22:32","1","4","Test_1","74","j","1","623.7000000178814","1536 x 864","1536 x 864","true","1","10","","","","",""
"null","<p style=""font-size: 80px;"">+ 10 points</p>","null","html-keyboard-response","145","632011","0.0-11.0-2.144","5b8810541af951000129f4c5","y4fkwx","MG","28","F","{""name"":""Chrome"",""chrome"":true,""version"":""106.0"",""blink"":true,""windows"":true,""osname"":""Windows"",""osversion"":""10"",""a"":true}","9:22:32","1","4","Test_3","74","j","1","716.7999999821186","1536 x 864","1536 x 864","true","1","10","","","","",""
"null","<p style=""font-size: 80px;"">+ 10 points</p>","null","html-keyboard-response","146","634812","0.0-11.0-2.145","5b8810541af951000129f4c5","y4fkwx","MG","28","F","{""name"":""Chrome"",""chrome"":true,""version"":""106.0"",""blink"":true,""windows"":true,""osname"":""Windows"",""osversion"":""10"",""a"":true}","9:22:32","1","4","Test_3","74","j","1","786.3000000119209","1536 x 864","1536 x 864","true","1","10","","","","",""
"null","<p style=""font-size: 80px;"">+ 10 points</p>","null","html-keyboard-response","147","637867","0.0-11.0-2.146","5b8810541af951000129f4c5","y4fkwx","MG","28","F","{""name"":""Chrome"",""chrome"":true,""version"":""106.0"",""blink"":true,""windows"":true,""osname"":""Windows"",""osversion"":""10"",""a"":true}","9:22:32","1","4","Test_1","74","j","1","1041.7999999821186","1536 x 864","1536 x 864","true","1","10","","","","",""
"null","<p style=""font-size: 80px;"">+ 10 points</p>","null","html-keyboard-response","148","640363","0.0-11.0-2.147","5b8810541af951000129f4c5","y4fkwx","MG","28","F","{""name"":""Chrome"",""chrome"":true,""version"":""106.0"",""blink"":true,""windows"":true,""osname"":""Windows"",""osversion"":""10"",""a"":true}","9:22:32","1","4","Test_4","70","f","1","481.90000000596046","1536 x 864","1536 x 864","true","1","10","","","","",""
"null","<p style=""font-size: 80px;"">+ 10 points</p>","null","html-keyboard-response","149","642844","0.0-11.0-2.148","5b8810541af951000129f4c5","y4fkwx","MG","28","F","{""name"":""Chrome"",""chrome"":true,""version"":""106.0"",""blink"":true,""windows"":true,""osname"":""Windows"",""osversion"":""10"",""a"":true}","9:22:32","1","4","Test_4","70","f","1","469.69999998807907","1536 x 864","1536 x 864","true","1","10","","","","",""
"null","<p style=""font-size: 80px;"">+ 10 points</p>","null","html-keyboard-response","150","645761","0.0-11.0-2.149","5b8810541af951000129f4c5","y4fkwx","MG","28","F","{""name"":""Chrome"",""chrome"":true,""version"":""106.0"",""blink"":true,""windows"":true,""osname"":""Windows"",""osversion"":""10"",""a"":true}","9:22:32","1","4","Test_2","70","f","1","899.0999999940395","1536 x 864","1536 x 864","true","1","10","","","","",""
"null","<p style=""font-size: 80px;"">+ 10 points</p>","null","html-keyboard-response","151","649452","0.0-11.0-2.150","5b8810541af951000129f4c5","y4fkwx","MG","28","F","{""name"":""Chrome"",""chrome"":true,""version"":""106.0"",""blink"":true,""windows"":true,""osname"":""Windows"",""osversion"":""10"",""a"":true}","9:22:32","1","4","Test_3","74","j","1","1675.4000000059605","1536 x 864","1536 x 864","true","1","10","","","","",""
"null","<p style=""font-size: 80px;"">+ 10 points</p>","null","html-keyboard-response","152","651955","0.0-11.0-2.151","5b8810541af951000129f4c5","y4fkwx","MG","28","F","{""name"":""Chrome"",""chrome"":true,""version"":""106.0"",""blink"":true,""windows"":true,""osname"":""Windows"",""osversion"":""10"",""a"":true}","9:22:32","1","4","Test_1","74","j","1","483.60000002384186","1536 x 864","1536 x 864","true","1","10","","","","",""
"null","<p style=""font-size: 80px;"">+ 10 points</p>","null","html-keyboard-response","153","655022","0.0-11.0-2.152","5b8810541af951000129f4c5","y4fkwx","MG","28","F","{""name"":""Chrome"",""chrome"":true,""version"":""106.0"",""blink"":true,""windows"":true,""osname"":""Windows"",""osversion"":""10"",""a"":true}","9:22:32","1","4","Test_2","70","f","1","1056.4000000059605","1536 x 864","1536 x 864","true","1","10","","","","",""
"null","<p style=""font-size: 80px;"">+ 10 points</p>","null","html-keyboard-response","154","657782","0.0-11.0-2.153","5b8810541af951000129f4c5","y4fkwx","MG","28","F","{""name"":""Chrome"",""chrome"":true,""version"":""106.0"",""blink"":true,""windows"":true,""osname"":""Windows"",""osversion"":""10"",""a"":true}","9:22:32","1","4","Test_3","74","j","1","744.1999999880791","1536 x 864","1536 x 864","true","1","10","","","","",""
"null","<p style=""font-size: 80px;"">+ 10 points</p>","null","html-keyboard-response","155","660618","0.0-11.0-2.154","5b8810541af951000129f4c5","y4fkwx","MG","28","F","{""name"":""Chrome"",""chrome"":true,""version"":""106.0"",""blink"":true,""windows"":true,""osname"":""Windows"",""osversion"":""10"",""a"":true}","9:22:32","1","4","Test_1","74","j","1","818.4000000059605","1536 x 864","1536 x 864","true","1","10","","","","",""
"null","<p style=""font-size: 80px;"">+ 10 points</p>","null","html-keyboard-response","156","663158","0.0-11.0-2.155","5b8810541af951000129f4c5","y4fkwx","MG","28","F","{""name"":""Chrome"",""chrome"":true,""version"":""106.0"",""blink"":true,""windows"":true,""osname"":""Windows"",""osversion"":""10"",""a"":true}","9:22:32","1","4","Test_1","74","j","1","526.9000000059605","1536 x 864","1536 x 864","true","1","10","","","","",""
"null","<p style=""font-size: 80px;"">+ 0 points</p>","null","html-keyboard-response","157","666897","0.0-11.0-2.156","5b8810541af951000129f4c5","y4fkwx","MG","28","F","{""name"":""Chrome"",""chrome"":true,""version"":""106.0"",""blink"":true,""windows"":true,""osname"":""Windows"",""osversion"":""10"",""a"":true}","9:22:32","1","3","Test_3","74","f","0","1728.800000011921","1536 x 864","1536 x 864","true","1","0","","","","",""
"null","<p style=""font-size: 80px;"">+ 10 points</p>","null","html-keyboard-response","158","669414","0.0-11.0-2.157","5b8810541af951000129f4c5","y4fkwx","MG","28","F","{""name"":""Chrome"",""chrome"":true,""version"":""106.0"",""blink"":true,""windows"":true,""osname"":""Windows"",""osversion"":""10"",""a"":true}","9:22:32","1","3","Test_3","70","f","1","502.90000000596046","1536 x 864","1536 x 864","true","1","10","","","","",""
"null","<p style=""font-size: 80px;"">+ 10 points</p>","null","html-keyboard-response","159","672406","0.0-11.0-2.158","5b8810541af951000129f4c5","y4fkwx","MG","28","F","{""name"":""Chrome"",""chrome"":true,""version"":""106.0"",""blink"":true,""windows"":true,""osname"":""Windows"",""osversion"":""10"",""a"":true}","9:22:32","1","3","Test_2","74","j","1","978.2000000178814","1536 x 864","1536 x 864","true","1","10","","","","",""
"null","<p style=""font-size: 80px;"">+ 10 points</p>","null","html-keyboard-response","160","675029","0.0-11.0-2.159","5b8810541af951000129f4c5","y4fkwx","MG","28","F","{""name"":""Chrome"",""chrome"":true,""version"":""106.0"",""blink"":true,""windows"":true,""osname"":""Windows"",""osversion"":""10"",""a"":true}","9:22:32","1","3","Test_2","74","j","1","606.3000000119209","1536 x 864","1536 x 864","true","1","10","","","","",""
"null","<p style=""font-size: 80px;"">+ 10 points</p>","null","html-keyboard-response","161","677622","0.0-11.0-2.160","5b8810541af951000129f4c5","y4fkwx","MG","28","F","{""name"":""Chrome"",""chrome"":true,""version"":""106.0"",""blink"":true,""windows"":true,""osname"":""Windows"",""osversion"":""10"",""a"":true}","9:22:32","1","3","Test_4","74","j","1","577.2999999821186","1536 x 864","1536 x 864","true","1","10","","","","",""
"null","<p style=""font-size: 80px;"">+ 10 points</p>","null","html-keyboard-response","162","680423","0.0-11.0-2.161","5b8810541af951000129f4c5","y4fkwx","MG","28","F","{""name"":""Chrome"",""chrome"":true,""version"":""106.0"",""blink"":true,""windows"":true,""osname"":""Windows"",""osversion"":""10"",""a"":true}","9:22:32","1","3","Test_3","70","f","1","785.4000000059605","1536 x 864","1536 x 864","true","1","10","","","","",""
"null","<p style=""font-size: 80px;"">+ 0 points</p>","null","html-keyboard-response","163","683251","0.0-11.0-2.162","5b8810541af951000129f4c5","y4fkwx","MG","28","F","{""name"":""Chrome"",""chrome"":true,""version"":""106.0"",""blink"":true,""windows"":true,""osname"":""Windows"",""osversion"":""10"",""a"":true}","9:22:32","1","3","Test_1","74","f","0","811.5","1536 x 864","1536 x 864","true","1","0","","","","",""
"null","<p style=""font-size: 80px;"">+ 10 points</p>","null","html-keyboard-response","164","686005","0.0-11.0-2.163","5b8810541af951000129f4c5","y4fkwx","MG","28","F","{""name"":""Chrome"",""chrome"":true,""version"":""106.0"",""blink"":true,""windows"":true,""osname"":""Windows"",""osversion"":""10"",""a"":true}","9:22:32","1","3","Test_1","70","f","1","743.3000000119209","1536 x 864","1536 x 864","true","1","10","","","","",""
"null","<p style=""font-size: 80px;"">+ 10 points</p>","null","html-keyboard-response","165","688545","0.0-11.0-2.164","5b8810541af951000129f4c5","y4fkwx","MG","28","F","{""name"":""Chrome"",""chrome"":true,""version"":""106.0"",""blink"":true,""windows"":true,""osname"":""Windows"",""osversion"":""10"",""a"":true}","9:22:32","1","3","Test_1","70","f","1","522.1999999880791","1536 x 864","1536 x 864","true","1","10","","","","",""
"null","<p style=""font-size: 80px;"">+ 0 points</p>","null","html-keyboard-response","166","691247","0.0-11.0-2.165","5b8810541af951000129f4c5","y4fkwx","MG","28","F","{""name"":""Chrome"",""chrome"":true,""version"":""106.0"",""blink"":true,""windows"":true,""osname"":""Windows"",""osversion"":""10"",""a"":true}","9:22:32","1","3","Test_3","74","f","0","684.0999999940395","1536 x 864","1536 x 864","true","1","0","","","","",""
"null","<p style=""font-size: 80px;"">+ 10 points</p>","null","html-keyboard-response","167","693873","0.0-11.0-2.166","5b8810541af951000129f4c5","y4fkwx","MG","28","F","{""name"":""Chrome"",""chrome"":true,""version"":""106.0"",""blink"":true,""windows"":true,""osname"":""Windows"",""osversion"":""10"",""a"":true}","9:22:32","1","3","Test_2","74","j","1","610.5","1536 x 864","1536 x 864","true","1","10","","","","",""
"null","<p style=""font-size: 80px;"">+ 10 points</p>","null","html-keyboard-response","168","696874","0.0-11.0-2.167","5b8810541af951000129f4c5","y4fkwx","MG","28","F","{""name"":""Chrome"",""chrome"":true,""version"":""106.0"",""blink"":true,""windows"":true,""osname"":""Windows"",""osversion"":""10"",""a"":true}","9:22:32","1","3","Test_4","74","j","1","985.2000000178814","1536 x 864","1536 x 864","true","1","10","","","","",""
"null","<p style=""font-size: 80px;"">+ 10 points</p>","null","html-keyboard-response","169","699425","0.0-11.0-2.168","5b8810541af951000129f4c5","y4fkwx","MG","28","F","{""name"":""Chrome"",""chrome"":true,""version"":""106.0"",""blink"":true,""windows"":true,""osname"":""Windows"",""osversion"":""10"",""a"":true}","9:22:32","1","3","Test_4","74","j","1","532.3000000119209","1536 x 864","1536 x 864","true","1","10","","","","",""
"null","<p style=""font-size: 80px;"">+ 10 points</p>","null","html-keyboard-response","170","701884","0.0-11.0-2.169","5b8810541af951000129f4c5","y4fkwx","MG","28","F","{""name"":""Chrome"",""chrome"":true,""version"":""106.0"",""blink"":true,""windows"":true,""osname"":""Windows"",""osversion"":""10"",""a"":true}","9:22:32","1","3","Test_4","74","j","1","441.2000000178814","1536 x 864","1536 x 864","true","1","10","","","","",""
"null","<p style=""font-size: 80px;"">+ 10 points</p>","null","html-keyboard-response","171","704602","0.0-11.0-2.170","5b8810541af951000129f4c5","y4fkwx","MG","28","F","{""name"":""Chrome"",""chrome"":true,""version"":""106.0"",""blink"":true,""windows"":true,""osname"":""Windows"",""osversion"":""10"",""a"":true}","9:22:32","1","3","Test_1","70","f","1","699.8000000119209","1536 x 864","1536 x 864","true","1","10","","","","",""
"null","<p style=""font-size: 80px;"">+ 10 points</p>","null","html-keyboard-response","172","707435","0.0-11.0-2.171","5b8810541af951000129f4c5","y4fkwx","MG","28","F","{""name"":""Chrome"",""chrome"":true,""version"":""106.0"",""blink"":true,""windows"":true,""osname"":""Windows"",""osversion"":""10"",""a"":true}","9:22:32","1","3","Test_2","74","j","1","816","1536 x 864","1536 x 864","true","1","10","","","","",""
"null","<p style=""font-size: 80px;"">+ 0 points</p>","null","html-keyboard-response","173","709916","0.0-11.0-2.172","5b8810541af951000129f4c5","y4fkwx","MG","28","F","{""name"":""Chrome"",""chrome"":true,""version"":""106.0"",""blink"":true,""windows"":true,""osname"":""Windows"",""osversion"":""10"",""a"":true}","9:22:32","1","4","Test_3","70","j","0","469.5","1536 x 864","1536 x 864","true","1","0","","","","",""
"null","<p style=""font-size: 80px;"">+ 10 points</p>","null","html-keyboard-response","174","712560","0.0-11.0-2.173","5b8810541af951000129f4c5","y4fkwx","MG","28","F","{""name"":""Chrome"",""chrome"":true,""version"":""106.0"",""blink"":true,""windows"":true,""osname"":""Windows"",""osversion"":""10"",""a"":true}","9:22:32","1","4","Test_4","70","f","1","632.4000000059605","1536 x 864","1536 x 864","true","1","10","","","","",""
"null","<p style=""font-size: 80px;"">+ 10 points</p>","null","html-keyboard-response","175","715141","0.0-11.0-2.174","5b8810541af951000129f4c5","y4fkwx","MG","28","F","{""name"":""Chrome"",""chrome"":true,""version"":""106.0"",""blink"":true,""windows"":true,""osname"":""Windows"",""osversion"":""10"",""a"":true}","9:22:32","1","4","Test_4","70","f","1","567.6999999880791","1536 x 864","1536 x 864","true","1","10","","","","",""
"null","<p style=""font-size: 80px;"">+ 10 points</p>","null","html-keyboard-response","176","717642","0.0-11.0-2.175","5b8810541af951000129f4c5","y4fkwx","MG","28","F","{""name"":""Chrome"",""chrome"":true,""version"":""106.0"",""blink"":true,""windows"":true,""osname"":""Windows"",""osversion"":""10"",""a"":true}","9:22:32","1","4","Test_4","70","f","1","486.5","1536 x 864","1536 x 864","true","1","10","","","","",""
"null","<p style=""font-size: 80px;"">+ 10 points</p>","null","html-keyboard-response","177","720552","0.0-11.0-2.176","5b8810541af951000129f4c5","y4fkwx","MG","28","F","{""name"":""Chrome"",""chrome"":true,""version"":""106.0"",""blink"":true,""windows"":true,""osname"":""Windows"",""osversion"":""10"",""a"":true}","9:22:32","1","4","Test_2","70","f","1","897.5","1536 x 864","1536 x 864","true","1","10","","","","",""
"null","<p style=""font-size: 80px;"">+ 10 points</p>","null","html-keyboard-response","178","723164","0.0-11.0-2.177","5b8810541af951000129f4c5","y4fkwx","MG","28","F","{""name"":""Chrome"",""chrome"":true,""version"":""106.0"",""blink"":true,""windows"":true,""osname"":""Windows"",""osversion"":""10"",""a"":true}","9:22:32","1","4","Test_3","74","j","1","596.9000000059605","1536 x 864","1536 x 864","true","1","10","","","","",""
"null","<p style=""font-size: 80px;"">+ 10 points</p>","null","html-keyboard-response","179","725600","0.0-11.0-2.178","5b8810541af951000129f4c5","y4fkwx","MG","28","F","{""name"":""Chrome"",""chrome"":true,""version"":""106.0"",""blink"":true,""windows"":true,""osname"":""Windows"",""osversion"":""10"",""a"":true}","9:22:32","1","4","Test_3","74","j","1","419","1536 x 864","1536 x 864","true","1","10","","","","",""
"null","<p style=""font-size: 80px;"">+ 10 points</p>","null","html-keyboard-response","180","728360","0.0-11.0-2.179","5b8810541af951000129f4c5","y4fkwx","MG","28","F","{""name"":""Chrome"",""chrome"":true,""version"":""106.0"",""blink"":true,""windows"":true,""osname"":""Windows"",""osversion"":""10"",""a"":true}","9:22:32","1","4","Test_4","70","f","1","740.1999999880791","1536 x 864","1536 x 864","true","1","10","","","","",""
"null","<p style=""font-size: 80px;"">+ 10 points</p>","null","html-keyboard-response","181","732024","0.0-11.0-2.180","5b8810541af951000129f4c5","y4fkwx","MG","28","F","{""name"":""Chrome"",""chrome"":true,""version"":""106.0"",""blink"":true,""windows"":true,""osname"":""Windows"",""osversion"":""10"",""a"":true}","9:22:32","1","4","Test_1","74","j","1","1644.5999999940395","1536 x 864","1536 x 864","true","1","10","","","","",""
"null","<p style=""font-size: 80px;"">+ 10 points</p>","null","html-keyboard-response","182","734716","0.0-11.0-2.181","5b8810541af951000129f4c5","y4fkwx","MG","28","F","{""name"":""Chrome"",""chrome"":true,""version"":""106.0"",""blink"":true,""windows"":true,""osname"":""Windows"",""osversion"":""10"",""a"":true}","9:22:32","1","4","Test_1","74","j","1","671.2000000178814","1536 x 864","1536 x 864","true","1","10","","","","",""
"null","<p style=""font-size: 80px;"">+ 10 points</p>","null","html-keyboard-response","183","737444","0.0-11.0-2.182","5b8810541af951000129f4c5","y4fkwx","MG","28","F","{""name"":""Chrome"",""chrome"":true,""version"":""106.0"",""blink"":true,""windows"":true,""osname"":""Windows"",""osversion"":""10"",""a"":true}","9:22:32","1","4","Test_2","70","f","1","713","1536 x 864","1536 x 864","true","1","10","","","","",""
"null","<p style=""font-size: 80px;"">+ 10 points</p>","null","html-keyboard-response","184","740035","0.0-11.0-2.183","5b8810541af951000129f4c5","y4fkwx","MG","28","F","{""name"":""Chrome"",""chrome"":true,""version"":""106.0"",""blink"":true,""windows"":true,""osname"":""Windows"",""osversion"":""10"",""a"":true}","9:22:32","1","4","Test_3","74","j","1","576.0999999940395","1536 x 864","1536 x 864","true","1","10","","","","",""
"null","<p style=""font-size: 80px;"">+ 10 points</p>","null","html-keyboard-response","185","742678","0.0-11.0-2.184","5b8810541af951000129f4c5","y4fkwx","MG","28","F","{""name"":""Chrome"",""chrome"":true,""version"":""106.0"",""blink"":true,""windows"":true,""osname"":""Windows"",""osversion"":""10"",""a"":true}","9:22:32","1","4","Test_2","70","f","1","631.1999999880791","1536 x 864","1536 x 864","true","1","10","","","","",""
"null","<p style=""font-size: 80px;"">+ 10 points</p>","null","html-keyboard-response","186","745273","0.0-11.0-2.185","5b8810541af951000129f4c5","y4fkwx","MG","28","F","{""name"":""Chrome"",""chrome"":true,""version"":""106.0"",""blink"":true,""windows"":true,""osname"":""Windows"",""osversion"":""10"",""a"":true}","9:22:32","1","4","Test_4","70","f","1","580.0999999940395","1536 x 864","1536 x 864","true","1","10","","","","",""
"null","<p style=""font-size: 80px;"">+ 10 points</p>","null","html-keyboard-response","187","748306","0.0-11.0-2.186","5b8810541af951000129f4c5","y4fkwx","MG","28","F","{""name"":""Chrome"",""chrome"":true,""version"":""106.0"",""blink"":true,""windows"":true,""osname"":""Windows"",""osversion"":""10"",""a"":true}","9:22:32","1","4","Test_2","70","f","1","1014.0999999940395","1536 x 864","1536 x 864","true","1","10","","","","",""
"null","<p style=""font-size: 80px;"">+ 10 points</p>","null","html-keyboard-response","188","750878","0.0-11.0-2.187","5b8810541af951000129f4c5","y4fkwx","MG","28","F","{""name"":""Chrome"",""chrome"":true,""version"":""106.0"",""blink"":true,""windows"":true,""osname"":""Windows"",""osversion"":""10"",""a"":true}","9:22:32","1","4","Test_2","70","f","1","554.2000000178814","1536 x 864","1536 x 864","true","1","10","","","","",""
"null","<p style=""font-size: 80px;"">+ 10 points</p>","null","html-keyboard-response","189","753740","0.0-11.0-2.188","5b8810541af951000129f4c5","y4fkwx","MG","28","F","{""name"":""Chrome"",""chrome"":true,""version"":""106.0"",""blink"":true,""windows"":true,""osname"":""Windows"",""osversion"":""10"",""a"":true}","9:22:32","1","4","Test_4","70","f","1","841.8000000119209","1536 x 864","1536 x 864","true","1","10","","","","",""
