"rt","stimulus","key_press","trial_type","trial_index","time_elapsed","internal_node_id","Prolific_ID","random_ID","initials","age","gender","pc_info","start_time","Phase","Rule","Stimulus","Response","CorrResp","Accuracy","ResponseTime","screen_resolution","window_resolution","focus","relevant","Points","responses","question_order","rev_check","butterfly_check","passed_practice"
"null","<p style=""font-size: 80px;"">+ 10 points</p>","null","html-keyboard-response","1","107589","0.0-7.0-2.0","6078421a82b88488a16a2b1f","c2bsew","LY","33","F","{""name"":""Chrome"",""chrome"":true,""version"":""106.0"",""blink"":true,""windows"":true,""osname"":""Windows"",""osversion"":""10"",""a"":true}","9:15:24","0","1","Practice_1","70","f","1","3570.6999999955297","1366 x 768","1366 x 768","true","1","10","","","","",""
"null","<p style=""font-size: 80px;"">+ 10 points</p>","null","html-keyboard-response","2","111504","0.0-7.0-2.1","6078421a82b88488a16a2b1f","c2bsew","LY","33","F","{""name"":""Chrome"",""chrome"":true,""version"":""106.0"",""blink"":true,""windows"":true,""osname"":""Windows"",""osversion"":""10"",""a"":true}","9:15:24","0","1","Practice_2","74","j","1","1888","1366 x 768","1366 x 768","true","1","10","","","","",""
"null","<p style=""font-size: 80px;"">+ 10 points</p>","null","html-keyboard-response","3","115019","0.0-7.0-2.2","6078421a82b88488a16a2b1f","c2bsew","LY","33","F","{""name"":""Chrome"",""chrome"":true,""version"":""106.0"",""blink"":true,""windows"":true,""osname"":""Windows"",""osversion"":""10"",""a"":true}","9:15:24","0","1","Practice_1","70","f","1","1487","1366 x 768","1366 x 768","true","1","10","","","","",""
"null","<p style=""font-size: 80px;"">+ 10 points</p>","null","html-keyboard-response","4","118656","0.0-7.0-2.3","6078421a82b88488a16a2b1f","c2bsew","LY","33","F","{""name"":""Chrome"",""chrome"":true,""version"":""106.0"",""blink"":true,""windows"":true,""osname"":""Windows"",""osversion"":""10"",""a"":true}","9:15:24","0","1","Practice_4","74","j","1","1616.6000000014901","1366 x 768","1366 x 768","true","1","10","","","","",""
"null","<p style=""font-size: 80px;"">+ 10 points</p>","null","html-keyboard-response","5","122304","0.0-7.0-2.4","6078421a82b88488a16a2b1f","c2bsew","LY","33","F","{""name"":""Chrome"",""chrome"":true,""version"":""106.0"",""blink"":true,""windows"":true,""osname"":""Windows"",""osversion"":""10"",""a"":true}","9:15:24","0","1","Practice_3","70","f","1","1624.7000000029802","1366 x 768","1366 x 768","true","1","10","","","","",""
"null","<p style=""font-size: 80px;"">+ 10 points</p>","null","html-keyboard-response","6","125445","0.0-7.0-2.5","6078421a82b88488a16a2b1f","c2bsew","LY","33","F","{""name"":""Chrome"",""chrome"":true,""version"":""106.0"",""blink"":true,""windows"":true,""osname"":""Windows"",""osversion"":""10"",""a"":true}","9:15:24","0","1","Practice_4","74","j","1","1111.3999999985099","1366 x 768","1366 x 768","true","1","10","","","","",""
"null","<p style=""font-size: 80px;"">+ 10 points</p>","null","html-keyboard-response","7","128630","0.0-7.0-2.6","6078421a82b88488a16a2b1f","c2bsew","LY","33","F","{""name"":""Chrome"",""chrome"":true,""version"":""106.0"",""blink"":true,""windows"":true,""osname"":""Windows"",""osversion"":""10"",""a"":true}","9:15:24","0","1","Practice_4","74","j","1","1153.1000000014901","1366 x 768","1366 x 768","true","1","10","","","","",""
"null","<p style=""font-size: 80px;"">+ 10 points</p>","null","html-keyboard-response","8","131745","0.0-7.0-2.7","6078421a82b88488a16a2b1f","c2bsew","LY","33","F","{""name"":""Chrome"",""chrome"":true,""version"":""106.0"",""blink"":true,""windows"":true,""osname"":""Windows"",""osversion"":""10"",""a"":true}","9:15:24","0","1","Practice_2","74","j","1","1093.7000000029802","1366 x 768","1366 x 768","true","1","10","","","","",""
"null","<p style=""font-size: 80px;"">+ 10 points</p>","null","html-keyboard-response","9","134893","0.0-7.0-2.8","6078421a82b88488a16a2b1f","c2bsew","LY","33","F","{""name"":""Chrome"",""chrome"":true,""version"":""106.0"",""blink"":true,""windows"":true,""osname"":""Windows"",""osversion"":""10"",""a"":true}","9:15:24","0","1","Practice_1","70","f","1","1132.2000000029802","1366 x 768","1366 x 768","true","1","10","","","","",""
"null","<p style=""font-size: 80px;"">+ 10 points</p>","null","html-keyboard-response","10","137669","0.0-7.0-2.9","6078421a82b88488a16a2b1f","c2bsew","LY","33","F","{""name"":""Chrome"",""chrome"":true,""version"":""106.0"",""blink"":true,""windows"":true,""osname"":""Windows"",""osversion"":""10"",""a"":true}","9:15:24","0","1","Practice_2","74","j","1","740.8000000044703","1366 x 768","1366 x 768","true","1","10","","","","",""
"null","<p style=""font-size: 80px;"">+ 10 points</p>","null","html-keyboard-response","11","140344","0.0-7.0-2.10","6078421a82b88488a16a2b1f","c2bsew","LY","33","F","{""name"":""Chrome"",""chrome"":true,""version"":""106.0"",""blink"":true,""windows"":true,""osname"":""Windows"",""osversion"":""10"",""a"":true}","9:15:24","0","1","Practice_3","70","f","1","643.7999999970198","1366 x 768","1366 x 768","true","1","10","","","","",""
"null","<p style=""font-size: 80px;"">+ 10 points</p>","null","html-keyboard-response","12","143111","0.0-7.0-2.11","6078421a82b88488a16a2b1f","c2bsew","LY","33","F","{""name"":""Chrome"",""chrome"":true,""version"":""106.0"",""blink"":true,""windows"":true,""osname"":""Windows"",""osversion"":""10"",""a"":true}","9:15:24","0","1","Practice_3","70","f","1","735.1000000014901","1366 x 768","1366 x 768","true","1","10","","","","",""
"null","<p style=""font-size: 80px;"">+ 10 points</p>","null","html-keyboard-response","13","145825","0.0-7.0-2.12","6078421a82b88488a16a2b1f","c2bsew","LY","33","F","{""name"":""Chrome"",""chrome"":true,""version"":""106.0"",""blink"":true,""windows"":true,""osname"":""Windows"",""osversion"":""10"",""a"":true}","9:15:24","0","1","Practice_4","74","j","1","696.3000000044703","1366 x 768","1366 x 768","true","1","10","","","","",""
"null","<p style=""font-size: 80px;"">+ 10 points</p>","null","html-keyboard-response","14","148421","0.0-7.0-2.13","6078421a82b88488a16a2b1f","c2bsew","LY","33","F","{""name"":""Chrome"",""chrome"":true,""version"":""106.0"",""blink"":true,""windows"":true,""osname"":""Windows"",""osversion"":""10"",""a"":true}","9:15:24","0","1","Practice_1","70","f","1","573.3000000044703","1366 x 768","1366 x 768","true","1","10","","","","",""
"null","<p style=""font-size: 80px;"">+ 10 points</p>","null","html-keyboard-response","15","150946","0.0-7.0-2.14","6078421a82b88488a16a2b1f","c2bsew","LY","33","F","{""name"":""Chrome"",""chrome"":true,""version"":""106.0"",""blink"":true,""windows"":true,""osname"":""Windows"",""osversion"":""10"",""a"":true}","9:15:24","0","1","Practice_1","70","f","1","511.59999999403954","1366 x 768","1366 x 768","true","1","10","","","","",""
"null","<p style=""font-size: 80px;"">+ 10 points</p>","null","html-keyboard-response","16","153558","0.0-7.0-2.15","6078421a82b88488a16a2b1f","c2bsew","LY","33","F","{""name"":""Chrome"",""chrome"":true,""version"":""106.0"",""blink"":true,""windows"":true,""osname"":""Windows"",""osversion"":""10"",""a"":true}","9:15:24","0","1","Practice_4","74","j","1","580.5","1366 x 768","1366 x 768","true","1","10","","","","",""
"null","<p style=""font-size: 80px;"">+ 10 points</p>","null","html-keyboard-response","17","156261","0.0-7.0-2.16","6078421a82b88488a16a2b1f","c2bsew","LY","33","F","{""name"":""Chrome"",""chrome"":true,""version"":""106.0"",""blink"":true,""windows"":true,""osname"":""Windows"",""osversion"":""10"",""a"":true}","9:15:24","0","1","Practice_2","74","j","1","676.0999999940395","1366 x 768","1366 x 768","true","1","10","","","","",""
"null","<p style=""font-size: 80px;"">+ 10 points</p>","null","html-keyboard-response","18","158776","0.0-7.0-2.17","6078421a82b88488a16a2b1f","c2bsew","LY","33","F","{""name"":""Chrome"",""chrome"":true,""version"":""106.0"",""blink"":true,""windows"":true,""osname"":""Windows"",""osversion"":""10"",""a"":true}","9:15:24","0","1","Practice_2","74","j","1","492.5","1366 x 768","1366 x 768","true","1","10","","","","",""
"null","<p style=""font-size: 80px;"">+ 10 points</p>","null","html-keyboard-response","19","161296","0.0-7.0-2.18","6078421a82b88488a16a2b1f","c2bsew","LY","33","F","{""name"":""Chrome"",""chrome"":true,""version"":""106.0"",""blink"":true,""windows"":true,""osname"":""Windows"",""osversion"":""10"",""a"":true}","9:15:24","0","1","Practice_3","70","f","1","502.09999999403954","1366 x 768","1366 x 768","true","1","10","","","","",""
"null","<p style=""font-size: 80px;"">+ 10 points</p>","null","html-keyboard-response","20","163794","0.0-7.0-2.19","6078421a82b88488a16a2b1f","c2bsew","LY","33","F","{""name"":""Chrome"",""chrome"":true,""version"":""106.0"",""blink"":true,""windows"":true,""osname"":""Windows"",""osversion"":""10"",""a"":true}","9:15:24","0","1","Practice_3","70","f","1","484.09999999403954","1366 x 768","1366 x 768","true","1","10","","","","",""
"null","<p style=""font-size: 80px;"">+ 0 points</p>","null","html-keyboard-response","21","166497","0.0-7.0-2.20","6078421a82b88488a16a2b1f","c2bsew","LY","33","F","{""name"":""Chrome"",""chrome"":true,""version"":""106.0"",""blink"":true,""windows"":true,""osname"":""Windows"",""osversion"":""10"",""a"":true}","9:15:24","0","2","Practice_1","70","j","0","682.7000000029802","1366 x 768","1366 x 768","true","1","0","","","","",""
"null","<p style=""font-size: 80px;"">+ 10 points</p>","null","html-keyboard-response","22","169219","0.0-7.0-2.21","6078421a82b88488a16a2b1f","c2bsew","LY","33","F","{""name"":""Chrome"",""chrome"":true,""version"":""106.0"",""blink"":true,""windows"":true,""osname"":""Windows"",""osversion"":""10"",""a"":true}","9:15:24","0","2","Practice_4","70","f","1","694.5","1366 x 768","1366 x 768","true","1","10","","","","",""
"null","<p style=""font-size: 80px;"">+ 10 points</p>","null","html-keyboard-response","23","172161","0.0-7.0-2.22","6078421a82b88488a16a2b1f","c2bsew","LY","33","F","{""name"":""Chrome"",""chrome"":true,""version"":""106.0"",""blink"":true,""windows"":true,""osname"":""Windows"",""osversion"":""10"",""a"":true}","9:15:24","0","2","Practice_1","74","j","1","923.8999999985099","1366 x 768","1366 x 768","true","1","10","","","","",""
"null","<p style=""font-size: 80px;"">+ 0 points</p>","null","html-keyboard-response","24","174990","0.0-7.0-2.23","6078421a82b88488a16a2b1f","c2bsew","LY","33","F","{""name"":""Chrome"",""chrome"":true,""version"":""106.0"",""blink"":true,""windows"":true,""osname"":""Windows"",""osversion"":""10"",""a"":true}","9:15:24","0","2","Practice_3","70","j","0","813.2999999970198","1366 x 768","1366 x 768","true","1","0","","","","",""
"null","<p style=""font-size: 80px;"">+ 10 points</p>","null","html-keyboard-response","25","177825","0.0-7.0-2.24","6078421a82b88488a16a2b1f","c2bsew","LY","33","F","{""name"":""Chrome"",""chrome"":true,""version"":""106.0"",""blink"":true,""windows"":true,""osname"":""Windows"",""osversion"":""10"",""a"":true}","9:15:24","0","2","Practice_3","74","j","1","814.5","1366 x 768","1366 x 768","true","1","10","","","","",""
"null","<p style=""font-size: 80px;"">+ 10 points</p>","null","html-keyboard-response","26","180884","0.0-7.0-2.25","6078421a82b88488a16a2b1f","c2bsew","LY","33","F","{""name"":""Chrome"",""chrome"":true,""version"":""106.0"",""blink"":true,""windows"":true,""osname"":""Windows"",""osversion"":""10"",""a"":true}","9:15:24","0","2","Practice_3","74","j","1","1035.2999999970198","1366 x 768","1366 x 768","true","1","10","","","","",""
"null","<p style=""font-size: 80px;"">+ 10 points</p>","null","html-keyboard-response","27","183674","0.0-7.0-2.26","6078421a82b88488a16a2b1f","c2bsew","LY","33","F","{""name"":""Chrome"",""chrome"":true,""version"":""106.0"",""blink"":true,""windows"":true,""osname"":""Windows"",""osversion"":""10"",""a"":true}","9:15:24","0","2","Practice_4","70","f","1","781","1366 x 768","1366 x 768","true","1","10","","","","",""
"null","<p style=""font-size: 80px;"">+ 10 points</p>","null","html-keyboard-response","28","186513","0.0-7.0-2.27","6078421a82b88488a16a2b1f","c2bsew","LY","33","F","{""name"":""Chrome"",""chrome"":true,""version"":""106.0"",""blink"":true,""windows"":true,""osname"":""Windows"",""osversion"":""10"",""a"":true}","9:15:24","0","2","Practice_4","70","f","1","822.2999999970198","1366 x 768","1366 x 768","true","1","10","","","","",""
"null","<p style=""font-size: 80px;"">+ 10 points</p>","null","html-keyboard-response","29","189287","0.0-7.0-2.28","6078421a82b88488a16a2b1f","c2bsew","LY","33","F","{""name"":""Chrome"",""chrome"":true,""version"":""106.0"",""blink"":true,""windows"":true,""osname"":""Windows"",""osversion"":""10"",""a"":true}","9:15:24","0","2","Practice_1","74","j","1","743.7999999970198","1366 x 768","1366 x 768","true","1","10","","","","",""
"null","<p style=""font-size: 80px;"">+ 10 points</p>","null","html-keyboard-response","30","192163","0.0-7.0-2.29","6078421a82b88488a16a2b1f","c2bsew","LY","33","F","{""name"":""Chrome"",""chrome"":true,""version"":""106.0"",""blink"":true,""windows"":true,""osname"":""Windows"",""osversion"":""10"",""a"":true}","9:15:24","0","2","Practice_2","70","f","1","842.1000000014901","1366 x 768","1366 x 768","true","1","10","","","","",""
"null","<p style=""font-size: 80px;"">+ 10 points</p>","null","html-keyboard-response","31","195150","0.0-7.0-2.30","6078421a82b88488a16a2b1f","c2bsew","LY","33","F","{""name"":""Chrome"",""chrome"":true,""version"":""106.0"",""blink"":true,""windows"":true,""osname"":""Windows"",""osversion"":""10"",""a"":true}","9:15:24","0","2","Practice_2","70","f","1","958.0999999940395","1366 x 768","1366 x 768","true","1","10","","","","",""
"null","<p style=""font-size: 80px;"">+ 10 points</p>","null","html-keyboard-response","32","197737","0.0-7.0-2.31","6078421a82b88488a16a2b1f","c2bsew","LY","33","F","{""name"":""Chrome"",""chrome"":true,""version"":""106.0"",""blink"":true,""windows"":true,""osname"":""Windows"",""osversion"":""10"",""a"":true}","9:15:24","0","2","Practice_4","70","f","1","567.5999999940395","1366 x 768","1366 x 768","true","1","10","","","","",""
"null","<p style=""font-size: 80px;"">+ 10 points</p>","null","html-keyboard-response","33","200565","0.0-7.0-2.32","6078421a82b88488a16a2b1f","c2bsew","LY","33","F","{""name"":""Chrome"",""chrome"":true,""version"":""106.0"",""blink"":true,""windows"":true,""osname"":""Windows"",""osversion"":""10"",""a"":true}","9:15:24","0","2","Practice_1","74","j","1","794.3000000044703","1366 x 768","1366 x 768","true","1","10","","","","",""
"null","<p style=""font-size: 80px;"">+ 10 points</p>","null","html-keyboard-response","34","203329","0.0-7.0-2.33","6078421a82b88488a16a2b1f","c2bsew","LY","33","F","{""name"":""Chrome"",""chrome"":true,""version"":""106.0"",""blink"":true,""windows"":true,""osname"":""Windows"",""osversion"":""10"",""a"":true}","9:15:24","0","2","Practice_4","70","f","1","739.4000000059605","1366 x 768","1366 x 768","true","1","10","","","","",""
"null","<p style=""font-size: 80px;"">+ 10 points</p>","null","html-keyboard-response","35","206206","0.0-7.0-2.34","6078421a82b88488a16a2b1f","c2bsew","LY","33","F","{""name"":""Chrome"",""chrome"":true,""version"":""106.0"",""blink"":true,""windows"":true,""osname"":""Windows"",""osversion"":""10"",""a"":true}","9:15:24","0","2","Practice_1","74","j","1","841.8999999985099","1366 x 768","1366 x 768","true","1","10","","","","",""
"null","<p style=""font-size: 80px;"">+ 10 points</p>","null","html-keyboard-response","36","209256","0.0-7.0-2.35","6078421a82b88488a16a2b1f","c2bsew","LY","33","F","{""name"":""Chrome"",""chrome"":true,""version"":""106.0"",""blink"":true,""windows"":true,""osname"":""Windows"",""osversion"":""10"",""a"":true}","9:15:24","0","2","Practice_2","70","f","1","1027.8000000044703","1366 x 768","1366 x 768","true","1","10","","","","",""
"null","<p style=""font-size: 80px;"">+ 10 points</p>","null","html-keyboard-response","37","212542","0.0-7.0-2.36","6078421a82b88488a16a2b1f","c2bsew","LY","33","F","{""name"":""Chrome"",""chrome"":true,""version"":""106.0"",""blink"":true,""windows"":true,""osname"":""Windows"",""osversion"":""10"",""a"":true}","9:15:24","0","2","Practice_2","70","f","1","1259.6000000014901","1366 x 768","1366 x 768","true","1","10","","","","",""
"null","<p style=""font-size: 80px;"">+ 10 points</p>","null","html-keyboard-response","38","215632","0.0-7.0-2.37","6078421a82b88488a16a2b1f","c2bsew","LY","33","F","{""name"":""Chrome"",""chrome"":true,""version"":""106.0"",""blink"":true,""windows"":true,""osname"":""Windows"",""osversion"":""10"",""a"":true}","9:15:24","0","2","Practice_3","74","j","1","1073.3999999985099","1366 x 768","1366 x 768","true","1","10","","","","",""
"null","<p style=""font-size: 80px;"">+ 10 points</p>","null","html-keyboard-response","39","218459","0.0-7.0-2.38","6078421a82b88488a16a2b1f","c2bsew","LY","33","F","{""name"":""Chrome"",""chrome"":true,""version"":""106.0"",""blink"":true,""windows"":true,""osname"":""Windows"",""osversion"":""10"",""a"":true}","9:15:24","0","2","Practice_3","74","j","1","809.1000000014901","1366 x 768","1366 x 768","true","1","10","","","","",""
"null","<p style=""font-size: 80px;"">+ 10 points</p>","null","html-keyboard-response","40","221327","0.0-7.0-2.39","6078421a82b88488a16a2b1f","c2bsew","LY","33","F","{""name"":""Chrome"",""chrome"":true,""version"":""106.0"",""blink"":true,""windows"":true,""osname"":""Windows"",""osversion"":""10"",""a"":true}","9:15:24","0","2","Practice_2","70","f","1","847","1366 x 768","1366 x 768","true","1","10","","","","",""
"18689.60000000149","","","survey-multi-choice","127","240022","0.0-8.0","6078421a82b88488a16a2b1f","c2bsew","LY","33","F","{""name"":""Chrome"",""chrome"":true,""version"":""106.0"",""blink"":true,""windows"":true,""osname"":""Windows"",""osversion"":""10"",""a"":true}","9:15:24","","","","","","","","","","","1","","{""Q0"":""The red one"",""Q1"":""1""}","[0,1]","1","The red one","2"
"null","<p style=""font-size: 80px;"">+ 10 points</p>","null","html-keyboard-response","1","254900","0.0-11.0-2.0","6078421a82b88488a16a2b1f","c2bsew","LY","33","F","{""name"":""Chrome"",""chrome"":true,""version"":""106.0"",""blink"":true,""windows"":true,""osname"":""Windows"",""osversion"":""10"",""a"":true}","9:15:24","1","3","Test_4","74","j","1","1243.7999999970198","1366 x 768","1366 x 768","true","1","10","","","","",""
"null","<p style=""font-size: 80px;"">+ 10 points</p>","null","html-keyboard-response","2","257704","0.0-11.0-2.1","6078421a82b88488a16a2b1f","c2bsew","LY","33","F","{""name"":""Chrome"",""chrome"":true,""version"":""106.0"",""blink"":true,""windows"":true,""osname"":""Windows"",""osversion"":""10"",""a"":true}","9:15:24","1","3","Test_4","74","j","1","778.1000000014901","1366 x 768","1366 x 768","true","1","10","","","","",""
"null","<p style=""font-size: 80px;"">+ 10 points</p>","null","html-keyboard-response","3","260880","0.0-11.0-2.2","6078421a82b88488a16a2b1f","c2bsew","LY","33","F","{""name"":""Chrome"",""chrome"":true,""version"":""106.0"",""blink"":true,""windows"":true,""osname"":""Windows"",""osversion"":""10"",""a"":true}","9:15:24","1","3","Test_3","70","f","1","1150.5999999940395","1366 x 768","1366 x 768","true","1","10","","","","",""
"null","<p style=""font-size: 80px;"">+ 10 points</p>","null","html-keyboard-response","4","263523","0.0-11.0-2.3","6078421a82b88488a16a2b1f","c2bsew","LY","33","F","{""name"":""Chrome"",""chrome"":true,""version"":""106.0"",""blink"":true,""windows"":true,""osname"":""Windows"",""osversion"":""10"",""a"":true}","9:15:24","1","3","Test_4","74","j","1","624","1366 x 768","1366 x 768","true","1","10","","","","",""
"null","<p style=""font-size: 80px;"">+ 10 points</p>","null","html-keyboard-response","5","266471","0.0-11.0-2.4","6078421a82b88488a16a2b1f","c2bsew","LY","33","F","{""name"":""Chrome"",""chrome"":true,""version"":""106.0"",""blink"":true,""windows"":true,""osname"":""Windows"",""osversion"":""10"",""a"":true}","9:15:24","1","3","Test_2","74","j","1","932.2999999970198","1366 x 768","1366 x 768","true","1","10","","","","",""
"null","<p style=""font-size: 80px;"">+ 10 points</p>","null","html-keyboard-response","6","269422","0.0-11.0-2.5","6078421a82b88488a16a2b1f","c2bsew","LY","33","F","{""name"":""Chrome"",""chrome"":true,""version"":""106.0"",""blink"":true,""windows"":true,""osname"":""Windows"",""osversion"":""10"",""a"":true}","9:15:24","1","3","Test_1","70","f","1","917.6000000014901","1366 x 768","1366 x 768","true","1","10","","","","",""
"null","<p style=""font-size: 80px;"">+ 10 points</p>","null","html-keyboard-response","7","272064","0.0-11.0-2.6","6078421a82b88488a16a2b1f","c2bsew","LY","33","F","{""name"":""Chrome"",""chrome"":true,""version"":""106.0"",""blink"":true,""windows"":true,""osname"":""Windows"",""osversion"":""10"",""a"":true}","9:15:24","1","3","Test_3","70","f","1","618.5","1366 x 768","1366 x 768","true","1","10","","","","",""
"null","<p style=""font-size: 80px;"">+ 10 points</p>","null","html-keyboard-response","8","274865","0.0-11.0-2.7","6078421a82b88488a16a2b1f","c2bsew","LY","33","F","{""name"":""Chrome"",""chrome"":true,""version"":""106.0"",""blink"":true,""windows"":true,""osname"":""Windows"",""osversion"":""10"",""a"":true}","9:15:24","1","3","Test_2","74","j","1","788.6000000014901","1366 x 768","1366 x 768","true","1","10","","","","",""
"null","<p style=""font-size: 80px;"">+ 10 points</p>","null","html-keyboard-response","9","277734","0.0-11.0-2.8","6078421a82b88488a16a2b1f","c2bsew","LY","33","F","{""name"":""Chrome"",""chrome"":true,""version"":""106.0"",""blink"":true,""windows"":true,""osname"":""Windows"",""osversion"":""10"",""a"":true}","9:15:24","1","3","Test_3","70","f","1","849.8999999985099","1366 x 768","1366 x 768","true","1","10","","","","",""
"null","<p style=""font-size: 80px;"">+ 10 points</p>","null","html-keyboard-response","10","280370","0.0-11.0-2.9","6078421a82b88488a16a2b1f","c2bsew","LY","33","F","{""name"":""Chrome"",""chrome"":true,""version"":""106.0"",""blink"":true,""windows"":true,""osname"":""Windows"",""osversion"":""10"",""a"":true}","9:15:24","1","3","Test_1","70","f","1","621.6000000014901","1366 x 768","1366 x 768","true","1","10","","","","",""
"null","<p style=""font-size: 80px;"">+ 10 points</p>","null","html-keyboard-response","11","283932","0.0-11.0-2.10","6078421a82b88488a16a2b1f","c2bsew","LY","33","F","{""name"":""Chrome"",""chrome"":true,""version"":""106.0"",""blink"":true,""windows"":true,""osname"":""Windows"",""osversion"":""10"",""a"":true}","9:15:24","1","3","Test_1","70","f","1","1547.1999999955297","1366 x 768","1366 x 768","true","1","10","","","","",""
"null","<p style=""font-size: 80px;"">+ 10 points</p>","null","html-keyboard-response","12","286631","0.0-11.0-2.11","6078421a82b88488a16a2b1f","c2bsew","LY","33","F","{""name"":""Chrome"",""chrome"":true,""version"":""106.0"",""blink"":true,""windows"":true,""osname"":""Windows"",""osversion"":""10"",""a"":true}","9:15:24","1","3","Test_2","74","j","1","672.7999999970198","1366 x 768","1366 x 768","true","1","10","","","","",""
"null","<p style=""font-size: 80px;"">+ 10 points</p>","null","html-keyboard-response","13","289298","0.0-11.0-2.12","6078421a82b88488a16a2b1f","c2bsew","LY","33","F","{""name"":""Chrome"",""chrome"":true,""version"":""106.0"",""blink"":true,""windows"":true,""osname"":""Windows"",""osversion"":""10"",""a"":true}","9:15:24","1","3","Test_3","70","f","1","646.7999999970198","1366 x 768","1366 x 768","true","1","10","","","","",""
"null","<p style=""font-size: 80px;"">+ 10 points</p>","null","html-keyboard-response","14","292145","0.0-11.0-2.13","6078421a82b88488a16a2b1f","c2bsew","LY","33","F","{""name"":""Chrome"",""chrome"":true,""version"":""106.0"",""blink"":true,""windows"":true,""osname"":""Windows"",""osversion"":""10"",""a"":true}","9:15:24","1","3","Test_4","74","j","1","824.8000000044703","1366 x 768","1366 x 768","true","1","10","","","","",""
"null","<p style=""font-size: 80px;"">+ 10 points</p>","null","html-keyboard-response","15","294831","0.0-11.0-2.14","6078421a82b88488a16a2b1f","c2bsew","LY","33","F","{""name"":""Chrome"",""chrome"":true,""version"":""106.0"",""blink"":true,""windows"":true,""osname"":""Windows"",""osversion"":""10"",""a"":true}","9:15:24","1","3","Test_1","70","f","1","662.6000000014901","1366 x 768","1366 x 768","true","1","10","","","","",""
"null","<p style=""font-size: 80px;"">+ 10 points</p>","null","html-keyboard-response","16","297784","0.0-11.0-2.15","6078421a82b88488a16a2b1f","c2bsew","LY","33","F","{""name"":""Chrome"",""chrome"":true,""version"":""106.0"",""blink"":true,""windows"":true,""osname"":""Windows"",""osversion"":""10"",""a"":true}","9:15:24","1","3","Test_2","74","j","1","924.6000000014901","1366 x 768","1366 x 768","true","1","10","","","","",""
"null","<p style=""font-size: 80px;"">+ 0 points</p>","null","html-keyboard-response","17","300504","0.0-11.0-2.16","6078421a82b88488a16a2b1f","c2bsew","LY","33","F","{""name"":""Chrome"",""chrome"":true,""version"":""106.0"",""blink"":true,""windows"":true,""osname"":""Windows"",""osversion"":""10"",""a"":true}","9:15:24","1","4","Test_3","70","j","0","705.4000000059605","1366 x 768","1366 x 768","true","1","0","","","","",""
"null","<p style=""font-size: 80px;"">+ 10 points</p>","null","html-keyboard-response","18","303429","0.0-11.0-2.17","6078421a82b88488a16a2b1f","c2bsew","LY","33","F","{""name"":""Chrome"",""chrome"":true,""version"":""106.0"",""blink"":true,""windows"":true,""osname"":""Windows"",""osversion"":""10"",""a"":true}","9:15:24","1","4","Test_1","74","j","1","903.6000000014901","1366 x 768","1366 x 768","true","1","10","","","","",""
"null","<p style=""font-size: 80px;"">+ 10 points</p>","null","html-keyboard-response","19","306057","0.0-11.0-2.18","6078421a82b88488a16a2b1f","c2bsew","LY","33","F","{""name"":""Chrome"",""chrome"":true,""version"":""106.0"",""blink"":true,""windows"":true,""osname"":""Windows"",""osversion"":""10"",""a"":true}","9:15:24","1","4","Test_1","74","j","1","606","1366 x 768","1366 x 768","true","1","10","","","","",""
"null","<p style=""font-size: 80px;"">+ 10 points</p>","null","html-keyboard-response","20","309292","0.0-11.0-2.19","6078421a82b88488a16a2b1f","c2bsew","LY","33","F","{""name"":""Chrome"",""chrome"":true,""version"":""106.0"",""blink"":true,""windows"":true,""osname"":""Windows"",""osversion"":""10"",""a"":true}","9:15:24","1","4","Test_3","74","j","1","1210","1366 x 768","1366 x 768","true","1","10","","","","",""
"null","<p style=""font-size: 80px;"">+ 10 points</p>","null","html-keyboard-response","21","312597","0.0-11.0-2.20","6078421a82b88488a16a2b1f","c2bsew","LY","33","F","{""name"":""Chrome"",""chrome"":true,""version"":""106.0"",""blink"":true,""windows"":true,""osname"":""Windows"",""osversion"":""10"",""a"":true}","9:15:24","1","4","Test_2","70","f","1","1287.3999999985099","1366 x 768","1366 x 768","true","1","10","","","","",""
"null","<p style=""font-size: 80px;"">+ 10 points</p>","null","html-keyboard-response","22","315303","0.0-11.0-2.21","6078421a82b88488a16a2b1f","c2bsew","LY","33","F","{""name"":""Chrome"",""chrome"":true,""version"":""106.0"",""blink"":true,""windows"":true,""osname"":""Windows"",""osversion"":""10"",""a"":true}","9:15:24","1","4","Test_2","70","f","1","690.5","1366 x 768","1366 x 768","true","1","10","","","","",""
"null","<p style=""font-size: 80px;"">+ 10 points</p>","null","html-keyboard-response","23","317952","0.0-11.0-2.22","6078421a82b88488a16a2b1f","c2bsew","LY","33","F","{""name"":""Chrome"",""chrome"":true,""version"":""106.0"",""blink"":true,""windows"":true,""osname"":""Windows"",""osversion"":""10"",""a"":true}","9:15:24","1","4","Test_4","70","f","1","618.6000000014901","1366 x 768","1366 x 768","true","1","10","","","","",""
"null","<p style=""font-size: 80px;"">+ 10 points</p>","null","html-keyboard-response","24","321147","0.0-11.0-2.23","6078421a82b88488a16a2b1f","c2bsew","LY","33","F","{""name"":""Chrome"",""chrome"":true,""version"":""106.0"",""blink"":true,""windows"":true,""osname"":""Windows"",""osversion"":""10"",""a"":true}","9:15:24","1","4","Test_2","70","f","1","1172.6000000014901","1366 x 768","1366 x 768","true","1","10","","","","",""
"null","<p style=""font-size: 80px;"">+ 10 points</p>","null","html-keyboard-response","25","323881","0.0-11.0-2.24","6078421a82b88488a16a2b1f","c2bsew","LY","33","F","{""name"":""Chrome"",""chrome"":true,""version"":""106.0"",""blink"":true,""windows"":true,""osname"":""Windows"",""osversion"":""10"",""a"":true}","9:15:24","1","4","Test_2","70","f","1","706.6000000014901","1366 x 768","1366 x 768","true","1","10","","","","",""
"null","<p style=""font-size: 80px;"">+ 10 points</p>","null","html-keyboard-response","26","326605","0.0-11.0-2.25","6078421a82b88488a16a2b1f","c2bsew","LY","33","F","{""name"":""Chrome"",""chrome"":true,""version"":""106.0"",""blink"":true,""windows"":true,""osname"":""Windows"",""osversion"":""10"",""a"":true}","9:15:24","1","4","Test_1","74","j","1","699.8000000044703","1366 x 768","1366 x 768","true","1","10","","","","",""
"null","<p style=""font-size: 80px;"">+ 0 points</p>","null","html-keyboard-response","27","329644","0.0-11.0-2.26","6078421a82b88488a16a2b1f","c2bsew","LY","33","F","{""name"":""Chrome"",""chrome"":true,""version"":""106.0"",""blink"":true,""windows"":true,""osname"":""Windows"",""osversion"":""10"",""a"":true}","9:15:24","1","4","Test_1","70","j","0","1008.2000000029802","1366 x 768","1366 x 768","true","1","0","","","","",""
"null","<p style=""font-size: 80px;"">+ 10 points</p>","null","html-keyboard-response","28","332882","0.0-11.0-2.27","6078421a82b88488a16a2b1f","c2bsew","LY","33","F","{""name"":""Chrome"",""chrome"":true,""version"":""106.0"",""blink"":true,""windows"":true,""osname"":""Windows"",""osversion"":""10"",""a"":true}","9:15:24","1","4","Test_4","70","f","1","1211.6999999955297","1366 x 768","1366 x 768","true","1","10","","","","",""
"null","<p style=""font-size: 80px;"">+ 10 points</p>","null","html-keyboard-response","29","335920","0.0-11.0-2.28","6078421a82b88488a16a2b1f","c2bsew","LY","33","F","{""name"":""Chrome"",""chrome"":true,""version"":""106.0"",""blink"":true,""windows"":true,""osname"":""Windows"",""osversion"":""10"",""a"":true}","9:15:24","1","4","Test_4","70","f","1","992.1000000014901","1366 x 768","1366 x 768","true","1","10","","","","",""
"null","<p style=""font-size: 80px;"">+ 10 points</p>","null","html-keyboard-response","30","338507","0.0-11.0-2.29","6078421a82b88488a16a2b1f","c2bsew","LY","33","F","{""name"":""Chrome"",""chrome"":true,""version"":""106.0"",""blink"":true,""windows"":true,""osname"":""Windows"",""osversion"":""10"",""a"":true}","9:15:24","1","4","Test_3","74","j","1","567.2999999970198","1366 x 768","1366 x 768","true","1","10","","","","",""
"null","<p style=""font-size: 80px;"">+ 10 points</p>","null","html-keyboard-response","31","341318","0.0-11.0-2.30","6078421a82b88488a16a2b1f","c2bsew","LY","33","F","{""name"":""Chrome"",""chrome"":true,""version"":""106.0"",""blink"":true,""windows"":true,""osname"":""Windows"",""osversion"":""10"",""a"":true}","9:15:24","1","4","Test_3","74","j","1","800.1999999955297","1366 x 768","1366 x 768","true","1","10","","","","",""
"null","<p style=""font-size: 80px;"">+ 10 points</p>","null","html-keyboard-response","32","343961","0.0-11.0-2.31","6078421a82b88488a16a2b1f","c2bsew","LY","33","F","{""name"":""Chrome"",""chrome"":true,""version"":""106.0"",""blink"":true,""windows"":true,""osname"":""Windows"",""osversion"":""10"",""a"":true}","9:15:24","1","4","Test_4","70","f","1","619.5","1366 x 768","1366 x 768","true","1","10","","","","",""
"null","<p style=""font-size: 80px;"">+ 10 points</p>","null","html-keyboard-response","33","347005","0.0-11.0-2.32","6078421a82b88488a16a2b1f","c2bsew","LY","33","F","{""name"":""Chrome"",""chrome"":true,""version"":""106.0"",""blink"":true,""windows"":true,""osname"":""Windows"",""osversion"":""10"",""a"":true}","9:15:24","1","4","Test_3","74","j","1","1034.7000000029802","1366 x 768","1366 x 768","true","1","10","","","","",""
"null","<p style=""font-size: 80px;"">+ 10 points</p>","null","html-keyboard-response","34","349589","0.0-11.0-2.33","6078421a82b88488a16a2b1f","c2bsew","LY","33","F","{""name"":""Chrome"",""chrome"":true,""version"":""106.0"",""blink"":true,""windows"":true,""osname"":""Windows"",""osversion"":""10"",""a"":true}","9:15:24","1","4","Test_4","70","f","1","562.6999999955297","1366 x 768","1366 x 768","true","1","10","","","","",""
"null","<p style=""font-size: 80px;"">+ 10 points</p>","null","html-keyboard-response","35","352115","0.0-11.0-2.34","6078421a82b88488a16a2b1f","c2bsew","LY","33","F","{""name"":""Chrome"",""chrome"":true,""version"":""106.0"",""blink"":true,""windows"":true,""osname"":""Windows"",""osversion"":""10"",""a"":true}","9:15:24","1","4","Test_2","70","f","1","502.30000000447035","1366 x 768","1366 x 768","true","1","10","","","","",""
"null","<p style=""font-size: 80px;"">+ 10 points</p>","null","html-keyboard-response","36","354784","0.0-11.0-2.35","6078421a82b88488a16a2b1f","c2bsew","LY","33","F","{""name"":""Chrome"",""chrome"":true,""version"":""106.0"",""blink"":true,""windows"":true,""osname"":""Windows"",""osversion"":""10"",""a"":true}","9:15:24","1","4","Test_1","74","j","1","646.3000000044703","1366 x 768","1366 x 768","true","1","10","","","","",""
"null","<p style=""font-size: 80px;"">+ 10 points</p>","null","html-keyboard-response","37","357753","0.0-11.0-2.36","6078421a82b88488a16a2b1f","c2bsew","LY","33","F","{""name"":""Chrome"",""chrome"":true,""version"":""106.0"",""blink"":true,""windows"":true,""osname"":""Windows"",""osversion"":""10"",""a"":true}","9:15:24","1","4","Test_1","74","j","1","946.7999999970198","1366 x 768","1366 x 768","true","1","10","","","","",""
"null","<p style=""font-size: 80px;"">+ 10 points</p>","null","html-keyboard-response","38","360320","0.0-11.0-2.37","6078421a82b88488a16a2b1f","c2bsew","LY","33","F","{""name"":""Chrome"",""chrome"":true,""version"":""106.0"",""blink"":true,""windows"":true,""osname"":""Windows"",""osversion"":""10"",""a"":true}","9:15:24","1","4","Test_3","74","j","1","544.6000000014901","1366 x 768","1366 x 768","true","1","10","","","","",""
"null","<p style=""font-size: 80px;"">+ 0 points</p>","null","html-keyboard-response","39","362981","0.0-11.0-2.38","6078421a82b88488a16a2b1f","c2bsew","LY","33","F","{""name"":""Chrome"",""chrome"":true,""version"":""106.0"",""blink"":true,""windows"":true,""osname"":""Windows"",""osversion"":""10"",""a"":true}","9:15:24","1","3","Test_3","74","f","0","634.5999999940395","1366 x 768","1366 x 768","true","1","0","","","","",""
"null","<p style=""font-size: 80px;"">+ 10 points</p>","null","html-keyboard-response","40","365975","0.0-11.0-2.39","6078421a82b88488a16a2b1f","c2bsew","LY","33","F","{""name"":""Chrome"",""chrome"":true,""version"":""106.0"",""blink"":true,""windows"":true,""osname"":""Windows"",""osversion"":""10"",""a"":true}","9:15:24","1","3","Test_2","74","j","1","962.1000000014901","1366 x 768","1366 x 768","true","1","10","","","","",""
"null","<p style=""font-size: 80px;"">+ 10 points</p>","null","html-keyboard-response","41","368714","0.0-11.0-2.40","6078421a82b88488a16a2b1f","c2bsew","LY","33","F","{""name"":""Chrome"",""chrome"":true,""version"":""106.0"",""blink"":true,""windows"":true,""osname"":""Windows"",""osversion"":""10"",""a"":true}","9:15:24","1","3","Test_4","74","j","1","711.2000000029802","1366 x 768","1366 x 768","true","1","10","","","","",""
"null","<p style=""font-size: 80px;"">+ 10 points</p>","null","html-keyboard-response","42","372119","0.0-11.0-2.41","6078421a82b88488a16a2b1f","c2bsew","LY","33","F","{""name"":""Chrome"",""chrome"":true,""version"":""106.0"",""blink"":true,""windows"":true,""osname"":""Windows"",""osversion"":""10"",""a"":true}","9:15:24","1","3","Test_2","74","j","1","1380.5","1366 x 768","1366 x 768","true","1","10","","","","",""
"null","<p style=""font-size: 80px;"">+ 10 points</p>","null","html-keyboard-response","43","376441","0.0-11.0-2.42","6078421a82b88488a16a2b1f","c2bsew","LY","33","F","{""name"":""Chrome"",""chrome"":true,""version"":""106.0"",""blink"":true,""windows"":true,""osname"":""Windows"",""osversion"":""10"",""a"":true}","9:15:24","1","3","Test_1","70","f","1","2298.9000000059605","1366 x 768","1366 x 768","true","1","10","","","","",""
"null","<p style=""font-size: 80px;"">+ 10 points</p>","null","html-keyboard-response","44","379574","0.0-11.0-2.43","6078421a82b88488a16a2b1f","c2bsew","LY","33","F","{""name"":""Chrome"",""chrome"":true,""version"":""106.0"",""blink"":true,""windows"":true,""osname"":""Windows"",""osversion"":""10"",""a"":true}","9:15:24","1","3","Test_4","74","j","1","1105.1999999955297","1366 x 768","1366 x 768","true","1","10","","","","",""
"null","<p style=""font-size: 80px;"">+ 10 points</p>","null","html-keyboard-response","45","382237","0.0-11.0-2.44","6078421a82b88488a16a2b1f","c2bsew","LY","33","F","{""name"":""Chrome"",""chrome"":true,""version"":""106.0"",""blink"":true,""windows"":true,""osname"":""Windows"",""osversion"":""10"",""a"":true}","9:15:24","1","3","Test_4","74","j","1","636.8000000044703","1366 x 768","1366 x 768","true","1","10","","","","",""
"null","<p style=""font-size: 80px;"">+ 10 points</p>","null","html-keyboard-response","46","385081","0.0-11.0-2.45","6078421a82b88488a16a2b1f","c2bsew","LY","33","F","{""name"":""Chrome"",""chrome"":true,""version"":""106.0"",""blink"":true,""windows"":true,""osname"":""Windows"",""osversion"":""10"",""a"":true}","9:15:24","1","3","Test_1","70","f","1","813.5999999940395","1366 x 768","1366 x 768","true","1","10","","","","",""
"null","<p style=""font-size: 80px;"">+ 10 points</p>","null","html-keyboard-response","47","387630","0.0-11.0-2.46","6078421a82b88488a16a2b1f","c2bsew","LY","33","F","{""name"":""Chrome"",""chrome"":true,""version"":""106.0"",""blink"":true,""windows"":true,""osname"":""Windows"",""osversion"":""10"",""a"":true}","9:15:24","1","3","Test_4","74","j","1","522.8999999985099","1366 x 768","1366 x 768","true","1","10","","","","",""
"null","<p style=""font-size: 80px;"">+ 10 points</p>","null","html-keyboard-response","48","390464","0.0-11.0-2.47","6078421a82b88488a16a2b1f","c2bsew","LY","33","F","{""name"":""Chrome"",""chrome"":true,""version"":""106.0"",""blink"":true,""windows"":true,""osname"":""Windows"",""osversion"":""10"",""a"":true}","9:15:24","1","3","Test_3","70","f","1","814.2000000029802","1366 x 768","1366 x 768","true","1","10","","","","",""
"null","<p style=""font-size: 80px;"">+ 10 points</p>","null","html-keyboard-response","49","393072","0.0-11.0-2.48","6078421a82b88488a16a2b1f","c2bsew","LY","33","F","{""name"":""Chrome"",""chrome"":true,""version"":""106.0"",""blink"":true,""windows"":true,""osname"":""Windows"",""osversion"":""10"",""a"":true}","9:15:24","1","3","Test_2","74","j","1","583.1000000014901","1366 x 768","1366 x 768","true","1","10","","","","",""
"null","<p style=""font-size: 80px;"">+ 10 points</p>","null","html-keyboard-response","50","395819","0.0-11.0-2.49","6078421a82b88488a16a2b1f","c2bsew","LY","33","F","{""name"":""Chrome"",""chrome"":true,""version"":""106.0"",""blink"":true,""windows"":true,""osname"":""Windows"",""osversion"":""10"",""a"":true}","9:15:24","1","3","Test_3","70","f","1","722.6000000014901","1366 x 768","1366 x 768","true","1","10","","","","",""
"null","<p style=""font-size: 80px;"">+ 10 points</p>","null","html-keyboard-response","51","398918","0.0-11.0-2.50","6078421a82b88488a16a2b1f","c2bsew","LY","33","F","{""name"":""Chrome"",""chrome"":true,""version"":""106.0"",""blink"":true,""windows"":true,""osname"":""Windows"",""osversion"":""10"",""a"":true}","9:15:24","1","3","Test_1","70","f","1","1073.8999999985099","1366 x 768","1366 x 768","true","1","10","","","","",""
"null","<p style=""font-size: 80px;"">+ 10 points</p>","null","html-keyboard-response","52","401698","0.0-11.0-2.51","6078421a82b88488a16a2b1f","c2bsew","LY","33","F","{""name"":""Chrome"",""chrome"":true,""version"":""106.0"",""blink"":true,""windows"":true,""osname"":""Windows"",""osversion"":""10"",""a"":true}","9:15:24","1","3","Test_3","70","f","1","757.8999999985099","1366 x 768","1366 x 768","true","1","10","","","","",""
"null","<p style=""font-size: 80px;"">+ 10 points</p>","null","html-keyboard-response","53","404245","0.0-11.0-2.52","6078421a82b88488a16a2b1f","c2bsew","LY","33","F","{""name"":""Chrome"",""chrome"":true,""version"":""106.0"",""blink"":true,""windows"":true,""osname"":""Windows"",""osversion"":""10"",""a"":true}","9:15:24","1","3","Test_2","74","j","1","515","1366 x 768","1366 x 768","true","1","10","","","","",""
"null","<p style=""font-size: 80px;"">+ 0 points</p>","null","html-keyboard-response","54","406956","0.0-11.0-2.53","6078421a82b88488a16a2b1f","c2bsew","LY","33","F","{""name"":""Chrome"",""chrome"":true,""version"":""106.0"",""blink"":true,""windows"":true,""osname"":""Windows"",""osversion"":""10"",""a"":true}","9:15:24","1","4","Test_4","74","f","0","690.1000000014901","1366 x 768","1366 x 768","true","1","0","","","","",""
"null","<p style=""font-size: 80px;"">+ 10 points</p>","null","html-keyboard-response","55","409816","0.0-11.0-2.54","6078421a82b88488a16a2b1f","c2bsew","LY","33","F","{""name"":""Chrome"",""chrome"":true,""version"":""106.0"",""blink"":true,""windows"":true,""osname"":""Windows"",""osversion"":""10"",""a"":true}","9:15:24","1","4","Test_1","74","j","1","847.7999999970198","1366 x 768","1366 x 768","true","1","10","","","","",""
"null","<p style=""font-size: 80px;"">+ 10 points</p>","null","html-keyboard-response","56","412869","0.0-11.0-2.55","6078421a82b88488a16a2b1f","c2bsew","LY","33","F","{""name"":""Chrome"",""chrome"":true,""version"":""106.0"",""blink"":true,""windows"":true,""osname"":""Windows"",""osversion"":""10"",""a"":true}","9:15:24","1","4","Test_1","74","j","1","1035.2000000029802","1366 x 768","1366 x 768","true","1","10","","","","",""
"null","<p style=""font-size: 80px;"">+ 10 points</p>","null","html-keyboard-response","57","415948","0.0-11.0-2.56","6078421a82b88488a16a2b1f","c2bsew","LY","33","F","{""name"":""Chrome"",""chrome"":true,""version"":""106.0"",""blink"":true,""windows"":true,""osname"":""Windows"",""osversion"":""10"",""a"":true}","9:15:24","1","4","Test_3","74","j","1","1054.2000000029802","1366 x 768","1366 x 768","true","1","10","","","","",""
"null","<p style=""font-size: 80px;"">+ 10 points</p>","null","html-keyboard-response","58","419294","0.0-11.0-2.57","6078421a82b88488a16a2b1f","c2bsew","LY","33","F","{""name"":""Chrome"",""chrome"":true,""version"":""106.0"",""blink"":true,""windows"":true,""osname"":""Windows"",""osversion"":""10"",""a"":true}","9:15:24","1","4","Test_1","74","j","1","1316.6999999955297","1366 x 768","1366 x 768","true","1","10","","","","",""
"null","<p style=""font-size: 80px;"">+ 10 points</p>","null","html-keyboard-response","59","421885","0.0-11.0-2.58","6078421a82b88488a16a2b1f","c2bsew","LY","33","F","{""name"":""Chrome"",""chrome"":true,""version"":""106.0"",""blink"":true,""windows"":true,""osname"":""Windows"",""osversion"":""10"",""a"":true}","9:15:24","1","4","Test_3","74","j","1","551.2999999970198","1366 x 768","1366 x 768","true","1","10","","","","",""
"null","<p style=""font-size: 80px;"">+ 10 points</p>","null","html-keyboard-response","60","424498","0.0-11.0-2.59","6078421a82b88488a16a2b1f","c2bsew","LY","33","F","{""name"":""Chrome"",""chrome"":true,""version"":""106.0"",""blink"":true,""windows"":true,""osname"":""Windows"",""osversion"":""10"",""a"":true}","9:15:24","1","4","Test_3","74","j","1","596.5","1366 x 768","1366 x 768","true","1","10","","","","",""
"null","<p style=""font-size: 80px;"">+ 10 points</p>","null","html-keyboard-response","61","427245","0.0-11.0-2.60","6078421a82b88488a16a2b1f","c2bsew","LY","33","F","{""name"":""Chrome"",""chrome"":true,""version"":""106.0"",""blink"":true,""windows"":true,""osname"":""Windows"",""osversion"":""10"",""a"":true}","9:15:24","1","4","Test_1","74","j","1","715.7000000029802","1366 x 768","1366 x 768","true","1","10","","","","",""
"null","<p style=""font-size: 80px;"">+ 10 points</p>","null","html-keyboard-response","62","429964","0.0-11.0-2.61","6078421a82b88488a16a2b1f","c2bsew","LY","33","F","{""name"":""Chrome"",""chrome"":true,""version"":""106.0"",""blink"":true,""windows"":true,""osname"":""Windows"",""osversion"":""10"",""a"":true}","9:15:24","1","4","Test_2","70","f","1","691.6999999955297","1366 x 768","1366 x 768","true","1","10","","","","",""
"null","<p style=""font-size: 80px;"">+ 10 points</p>","null","html-keyboard-response","63","432751","0.0-11.0-2.62","6078421a82b88488a16a2b1f","c2bsew","LY","33","F","{""name"":""Chrome"",""chrome"":true,""version"":""106.0"",""blink"":true,""windows"":true,""osname"":""Windows"",""osversion"":""10"",""a"":true}","9:15:24","1","4","Test_2","70","f","1","769.1000000014901","1366 x 768","1366 x 768","true","1","10","","","","",""
"null","<p style=""font-size: 80px;"">+ 10 points</p>","null","html-keyboard-response","64","437610","0.0-11.0-2.63","6078421a82b88488a16a2b1f","c2bsew","LY","33","F","{""name"":""Chrome"",""chrome"":true,""version"":""106.0"",""blink"":true,""windows"":true,""osname"":""Windows"",""osversion"":""10"",""a"":true}","9:15:24","1","4","Test_4","70","f","1","2841.1999999955297","1366 x 768","1366 x 768","true","1","10","","","","",""
"null","<p style=""font-size: 80px;"">+ 10 points</p>","null","html-keyboard-response","65","440485","0.0-11.0-2.64","6078421a82b88488a16a2b1f","c2bsew","LY","33","F","{""name"":""Chrome"",""chrome"":true,""version"":""106.0"",""blink"":true,""windows"":true,""osname"":""Windows"",""osversion"":""10"",""a"":true}","9:15:24","1","4","Test_4","70","f","1","861","1366 x 768","1366 x 768","true","1","10","","","","",""
"null","<p style=""font-size: 80px;"">+ 10 points</p>","null","html-keyboard-response","66","443255","0.0-11.0-2.65","6078421a82b88488a16a2b1f","c2bsew","LY","33","F","{""name"":""Chrome"",""chrome"":true,""version"":""106.0"",""blink"":true,""windows"":true,""osname"":""Windows"",""osversion"":""10"",""a"":true}","9:15:24","1","4","Test_3","74","j","1","749","1366 x 768","1366 x 768","true","1","10","","","","",""
"null","<p style=""font-size: 80px;"">+ 10 points</p>","null","html-keyboard-response","67","446500","0.0-11.0-2.66","6078421a82b88488a16a2b1f","c2bsew","LY","33","F","{""name"":""Chrome"",""chrome"":true,""version"":""106.0"",""blink"":true,""windows"":true,""osname"":""Windows"",""osversion"":""10"",""a"":true}","9:15:24","1","4","Test_4","70","f","1","1226.3999999985099","1366 x 768","1366 x 768","true","1","10","","","","",""
"null","<p style=""font-size: 80px;"">+ 10 points</p>","null","html-keyboard-response","68","449619","0.0-11.0-2.67","6078421a82b88488a16a2b1f","c2bsew","LY","33","F","{""name"":""Chrome"",""chrome"":true,""version"":""106.0"",""blink"":true,""windows"":true,""osname"":""Windows"",""osversion"":""10"",""a"":true}","9:15:24","1","4","Test_4","70","f","1","1092.6000000014901","1366 x 768","1366 x 768","true","1","10","","","","",""
"null","<p style=""font-size: 80px;"">+ 10 points</p>","null","html-keyboard-response","69","452396","0.0-11.0-2.68","6078421a82b88488a16a2b1f","c2bsew","LY","33","F","{""name"":""Chrome"",""chrome"":true,""version"":""106.0"",""blink"":true,""windows"":true,""osname"":""Windows"",""osversion"":""10"",""a"":true}","9:15:24","1","4","Test_3","74","j","1","746.9000000059605","1366 x 768","1366 x 768","true","1","10","","","","",""
"null","<p style=""font-size: 80px;"">+ 10 points</p>","null","html-keyboard-response","70","455125","0.0-11.0-2.69","6078421a82b88488a16a2b1f","c2bsew","LY","33","F","{""name"":""Chrome"",""chrome"":true,""version"":""106.0"",""blink"":true,""windows"":true,""osname"":""Windows"",""osversion"":""10"",""a"":true}","9:15:24","1","4","Test_3","74","j","1","707.3999999985099","1366 x 768","1366 x 768","true","1","10","","","","",""
"null","<p style=""font-size: 80px;"">+ 10 points</p>","null","html-keyboard-response","71","457827","0.0-11.0-2.70","6078421a82b88488a16a2b1f","c2bsew","LY","33","F","{""name"":""Chrome"",""chrome"":true,""version"":""106.0"",""blink"":true,""windows"":true,""osname"":""Windows"",""osversion"":""10"",""a"":true}","9:15:24","1","4","Test_2","70","f","1","666.8000000044703","1366 x 768","1366 x 768","true","1","10","","","","",""
"null","<p style=""font-size: 80px;"">+ 10 points</p>","null","html-keyboard-response","72","460561","0.0-11.0-2.71","6078421a82b88488a16a2b1f","c2bsew","LY","33","F","{""name"":""Chrome"",""chrome"":true,""version"":""106.0"",""blink"":true,""windows"":true,""osname"":""Windows"",""osversion"":""10"",""a"":true}","9:15:24","1","4","Test_2","70","f","1","708.7000000029802","1366 x 768","1366 x 768","true","1","10","","","","",""
"null","<p style=""font-size: 80px;"">+ 10 points</p>","null","html-keyboard-response","73","463175","0.0-11.0-2.72","6078421a82b88488a16a2b1f","c2bsew","LY","33","F","{""name"":""Chrome"",""chrome"":true,""version"":""106.0"",""blink"":true,""windows"":true,""osname"":""Windows"",""osversion"":""10"",""a"":true}","9:15:24","1","4","Test_2","70","f","1","590.8999999985099","1366 x 768","1366 x 768","true","1","10","","","","",""
"null","<p style=""font-size: 80px;"">+ 10 points</p>","null","html-keyboard-response","74","466016","0.0-11.0-2.73","6078421a82b88488a16a2b1f","c2bsew","LY","33","F","{""name"":""Chrome"",""chrome"":true,""version"":""106.0"",""blink"":true,""windows"":true,""osname"":""Windows"",""osversion"":""10"",""a"":true}","9:15:24","1","4","Test_1","74","j","1","814.1000000014901","1366 x 768","1366 x 768","true","1","10","","","","",""
"null","<p style=""font-size: 80px;"">+ 10 points</p>","null","html-keyboard-response","75","469024","0.0-11.0-2.74","6078421a82b88488a16a2b1f","c2bsew","LY","33","F","{""name"":""Chrome"",""chrome"":true,""version"":""106.0"",""blink"":true,""windows"":true,""osname"":""Windows"",""osversion"":""10"",""a"":true}","9:15:24","1","4","Test_2","70","f","1","991.8999999985099","1366 x 768","1366 x 768","true","1","10","","","","",""
"null","<p style=""font-size: 80px;"">+ 10 points</p>","null","html-keyboard-response","76","471923","0.0-11.0-2.75","6078421a82b88488a16a2b1f","c2bsew","LY","33","F","{""name"":""Chrome"",""chrome"":true,""version"":""106.0"",""blink"":true,""windows"":true,""osname"":""Windows"",""osversion"":""10"",""a"":true}","9:15:24","1","4","Test_4","70","f","1","874.1000000014901","1366 x 768","1366 x 768","true","1","10","","","","",""
"null","<p style=""font-size: 80px;"">+ 10 points</p>","null","html-keyboard-response","77","474807","0.0-11.0-2.76","6078421a82b88488a16a2b1f","c2bsew","LY","33","F","{""name"":""Chrome"",""chrome"":true,""version"":""106.0"",""blink"":true,""windows"":true,""osname"":""Windows"",""osversion"":""10"",""a"":true}","9:15:24","1","4","Test_1","74","j","1","868.3999999985099","1366 x 768","1366 x 768","true","1","10","","","","",""
"null","<p style=""font-size: 80px;"">+ 0 points</p>","null","html-keyboard-response","78","477299","0.0-11.0-2.77","6078421a82b88488a16a2b1f","c2bsew","LY","33","F","{""name"":""Chrome"",""chrome"":true,""version"":""106.0"",""blink"":true,""windows"":true,""osname"":""Windows"",""osversion"":""10"",""a"":true}","9:15:24","1","3","Test_2","70","j","0","464.6000000014901","1366 x 768","1366 x 768","true","1","0","","","","",""
"null","<p style=""font-size: 80px;"">+ 0 points</p>","null","html-keyboard-response","79","481193","0.0-11.0-2.78","6078421a82b88488a16a2b1f","c2bsew","LY","33","F","{""name"":""Chrome"",""chrome"":true,""version"":""106.0"",""blink"":true,""windows"":true,""osname"":""Windows"",""osversion"":""10"",""a"":true}","9:15:24","1","3","Test_4","70","j","0","1865.2000000029802","1366 x 768","1366 x 768","true","1","0","","","","",""
"null","<p style=""font-size: 80px;"">+ 10 points</p>","null","html-keyboard-response","80","484036","0.0-11.0-2.79","6078421a82b88488a16a2b1f","c2bsew","LY","33","F","{""name"":""Chrome"",""chrome"":true,""version"":""106.0"",""blink"":true,""windows"":true,""osname"":""Windows"",""osversion"":""10"",""a"":true}","9:15:24","1","3","Test_3","70","f","1","820.6000000014901","1366 x 768","1366 x 768","true","1","10","","","","",""
"null","<p style=""font-size: 80px;"">+ 10 points</p>","null","html-keyboard-response","81","487353","0.0-11.0-2.80","6078421a82b88488a16a2b1f","c2bsew","LY","33","F","{""name"":""Chrome"",""chrome"":true,""version"":""106.0"",""blink"":true,""windows"":true,""osname"":""Windows"",""osversion"":""10"",""a"":true}","9:15:24","1","3","Test_2","74","j","1","1304.7999999970198","1366 x 768","1366 x 768","true","1","10","","","","",""
"null","<p style=""font-size: 80px;"">+ 10 points</p>","null","html-keyboard-response","82","490430","0.0-11.0-2.81","6078421a82b88488a16a2b1f","c2bsew","LY","33","F","{""name"":""Chrome"",""chrome"":true,""version"":""106.0"",""blink"":true,""windows"":true,""osname"":""Windows"",""osversion"":""10"",""a"":true}","9:15:24","1","3","Test_3","70","f","1","1049.8000000044703","1366 x 768","1366 x 768","true","1","10","","","","",""
"null","<p style=""font-size: 80px;"">+ 10 points</p>","null","html-keyboard-response","83","493232","0.0-11.0-2.82","6078421a82b88488a16a2b1f","c2bsew","LY","33","F","{""name"":""Chrome"",""chrome"":true,""version"":""106.0"",""blink"":true,""windows"":true,""osname"":""Windows"",""osversion"":""10"",""a"":true}","9:15:24","1","3","Test_3","70","f","1","782.7999999970198","1366 x 768","1366 x 768","true","1","10","","","","",""
"null","<p style=""font-size: 80px;"">+ 10 points</p>","null","html-keyboard-response","84","495950","0.0-11.0-2.83","6078421a82b88488a16a2b1f","c2bsew","LY","33","F","{""name"":""Chrome"",""chrome"":true,""version"":""106.0"",""blink"":true,""windows"":true,""osname"":""Windows"",""osversion"":""10"",""a"":true}","9:15:24","1","3","Test_2","74","j","1","695.8999999985099","1366 x 768","1366 x 768","true","1","10","","","","",""
"null","<p style=""font-size: 80px;"">+ 10 points</p>","null","html-keyboard-response","85","498803","0.0-11.0-2.84","6078421a82b88488a16a2b1f","c2bsew","LY","33","F","{""name"":""Chrome"",""chrome"":true,""version"":""106.0"",""blink"":true,""windows"":true,""osname"":""Windows"",""osversion"":""10"",""a"":true}","9:15:24","1","3","Test_3","70","f","1","827","1366 x 768","1366 x 768","true","1","10","","","","",""
"null","<p style=""font-size: 80px;"">+ 10 points</p>","null","html-keyboard-response","86","501529","0.0-11.0-2.85","6078421a82b88488a16a2b1f","c2bsew","LY","33","F","{""name"":""Chrome"",""chrome"":true,""version"":""106.0"",""blink"":true,""windows"":true,""osname"":""Windows"",""osversion"":""10"",""a"":true}","9:15:24","1","3","Test_2","74","j","1","702.8999999985099","1366 x 768","1366 x 768","true","1","10","","","","",""
"null","<p style=""font-size: 80px;"">+ 10 points</p>","null","html-keyboard-response","87","504855","0.0-11.0-2.86","6078421a82b88488a16a2b1f","c2bsew","LY","33","F","{""name"":""Chrome"",""chrome"":true,""version"":""106.0"",""blink"":true,""windows"":true,""osname"":""Windows"",""osversion"":""10"",""a"":true}","9:15:24","1","3","Test_1","70","f","1","1298.7000000029802","1366 x 768","1366 x 768","true","1","10","","","","",""
"null","<p style=""font-size: 80px;"">+ 10 points</p>","null","html-keyboard-response","88","507518","0.0-11.0-2.87","6078421a82b88488a16a2b1f","c2bsew","LY","33","F","{""name"":""Chrome"",""chrome"":true,""version"":""106.0"",""blink"":true,""windows"":true,""osname"":""Windows"",""osversion"":""10"",""a"":true}","9:15:24","1","3","Test_3","70","f","1","648.6999999955297","1366 x 768","1366 x 768","true","1","10","","","","",""
"null","<p style=""font-size: 80px;"">+ 10 points</p>","null","html-keyboard-response","89","510175","0.0-11.0-2.88","6078421a82b88488a16a2b1f","c2bsew","LY","33","F","{""name"":""Chrome"",""chrome"":true,""version"":""106.0"",""blink"":true,""windows"":true,""osname"":""Windows"",""osversion"":""10"",""a"":true}","9:15:24","1","3","Test_1","70","f","1","636.2000000029802","1366 x 768","1366 x 768","true","1","10","","","","",""
"null","<p style=""font-size: 80px;"">+ 10 points</p>","null","html-keyboard-response","90","513107","0.0-11.0-2.89","6078421a82b88488a16a2b1f","c2bsew","LY","33","F","{""name"":""Chrome"",""chrome"":true,""version"":""106.0"",""blink"":true,""windows"":true,""osname"":""Windows"",""osversion"":""10"",""a"":true}","9:15:24","1","3","Test_2","74","j","1","890.3999999985099","1366 x 768","1366 x 768","true","1","10","","","","",""
"null","<p style=""font-size: 80px;"">+ 10 points</p>","null","html-keyboard-response","91","516021","0.0-11.0-2.90","6078421a82b88488a16a2b1f","c2bsew","LY","33","F","{""name"":""Chrome"",""chrome"":true,""version"":""106.0"",""blink"":true,""windows"":true,""osname"":""Windows"",""osversion"":""10"",""a"":true}","9:15:24","1","3","Test_1","70","f","1","895","1366 x 768","1366 x 768","true","1","10","","","","",""
"null","<p style=""font-size: 80px;"">+ 10 points</p>","null","html-keyboard-response","92","519414","0.0-11.0-2.91","6078421a82b88488a16a2b1f","c2bsew","LY","33","F","{""name"":""Chrome"",""chrome"":true,""version"":""106.0"",""blink"":true,""windows"":true,""osname"":""Windows"",""osversion"":""10"",""a"":true}","9:15:24","1","3","Test_4","74","j","1","1370","1366 x 768","1366 x 768","true","1","10","","","","",""
"null","<p style=""font-size: 80px;"">+ 10 points</p>","null","html-keyboard-response","93","521995","0.0-11.0-2.92","6078421a82b88488a16a2b1f","c2bsew","LY","33","F","{""name"":""Chrome"",""chrome"":true,""version"":""106.0"",""blink"":true,""windows"":true,""osname"":""Windows"",""osversion"":""10"",""a"":true}","9:15:24","1","3","Test_3","70","f","1","556","1366 x 768","1366 x 768","true","1","10","","","","",""
"null","<p style=""font-size: 80px;"">+ 10 points</p>","null","html-keyboard-response","94","524852","0.0-11.0-2.93","6078421a82b88488a16a2b1f","c2bsew","LY","33","F","{""name"":""Chrome"",""chrome"":true,""version"":""106.0"",""blink"":true,""windows"":true,""osname"":""Windows"",""osversion"":""10"",""a"":true}","9:15:24","1","3","Test_4","74","j","1","831","1366 x 768","1366 x 768","true","1","10","","","","",""
"null","<p style=""font-size: 80px;"">+ 10 points</p>","null","html-keyboard-response","95","527611","0.0-11.0-2.94","6078421a82b88488a16a2b1f","c2bsew","LY","33","F","{""name"":""Chrome"",""chrome"":true,""version"":""106.0"",""blink"":true,""windows"":true,""osname"":""Windows"",""osversion"":""10"",""a"":true}","9:15:24","1","3","Test_4","74","j","1","731.5","1366 x 768","1366 x 768","true","1","10","","","","",""
"null","<p style=""font-size: 80px;"">+ 10 points</p>","null","html-keyboard-response","96","530338","0.0-11.0-2.95","6078421a82b88488a16a2b1f","c2bsew","LY","33","F","{""name"":""Chrome"",""chrome"":true,""version"":""106.0"",""blink"":true,""windows"":true,""osname"":""Windows"",""osversion"":""10"",""a"":true}","9:15:24","1","3","Test_2","74","j","1","710.9000000059605","1366 x 768","1366 x 768","true","1","10","","","","",""
"null","<p style=""font-size: 80px;"">+ 10 points</p>","null","html-keyboard-response","97","532861","0.0-11.0-2.96","6078421a82b88488a16a2b1f","c2bsew","LY","33","F","{""name"":""Chrome"",""chrome"":true,""version"":""106.0"",""blink"":true,""windows"":true,""osname"":""Windows"",""osversion"":""10"",""a"":true}","9:15:24","1","3","Test_1","70","f","1","503.6000000014901","1366 x 768","1366 x 768","true","1","10","","","","",""
"null","<p style=""font-size: 80px;"">+ 10 points</p>","null","html-keyboard-response","98","535711","0.0-11.0-2.97","6078421a82b88488a16a2b1f","c2bsew","LY","33","F","{""name"":""Chrome"",""chrome"":true,""version"":""106.0"",""blink"":true,""windows"":true,""osname"":""Windows"",""osversion"":""10"",""a"":true}","9:15:24","1","3","Test_4","74","j","1","821.7000000029802","1366 x 768","1366 x 768","true","1","10","","","","",""
"null","<p style=""font-size: 80px;"">+ 10 points</p>","null","html-keyboard-response","99","538425","0.0-11.0-2.98","6078421a82b88488a16a2b1f","c2bsew","LY","33","F","{""name"":""Chrome"",""chrome"":true,""version"":""106.0"",""blink"":true,""windows"":true,""osname"":""Windows"",""osversion"":""10"",""a"":true}","9:15:24","1","3","Test_1","70","f","1","695.8999999985099","1366 x 768","1366 x 768","true","1","10","","","","",""
"null","<p style=""font-size: 80px;"">+ 10 points</p>","null","html-keyboard-response","100","540918","0.0-11.0-2.99","6078421a82b88488a16a2b1f","c2bsew","LY","33","F","{""name"":""Chrome"",""chrome"":true,""version"":""106.0"",""blink"":true,""windows"":true,""osname"":""Windows"",""osversion"":""10"",""a"":true}","9:15:24","1","3","Test_1","70","f","1","475.5","1366 x 768","1366 x 768","true","1","10","","","","",""
"null","<p style=""font-size: 80px;"">+ 0 points</p>","null","html-keyboard-response","101","543482","0.0-11.0-2.100","6078421a82b88488a16a2b1f","c2bsew","LY","33","F","{""name"":""Chrome"",""chrome"":true,""version"":""106.0"",""blink"":true,""windows"":true,""osname"":""Windows"",""osversion"":""10"",""a"":true}","9:15:24","1","4","Test_4","74","f","0","546.5","1366 x 768","1366 x 768","true","1","0","","","","",""
"null","<p style=""font-size: 80px;"">+ 10 points</p>","null","html-keyboard-response","102","546823","0.0-11.0-2.101","6078421a82b88488a16a2b1f","c2bsew","LY","33","F","{""name"":""Chrome"",""chrome"":true,""version"":""106.0"",""blink"":true,""windows"":true,""osname"":""Windows"",""osversion"":""10"",""a"":true}","9:15:24","1","4","Test_3","74","j","1","1312.7000000029802","1366 x 768","1366 x 768","true","1","10","","","","",""
"null","<p style=""font-size: 80px;"">+ 10 points</p>","null","html-keyboard-response","103","549610","0.0-11.0-2.102","6078421a82b88488a16a2b1f","c2bsew","LY","33","F","{""name"":""Chrome"",""chrome"":true,""version"":""106.0"",""blink"":true,""windows"":true,""osname"":""Windows"",""osversion"":""10"",""a"":true}","9:15:24","1","4","Test_4","70","f","1","755","1366 x 768","1366 x 768","true","1","10","","","","",""
"null","<p style=""font-size: 80px;"">+ 10 points</p>","null","html-keyboard-response","104","552476","0.0-11.0-2.103","6078421a82b88488a16a2b1f","c2bsew","LY","33","F","{""name"":""Chrome"",""chrome"":true,""version"":""106.0"",""blink"":true,""windows"":true,""osname"":""Windows"",""osversion"":""10"",""a"":true}","9:15:24","1","4","Test_1","74","j","1","833.5","1366 x 768","1366 x 768","true","1","10","","","","",""
"null","<p style=""font-size: 80px;"">+ 10 points</p>","null","html-keyboard-response","105","555312","0.0-11.0-2.104","6078421a82b88488a16a2b1f","c2bsew","LY","33","F","{""name"":""Chrome"",""chrome"":true,""version"":""106.0"",""blink"":true,""windows"":true,""osname"":""Windows"",""osversion"":""10"",""a"":true}","9:15:24","1","4","Test_3","74","j","1","808.9000000059605","1366 x 768","1366 x 768","true","1","10","","","","",""
"null","<p style=""font-size: 80px;"">+ 0 points</p>","null","html-keyboard-response","106","558029","0.0-11.0-2.105","6078421a82b88488a16a2b1f","c2bsew","LY","33","F","{""name"":""Chrome"",""chrome"":true,""version"":""106.0"",""blink"":true,""windows"":true,""osname"":""Windows"",""osversion"":""10"",""a"":true}","9:15:24","1","4","Test_4","74","f","0","696.7999999970198","1366 x 768","1366 x 768","true","1","0","","","","",""
"null","<p style=""font-size: 80px;"">+ 10 points</p>","null","html-keyboard-response","107","560619","0.0-11.0-2.106","6078421a82b88488a16a2b1f","c2bsew","LY","33","F","{""name"":""Chrome"",""chrome"":true,""version"":""106.0"",""blink"":true,""windows"":true,""osname"":""Windows"",""osversion"":""10"",""a"":true}","9:15:24","1","4","Test_2","70","f","1","567.5","1366 x 768","1366 x 768","true","1","10","","","","",""
"null","<p style=""font-size: 80px;"">+ 10 points</p>","null","html-keyboard-response","108","563196","0.0-11.0-2.107","6078421a82b88488a16a2b1f","c2bsew","LY","33","F","{""name"":""Chrome"",""chrome"":true,""version"":""106.0"",""blink"":true,""windows"":true,""osname"":""Windows"",""osversion"":""10"",""a"":true}","9:15:24","1","4","Test_1","74","j","1","551.7000000029802","1366 x 768","1366 x 768","true","1","10","","","","",""
"null","<p style=""font-size: 80px;"">+ 10 points</p>","null","html-keyboard-response","109","566474","0.0-11.0-2.108","6078421a82b88488a16a2b1f","c2bsew","LY","33","F","{""name"":""Chrome"",""chrome"":true,""version"":""106.0"",""blink"":true,""windows"":true,""osname"":""Windows"",""osversion"":""10"",""a"":true}","9:15:24","1","4","Test_4","70","f","1","1253.6000000014901","1366 x 768","1366 x 768","true","1","10","","","","",""
"null","<p style=""font-size: 80px;"">+ 10 points</p>","null","html-keyboard-response","110","616206","0.0-11.0-2.109","6078421a82b88488a16a2b1f","c2bsew","LY","33","F","{""name"":""Chrome"",""chrome"":true,""version"":""106.0"",""blink"":true,""windows"":true,""osname"":""Windows"",""osversion"":""10"",""a"":true}","9:15:24","1","4","Test_2","70","f","1","1339.1000000014901","1366 x 768","1366 x 768","true","1","10","","","","",""
"null","<p style=""font-size: 80px;"">+ 10 points</p>","null","html-keyboard-response","111","618776","0.0-11.0-2.110","6078421a82b88488a16a2b1f","c2bsew","LY","33","F","{""name"":""Chrome"",""chrome"":true,""version"":""106.0"",""blink"":true,""windows"":true,""osname"":""Windows"",""osversion"":""10"",""a"":true}","9:15:24","1","4","Test_1","74","j","1","554","1366 x 768","1366 x 768","true","1","10","","","","",""
"null","<p style=""font-size: 80px;"">+ 10 points</p>","null","html-keyboard-response","112","621527","0.0-11.0-2.111","6078421a82b88488a16a2b1f","c2bsew","LY","33","F","{""name"":""Chrome"",""chrome"":true,""version"":""106.0"",""blink"":true,""windows"":true,""osname"":""Windows"",""osversion"":""10"",""a"":true}","9:15:24","1","4","Test_1","74","j","1","729.5999999940395","1366 x 768","1366 x 768","true","1","10","","","","",""
"null","<p style=""font-size: 80px;"">+ 10 points</p>","null","html-keyboard-response","113","624256","0.0-11.0-2.112","6078421a82b88488a16a2b1f","c2bsew","LY","33","F","{""name"":""Chrome"",""chrome"":true,""version"":""106.0"",""blink"":true,""windows"":true,""osname"":""Windows"",""osversion"":""10"",""a"":true}","9:15:24","1","4","Test_2","70","f","1","691.4000000059605","1366 x 768","1366 x 768","true","1","10","","","","",""
"null","<p style=""font-size: 80px;"">+ 10 points</p>","null","html-keyboard-response","114","627160","0.0-11.0-2.113","6078421a82b88488a16a2b1f","c2bsew","LY","33","F","{""name"":""Chrome"",""chrome"":true,""version"":""106.0"",""blink"":true,""windows"":true,""osname"":""Windows"",""osversion"":""10"",""a"":true}","9:15:24","1","4","Test_3","74","j","1","879.8999999985099","1366 x 768","1366 x 768","true","1","10","","","","",""
"null","<p style=""font-size: 80px;"">+ 10 points</p>","null","html-keyboard-response","115","629826","0.0-11.0-2.114","6078421a82b88488a16a2b1f","c2bsew","LY","33","F","{""name"":""Chrome"",""chrome"":true,""version"":""106.0"",""blink"":true,""windows"":true,""osname"":""Windows"",""osversion"":""10"",""a"":true}","9:15:24","1","4","Test_3","74","j","1","653.5","1366 x 768","1366 x 768","true","1","10","","","","",""
"null","<p style=""font-size: 80px;"">+ 10 points</p>","null","html-keyboard-response","116","632509","0.0-11.0-2.115","6078421a82b88488a16a2b1f","c2bsew","LY","33","F","{""name"":""Chrome"",""chrome"":true,""version"":""106.0"",""blink"":true,""windows"":true,""osname"":""Windows"",""osversion"":""10"",""a"":true}","9:15:24","1","4","Test_3","74","j","1","654.5","1366 x 768","1366 x 768","true","1","10","","","","",""
"null","<p style=""font-size: 80px;"">+ 10 points</p>","null","html-keyboard-response","117","635129","0.0-11.0-2.116","6078421a82b88488a16a2b1f","c2bsew","LY","33","F","{""name"":""Chrome"",""chrome"":true,""version"":""106.0"",""blink"":true,""windows"":true,""osname"":""Windows"",""osversion"":""10"",""a"":true}","9:15:24","1","4","Test_4","70","f","1","588.1000000014901","1366 x 768","1366 x 768","true","1","10","","","","",""
"null","<p style=""font-size: 80px;"">+ 10 points</p>","null","html-keyboard-response","118","638393","0.0-11.0-2.117","6078421a82b88488a16a2b1f","c2bsew","LY","33","F","{""name"":""Chrome"",""chrome"":true,""version"":""106.0"",""blink"":true,""windows"":true,""osname"":""Windows"",""osversion"":""10"",""a"":true}","9:15:24","1","4","Test_1","74","j","1","1249.8999999985099","1366 x 768","1366 x 768","true","1","10","","","","",""
"null","<p style=""font-size: 80px;"">+ 10 points</p>","null","html-keyboard-response","119","641111","0.0-11.0-2.118","6078421a82b88488a16a2b1f","c2bsew","LY","33","F","{""name"":""Chrome"",""chrome"":true,""version"":""106.0"",""blink"":true,""windows"":true,""osname"":""Windows"",""osversion"":""10"",""a"":true}","9:15:24","1","3","Test_4","74","j","1","695.3000000044703","1366 x 768","1366 x 768","true","1","10","","","","",""
"null","<p style=""font-size: 80px;"">+ 10 points</p>","null","html-keyboard-response","120","644076","0.0-11.0-2.119","6078421a82b88488a16a2b1f","c2bsew","LY","33","F","{""name"":""Chrome"",""chrome"":true,""version"":""106.0"",""blink"":true,""windows"":true,""osname"":""Windows"",""osversion"":""10"",""a"":true}","9:15:24","1","3","Test_1","70","f","1","936.5","1366 x 768","1366 x 768","true","1","10","","","","",""
"null","<p style=""font-size: 80px;"">+ 10 points</p>","null","html-keyboard-response","121","646853","0.0-11.0-2.120","6078421a82b88488a16a2b1f","c2bsew","LY","33","F","{""name"":""Chrome"",""chrome"":true,""version"":""106.0"",""blink"":true,""windows"":true,""osname"":""Windows"",""osversion"":""10"",""a"":true}","9:15:24","1","3","Test_4","74","j","1","761.6000000014901","1366 x 768","1366 x 768","true","1","10","","","","",""
"null","<p style=""font-size: 80px;"">+ 10 points</p>","null","html-keyboard-response","122","649576","0.0-11.0-2.121","6078421a82b88488a16a2b1f","c2bsew","LY","33","F","{""name"":""Chrome"",""chrome"":true,""version"":""106.0"",""blink"":true,""windows"":true,""osname"":""Windows"",""osversion"":""10"",""a"":true}","9:15:24","1","3","Test_1","70","f","1","703.8999999985099","1366 x 768","1366 x 768","true","1","10","","","","",""
"null","<p style=""font-size: 80px;"">+ 10 points</p>","null","html-keyboard-response","123","652080","0.0-11.0-2.122","6078421a82b88488a16a2b1f","c2bsew","LY","33","F","{""name"":""Chrome"",""chrome"":true,""version"":""106.0"",""blink"":true,""windows"":true,""osname"":""Windows"",""osversion"":""10"",""a"":true}","9:15:24","1","3","Test_4","74","j","1","479.1000000014901","1366 x 768","1366 x 768","true","1","10","","","","",""
"null","<p style=""font-size: 80px;"">+ 10 points</p>","null","html-keyboard-response","124","654790","0.0-11.0-2.123","6078421a82b88488a16a2b1f","c2bsew","LY","33","F","{""name"":""Chrome"",""chrome"":true,""version"":""106.0"",""blink"":true,""windows"":true,""osname"":""Windows"",""osversion"":""10"",""a"":true}","9:15:24","1","3","Test_2","74","j","1","681.8999999985099","1366 x 768","1366 x 768","true","1","10","","","","",""
"null","<p style=""font-size: 80px;"">+ 10 points</p>","null","html-keyboard-response","125","657700","0.0-11.0-2.124","6078421a82b88488a16a2b1f","c2bsew","LY","33","F","{""name"":""Chrome"",""chrome"":true,""version"":""106.0"",""blink"":true,""windows"":true,""osname"":""Windows"",""osversion"":""10"",""a"":true}","9:15:24","1","3","Test_4","74","j","1","878.7999999970198","1366 x 768","1366 x 768","true","1","10","","","","",""
"null","<p style=""font-size: 80px;"">+ 10 points</p>","null","html-keyboard-response","126","660468","0.0-11.0-2.125","6078421a82b88488a16a2b1f","c2bsew","LY","33","F","{""name"":""Chrome"",""chrome"":true,""version"":""106.0"",""blink"":true,""windows"":true,""osname"":""Windows"",""osversion"":""10"",""a"":true}","9:15:24","1","3","Test_1","70","f","1","746.7000000029802","1366 x 768","1366 x 768","true","1","10","","","","",""
"null","<p style=""font-size: 80px;"">+ 10 points</p>","null","html-keyboard-response","127","663132","0.0-11.0-2.126","6078421a82b88488a16a2b1f","c2bsew","LY","33","F","{""name"":""Chrome"",""chrome"":true,""version"":""106.0"",""blink"":true,""windows"":true,""osname"":""Windows"",""osversion"":""10"",""a"":true}","9:15:24","1","3","Test_2","74","j","1","634.8000000044703","1366 x 768","1366 x 768","true","1","10","","","","",""
"null","<p style=""font-size: 80px;"">+ 10 points</p>","null","html-keyboard-response","128","666221","0.0-11.0-2.127","6078421a82b88488a16a2b1f","c2bsew","LY","33","F","{""name"":""Chrome"",""chrome"":true,""version"":""106.0"",""blink"":true,""windows"":true,""osname"":""Windows"",""osversion"":""10"",""a"":true}","9:15:24","1","3","Test_2","74","j","1","1060.5","1366 x 768","1366 x 768","true","1","10","","","","",""
"null","<p style=""font-size: 80px;"">+ 10 points</p>","null","html-keyboard-response","129","669261","0.0-11.0-2.128","6078421a82b88488a16a2b1f","c2bsew","LY","33","F","{""name"":""Chrome"",""chrome"":true,""version"":""106.0"",""blink"":true,""windows"":true,""osname"":""Windows"",""osversion"":""10"",""a"":true}","9:15:24","1","3","Test_3","70","f","1","1018.3999999985099","1366 x 768","1366 x 768","true","1","10","","","","",""
"null","<p style=""font-size: 80px;"">+ 10 points</p>","null","html-keyboard-response","130","672056","0.0-11.0-2.129","6078421a82b88488a16a2b1f","c2bsew","LY","33","F","{""name"":""Chrome"",""chrome"":true,""version"":""106.0"",""blink"":true,""windows"":true,""osname"":""Windows"",""osversion"":""10"",""a"":true}","9:15:24","1","3","Test_3","70","f","1","757","1366 x 768","1366 x 768","true","1","10","","","","",""
"null","<p style=""font-size: 80px;"">+ 0 points</p>","null","html-keyboard-response","131","674752","0.0-11.0-2.130","6078421a82b88488a16a2b1f","c2bsew","LY","33","F","{""name"":""Chrome"",""chrome"":true,""version"":""106.0"",""blink"":true,""windows"":true,""osname"":""Windows"",""osversion"":""10"",""a"":true}","9:15:24","1","3","Test_1","74","f","0","684","1366 x 768","1366 x 768","true","1","0","","","","",""
"null","<p style=""font-size: 80px;"">+ 10 points</p>","null","html-keyboard-response","132","678160","0.0-11.0-2.131","6078421a82b88488a16a2b1f","c2bsew","LY","33","F","{""name"":""Chrome"",""chrome"":true,""version"":""106.0"",""blink"":true,""windows"":true,""osname"":""Windows"",""osversion"":""10"",""a"":true}","9:15:24","1","3","Test_3","70","f","1","1386","1366 x 768","1366 x 768","true","1","10","","","","",""
"null","<p style=""font-size: 80px;"">+ 10 points</p>","null","html-keyboard-response","133","681067","0.0-11.0-2.132","6078421a82b88488a16a2b1f","c2bsew","LY","33","F","{""name"":""Chrome"",""chrome"":true,""version"":""106.0"",""blink"":true,""windows"":true,""osname"":""Windows"",""osversion"":""10"",""a"":true}","9:15:24","1","3","Test_3","70","f","1","873","1366 x 768","1366 x 768","true","1","10","","","","",""
"null","<p style=""font-size: 80px;"">+ 10 points</p>","null","html-keyboard-response","134","684042","0.0-11.0-2.133","6078421a82b88488a16a2b1f","c2bsew","LY","33","F","{""name"":""Chrome"",""chrome"":true,""version"":""106.0"",""blink"":true,""windows"":true,""osname"":""Windows"",""osversion"":""10"",""a"":true}","9:15:24","1","3","Test_2","74","j","1","947","1366 x 768","1366 x 768","true","1","10","","","","",""
"null","<p style=""font-size: 80px;"">+ 0 points</p>","null","html-keyboard-response","135","687087","0.0-11.0-2.134","6078421a82b88488a16a2b1f","c2bsew","LY","33","F","{""name"":""Chrome"",""chrome"":true,""version"":""106.0"",""blink"":true,""windows"":true,""osname"":""Windows"",""osversion"":""10"",""a"":true}","9:15:24","1","4","Test_3","70","j","0","1019.5","1366 x 768","1366 x 768","true","1","0","","","","",""
"null","<p style=""font-size: 80px;"">+ 10 points</p>","null","html-keyboard-response","136","690229","0.0-11.0-2.135","6078421a82b88488a16a2b1f","c2bsew","LY","33","F","{""name"":""Chrome"",""chrome"":true,""version"":""106.0"",""blink"":true,""windows"":true,""osname"":""Windows"",""osversion"":""10"",""a"":true}","9:15:24","1","4","Test_4","70","f","1","1115.5","1366 x 768","1366 x 768","true","1","10","","","","",""
"null","<p style=""font-size: 80px;"">+ 10 points</p>","null","html-keyboard-response","137","693472","0.0-11.0-2.136","6078421a82b88488a16a2b1f","c2bsew","LY","33","F","{""name"":""Chrome"",""chrome"":true,""version"":""106.0"",""blink"":true,""windows"":true,""osname"":""Windows"",""osversion"":""10"",""a"":true}","9:15:24","1","4","Test_4","70","f","1","1217.5","1366 x 768","1366 x 768","true","1","10","","","","",""
"null","<p style=""font-size: 80px;"">+ 10 points</p>","null","html-keyboard-response","138","696430","0.0-11.0-2.137","6078421a82b88488a16a2b1f","c2bsew","LY","33","F","{""name"":""Chrome"",""chrome"":true,""version"":""106.0"",""blink"":true,""windows"":true,""osname"":""Windows"",""osversion"":""10"",""a"":true}","9:15:24","1","4","Test_2","70","f","1","927.2999999970198","1366 x 768","1366 x 768","true","1","10","","","","",""
"null","<p style=""font-size: 80px;"">+ 10 points</p>","null","html-keyboard-response","139","699367","0.0-11.0-2.138","6078421a82b88488a16a2b1f","c2bsew","LY","33","F","{""name"":""Chrome"",""chrome"":true,""version"":""106.0"",""blink"":true,""windows"":true,""osname"":""Windows"",""osversion"":""10"",""a"":true}","9:15:24","1","4","Test_4","70","f","1","913.3999999985099","1366 x 768","1366 x 768","true","1","10","","","","",""
"null","<p style=""font-size: 80px;"">+ 10 points</p>","null","html-keyboard-response","140","702073","0.0-11.0-2.139","6078421a82b88488a16a2b1f","c2bsew","LY","33","F","{""name"":""Chrome"",""chrome"":true,""version"":""106.0"",""blink"":true,""windows"":true,""osname"":""Windows"",""osversion"":""10"",""a"":true}","9:15:24","1","4","Test_2","70","f","1","677.7999999970198","1366 x 768","1366 x 768","true","1","10","","","","",""
"null","<p style=""font-size: 80px;"">+ 10 points</p>","null","html-keyboard-response","141","704777","0.0-11.0-2.140","6078421a82b88488a16a2b1f","c2bsew","LY","33","F","{""name"":""Chrome"",""chrome"":true,""version"":""106.0"",""blink"":true,""windows"":true,""osname"":""Windows"",""osversion"":""10"",""a"":true}","9:15:24","1","4","Test_1","74","j","1","669.8999999985099","1366 x 768","1366 x 768","true","1","10","","","","",""
"null","<p style=""font-size: 80px;"">+ 10 points</p>","null","html-keyboard-response","142","707669","0.0-11.0-2.141","6078421a82b88488a16a2b1f","c2bsew","LY","33","F","{""name"":""Chrome"",""chrome"":true,""version"":""106.0"",""blink"":true,""windows"":true,""osname"":""Windows"",""osversion"":""10"",""a"":true}","9:15:24","1","4","Test_1","74","j","1","845.3999999985099","1366 x 768","1366 x 768","true","1","10","","","","",""
"null","<p style=""font-size: 80px;"">+ 10 points</p>","null","html-keyboard-response","143","710305","0.0-11.0-2.142","6078421a82b88488a16a2b1f","c2bsew","LY","33","F","{""name"":""Chrome"",""chrome"":true,""version"":""106.0"",""blink"":true,""windows"":true,""osname"":""Windows"",""osversion"":""10"",""a"":true}","9:15:24","1","4","Test_2","70","f","1","617.2999999970198","1366 x 768","1366 x 768","true","1","10","","","","",""
"null","<p style=""font-size: 80px;"">+ 10 points</p>","null","html-keyboard-response","144","713355","0.0-11.0-2.143","6078421a82b88488a16a2b1f","c2bsew","LY","33","F","{""name"":""Chrome"",""chrome"":true,""version"":""106.0"",""blink"":true,""windows"":true,""osname"":""Windows"",""osversion"":""10"",""a"":true}","9:15:24","1","4","Test_3","74","j","1","1021.7999999970198","1366 x 768","1366 x 768","true","1","10","","","","",""
"null","<p style=""font-size: 80px;"">+ 10 points</p>","null","html-keyboard-response","145","715927","0.0-11.0-2.144","6078421a82b88488a16a2b1f","c2bsew","LY","33","F","{""name"":""Chrome"",""chrome"":true,""version"":""106.0"",""blink"":true,""windows"":true,""osname"":""Windows"",""osversion"":""10"",""a"":true}","9:15:24","1","4","Test_2","70","f","1","558.8999999985099","1366 x 768","1366 x 768","true","1","10","","","","",""
"null","<p style=""font-size: 80px;"">+ 10 points</p>","null","html-keyboard-response","146","718602","0.0-11.0-2.145","6078421a82b88488a16a2b1f","c2bsew","LY","33","F","{""name"":""Chrome"",""chrome"":true,""version"":""106.0"",""blink"":true,""windows"":true,""osname"":""Windows"",""osversion"":""10"",""a"":true}","9:15:24","1","4","Test_1","74","j","1","633","1366 x 768","1366 x 768","true","1","10","","","","",""
"null","<p style=""font-size: 80px;"">+ 10 points</p>","null","html-keyboard-response","147","721461","0.0-11.0-2.146","6078421a82b88488a16a2b1f","c2bsew","LY","33","F","{""name"":""Chrome"",""chrome"":true,""version"":""106.0"",""blink"":true,""windows"":true,""osname"":""Windows"",""osversion"":""10"",""a"":true}","9:15:24","1","4","Test_3","74","j","1","832.2999999970198","1366 x 768","1366 x 768","true","1","10","","","","",""
"null","<p style=""font-size: 80px;"">+ 10 points</p>","null","html-keyboard-response","148","724214","0.0-11.0-2.147","6078421a82b88488a16a2b1f","c2bsew","LY","33","F","{""name"":""Chrome"",""chrome"":true,""version"":""106.0"",""blink"":true,""windows"":true,""osname"":""Windows"",""osversion"":""10"",""a"":true}","9:15:24","1","4","Test_2","70","f","1","726","1366 x 768","1366 x 768","true","1","10","","","","",""
"null","<p style=""font-size: 80px;"">+ 10 points</p>","null","html-keyboard-response","149","726910","0.0-11.0-2.148","6078421a82b88488a16a2b1f","c2bsew","LY","33","F","{""name"":""Chrome"",""chrome"":true,""version"":""106.0"",""blink"":true,""windows"":true,""osname"":""Windows"",""osversion"":""10"",""a"":true}","9:15:24","1","4","Test_4","70","f","1","679.3000000044703","1366 x 768","1366 x 768","true","1","10","","","","",""
"null","<p style=""font-size: 80px;"">+ 10 points</p>","null","html-keyboard-response","150","729682","0.0-11.0-2.149","6078421a82b88488a16a2b1f","c2bsew","LY","33","F","{""name"":""Chrome"",""chrome"":true,""version"":""106.0"",""blink"":true,""windows"":true,""osname"":""Windows"",""osversion"":""10"",""a"":true}","9:15:24","1","4","Test_3","74","j","1","757.5","1366 x 768","1366 x 768","true","1","10","","","","",""
"null","<p style=""font-size: 80px;"">+ 10 points</p>","null","html-keyboard-response","151","732518","0.0-11.0-2.150","6078421a82b88488a16a2b1f","c2bsew","LY","33","F","{""name"":""Chrome"",""chrome"":true,""version"":""106.0"",""blink"":true,""windows"":true,""osname"":""Windows"",""osversion"":""10"",""a"":true}","9:15:24","1","4","Test_4","70","f","1","814.6000000014901","1366 x 768","1366 x 768","true","1","10","","","","",""
"null","<p style=""font-size: 80px;"">+ 10 points</p>","null","html-keyboard-response","152","735373","0.0-11.0-2.151","6078421a82b88488a16a2b1f","c2bsew","LY","33","F","{""name"":""Chrome"",""chrome"":true,""version"":""106.0"",""blink"":true,""windows"":true,""osname"":""Windows"",""osversion"":""10"",""a"":true}","9:15:24","1","4","Test_1","74","j","1","832.2999999970198","1366 x 768","1366 x 768","true","1","10","","","","",""
"null","<p style=""font-size: 80px;"">+ 10 points</p>","null","html-keyboard-response","153","738250","0.0-11.0-2.152","6078421a82b88488a16a2b1f","c2bsew","LY","33","F","{""name"":""Chrome"",""chrome"":true,""version"":""106.0"",""blink"":true,""windows"":true,""osname"":""Windows"",""osversion"":""10"",""a"":true}","9:15:24","1","4","Test_3","74","j","1","853","1366 x 768","1366 x 768","true","1","10","","","","",""
"null","<p style=""font-size: 80px;"">+ 10 points</p>","null","html-keyboard-response","154","741131","0.0-11.0-2.153","6078421a82b88488a16a2b1f","c2bsew","LY","33","F","{""name"":""Chrome"",""chrome"":true,""version"":""106.0"",""blink"":true,""windows"":true,""osname"":""Windows"",""osversion"":""10"",""a"":true}","9:15:24","1","4","Test_4","70","f","1","848.2999999970198","1366 x 768","1366 x 768","true","1","10","","","","",""
"null","<p style=""font-size: 80px;"">+ 10 points</p>","null","html-keyboard-response","155","744147","0.0-11.0-2.154","6078421a82b88488a16a2b1f","c2bsew","LY","33","F","{""name"":""Chrome"",""chrome"":true,""version"":""106.0"",""blink"":true,""windows"":true,""osname"":""Windows"",""osversion"":""10"",""a"":true}","9:15:24","1","4","Test_1","74","j","1","987.2000000029802","1366 x 768","1366 x 768","true","1","10","","","","",""
"null","<p style=""font-size: 80px;"">+ 0 points</p>","null","html-keyboard-response","156","747082","0.0-11.0-2.155","6078421a82b88488a16a2b1f","c2bsew","LY","33","F","{""name"":""Chrome"",""chrome"":true,""version"":""106.0"",""blink"":true,""windows"":true,""osname"":""Windows"",""osversion"":""10"",""a"":true}","9:15:24","1","3","Test_3","74","f","0","909.2999999970198","1366 x 768","1366 x 768","true","1","0","","","","",""
"null","<p style=""font-size: 80px;"">+ 10 points</p>","null","html-keyboard-response","157","750148","0.0-11.0-2.156","6078421a82b88488a16a2b1f","c2bsew","LY","33","F","{""name"":""Chrome"",""chrome"":true,""version"":""106.0"",""blink"":true,""windows"":true,""osname"":""Windows"",""osversion"":""10"",""a"":true}","9:15:24","1","3","Test_3","70","f","1","1045.5","1366 x 768","1366 x 768","true","1","10","","","","",""
"null","<p style=""font-size: 80px;"">+ 10 points</p>","null","html-keyboard-response","158","753294","0.0-11.0-2.157","6078421a82b88488a16a2b1f","c2bsew","LY","33","F","{""name"":""Chrome"",""chrome"":true,""version"":""106.0"",""blink"":true,""windows"":true,""osname"":""Windows"",""osversion"":""10"",""a"":true}","9:15:24","1","3","Test_2","74","j","1","1123.8999999985099","1366 x 768","1366 x 768","true","1","10","","","","",""
"null","<p style=""font-size: 80px;"">+ 0 points</p>","null","html-keyboard-response","159","756204","0.0-11.0-2.158","6078421a82b88488a16a2b1f","c2bsew","LY","33","F","{""name"":""Chrome"",""chrome"":true,""version"":""106.0"",""blink"":true,""windows"":true,""osname"":""Windows"",""osversion"":""10"",""a"":true}","9:15:24","1","3","Test_3","74","f","0","892.1000000014901","1366 x 768","1366 x 768","true","1","0","","","","",""
"null","<p style=""font-size: 80px;"">+ 10 points</p>","null","html-keyboard-response","160","759908","0.0-11.0-2.159","6078421a82b88488a16a2b1f","c2bsew","LY","33","F","{""name"":""Chrome"",""chrome"":true,""version"":""106.0"",""blink"":true,""windows"":true,""osname"":""Windows"",""osversion"":""10"",""a"":true}","9:15:24","1","3","Test_1","70","f","1","1677.4000000059605","1366 x 768","1366 x 768","true","1","10","","","","",""
"null","<p style=""font-size: 80px;"">+ 10 points</p>","null","html-keyboard-response","161","762902","0.0-11.0-2.160","6078421a82b88488a16a2b1f","c2bsew","LY","33","F","{""name"":""Chrome"",""chrome"":true,""version"":""106.0"",""blink"":true,""windows"":true,""osname"":""Windows"",""osversion"":""10"",""a"":true}","9:15:24","1","3","Test_4","74","j","1","976.0999999940395","1366 x 768","1366 x 768","true","1","10","","","","",""
"null","<p style=""font-size: 80px;"">+ 10 points</p>","null","html-keyboard-response","162","765694","0.0-11.0-2.161","6078421a82b88488a16a2b1f","c2bsew","LY","33","F","{""name"":""Chrome"",""chrome"":true,""version"":""106.0"",""blink"":true,""windows"":true,""osname"":""Windows"",""osversion"":""10"",""a"":true}","9:15:24","1","3","Test_1","70","f","1","773.7999999970198","1366 x 768","1366 x 768","true","1","10","","","","",""
"null","<p style=""font-size: 80px;"">+ 10 points</p>","null","html-keyboard-response","163","768529","0.0-11.0-2.162","6078421a82b88488a16a2b1f","c2bsew","LY","33","F","{""name"":""Chrome"",""chrome"":true,""version"":""106.0"",""blink"":true,""windows"":true,""osname"":""Windows"",""osversion"":""10"",""a"":true}","9:15:24","1","3","Test_2","74","j","1","800.7999999970198","1366 x 768","1366 x 768","true","1","10","","","","",""
"null","<p style=""font-size: 80px;"">+ 10 points</p>","null","html-keyboard-response","164","771801","0.0-11.0-2.163","6078421a82b88488a16a2b1f","c2bsew","LY","33","F","{""name"":""Chrome"",""chrome"":true,""version"":""106.0"",""blink"":true,""windows"":true,""osname"":""Windows"",""osversion"":""10"",""a"":true}","9:15:24","1","3","Test_2","74","j","1","1248.8999999985099","1366 x 768","1366 x 768","true","1","10","","","","",""
"null","<p style=""font-size: 80px;"">+ 10 points</p>","null","html-keyboard-response","165","774651","0.0-11.0-2.164","6078421a82b88488a16a2b1f","c2bsew","LY","33","F","{""name"":""Chrome"",""chrome"":true,""version"":""106.0"",""blink"":true,""windows"":true,""osname"":""Windows"",""osversion"":""10"",""a"":true}","9:15:24","1","3","Test_2","74","j","1","815.5","1366 x 768","1366 x 768","true","1","10","","","","",""
"null","<p style=""font-size: 80px;"">+ 10 points</p>","null","html-keyboard-response","166","777760","0.0-11.0-2.165","6078421a82b88488a16a2b1f","c2bsew","LY","33","F","{""name"":""Chrome"",""chrome"":true,""version"":""106.0"",""blink"":true,""windows"":true,""osname"":""Windows"",""osversion"":""10"",""a"":true}","9:15:24","1","3","Test_1","70","f","1","1078.1000000014901","1366 x 768","1366 x 768","true","1","10","","","","",""
"null","<p style=""font-size: 80px;"">+ 10 points</p>","null","html-keyboard-response","167","780430","0.0-11.0-2.166","6078421a82b88488a16a2b1f","c2bsew","LY","33","F","{""name"":""Chrome"",""chrome"":true,""version"":""106.0"",""blink"":true,""windows"":true,""osname"":""Windows"",""osversion"":""10"",""a"":true}","9:15:24","1","3","Test_4","74","j","1","639.8999999985099","1366 x 768","1366 x 768","true","1","10","","","","",""
"null","<p style=""font-size: 80px;"">+ 10 points</p>","null","html-keyboard-response","168","783124","0.0-11.0-2.167","6078421a82b88488a16a2b1f","c2bsew","LY","33","F","{""name"":""Chrome"",""chrome"":true,""version"":""106.0"",""blink"":true,""windows"":true,""osname"":""Windows"",""osversion"":""10"",""a"":true}","9:15:24","1","3","Test_4","74","j","1","672.3999999985099","1366 x 768","1366 x 768","true","1","10","","","","",""
"null","<p style=""font-size: 80px;"">+ 10 points</p>","null","html-keyboard-response","169","785779","0.0-11.0-2.168","6078421a82b88488a16a2b1f","c2bsew","LY","33","F","{""name"":""Chrome"",""chrome"":true,""version"":""106.0"",""blink"":true,""windows"":true,""osname"":""Windows"",""osversion"":""10"",""a"":true}","9:15:24","1","3","Test_1","70","f","1","641.1000000014901","1366 x 768","1366 x 768","true","1","10","","","","",""
"null","<p style=""font-size: 80px;"">+ 10 points</p>","null","html-keyboard-response","170","788511","0.0-11.0-2.169","6078421a82b88488a16a2b1f","c2bsew","LY","33","F","{""name"":""Chrome"",""chrome"":true,""version"":""106.0"",""blink"":true,""windows"":true,""osname"":""Windows"",""osversion"":""10"",""a"":true}","9:15:24","1","3","Test_3","70","f","1","704.7000000029802","1366 x 768","1366 x 768","true","1","10","","","","",""
"null","<p style=""font-size: 80px;"">+ 0 points</p>","null","html-keyboard-response","171","791366","0.0-11.0-2.170","6078421a82b88488a16a2b1f","c2bsew","LY","33","F","{""name"":""Chrome"",""chrome"":true,""version"":""106.0"",""blink"":true,""windows"":true,""osname"":""Windows"",""osversion"":""10"",""a"":true}","9:15:24","1","4","Test_3","70","j","0","829.8000000044703","1366 x 768","1366 x 768","true","1","0","","","","",""
"null","<p style=""font-size: 80px;"">+ 10 points</p>","null","html-keyboard-response","172","795505","0.0-11.0-2.171","6078421a82b88488a16a2b1f","c2bsew","LY","33","F","{""name"":""Chrome"",""chrome"":true,""version"":""106.0"",""blink"":true,""windows"":true,""osname"":""Windows"",""osversion"":""10"",""a"":true}","9:15:24","1","4","Test_1","74","j","1","2109.7999999970198","1366 x 768","1366 x 768","true","1","10","","","","",""
"null","<p style=""font-size: 80px;"">+ 10 points</p>","null","html-keyboard-response","173","798019","0.0-11.0-2.172","6078421a82b88488a16a2b1f","c2bsew","LY","33","F","{""name"":""Chrome"",""chrome"":true,""version"":""106.0"",""blink"":true,""windows"":true,""osname"":""Windows"",""osversion"":""10"",""a"":true}","9:15:24","1","4","Test_2","70","f","1","494.6000000014901","1366 x 768","1366 x 768","true","1","10","","","","",""
"null","<p style=""font-size: 80px;"">+ 10 points</p>","null","html-keyboard-response","174","800930","0.0-11.0-2.173","6078421a82b88488a16a2b1f","c2bsew","LY","33","F","{""name"":""Chrome"",""chrome"":true,""version"":""106.0"",""blink"":true,""windows"":true,""osname"":""Windows"",""osversion"":""10"",""a"":true}","9:15:24","1","4","Test_3","74","j","1","884.1000000014901","1366 x 768","1366 x 768","true","1","10","","","","",""
"null","<p style=""font-size: 80px;"">+ 10 points</p>","null","html-keyboard-response","175","803563","0.0-11.0-2.174","6078421a82b88488a16a2b1f","c2bsew","LY","33","F","{""name"":""Chrome"",""chrome"":true,""version"":""106.0"",""blink"":true,""windows"":true,""osname"":""Windows"",""osversion"":""10"",""a"":true}","9:15:24","1","4","Test_3","74","j","1","610.3999999985099","1366 x 768","1366 x 768","true","1","10","","","","",""
"null","<p style=""font-size: 80px;"">+ 10 points</p>","null","html-keyboard-response","176","806343","0.0-11.0-2.175","6078421a82b88488a16a2b1f","c2bsew","LY","33","F","{""name"":""Chrome"",""chrome"":true,""version"":""106.0"",""blink"":true,""windows"":true,""osname"":""Windows"",""osversion"":""10"",""a"":true}","9:15:24","1","4","Test_1","74","j","1","752","1366 x 768","1366 x 768","true","1","10","","","","",""
"null","<p style=""font-size: 80px;"">+ 10 points</p>","null","html-keyboard-response","177","809480","0.0-11.0-2.176","6078421a82b88488a16a2b1f","c2bsew","LY","33","F","{""name"":""Chrome"",""chrome"":true,""version"":""106.0"",""blink"":true,""windows"":true,""osname"":""Windows"",""osversion"":""10"",""a"":true}","9:15:24","1","4","Test_4","70","f","1","1121.6000000014901","1366 x 768","1366 x 768","true","1","10","","","","",""
"null","<p style=""font-size: 80px;"">+ 10 points</p>","null","html-keyboard-response","178","812341","0.0-11.0-2.177","6078421a82b88488a16a2b1f","c2bsew","LY","33","F","{""name"":""Chrome"",""chrome"":true,""version"":""106.0"",""blink"":true,""windows"":true,""osname"":""Windows"",""osversion"":""10"",""a"":true}","9:15:24","1","4","Test_4","70","f","1","837.3000000044703","1366 x 768","1366 x 768","true","1","10","","","","",""
"null","<p style=""font-size: 80px;"">+ 10 points</p>","null","html-keyboard-response","179","815127","0.0-11.0-2.178","6078421a82b88488a16a2b1f","c2bsew","LY","33","F","{""name"":""Chrome"",""chrome"":true,""version"":""106.0"",""blink"":true,""windows"":true,""osname"":""Windows"",""osversion"":""10"",""a"":true}","9:15:24","1","4","Test_3","74","j","1","758.7999999970198","1366 x 768","1366 x 768","true","1","10","","","","",""
"null","<p style=""font-size: 80px;"">+ 10 points</p>","null","html-keyboard-response","180","817743","0.0-11.0-2.179","6078421a82b88488a16a2b1f","c2bsew","LY","33","F","{""name"":""Chrome"",""chrome"":true,""version"":""106.0"",""blink"":true,""windows"":true,""osname"":""Windows"",""osversion"":""10"",""a"":true}","9:15:24","1","4","Test_3","74","j","1","584.8000000044703","1366 x 768","1366 x 768","true","1","10","","","","",""
"null","<p style=""font-size: 80px;"">+ 10 points</p>","null","html-keyboard-response","181","820397","0.0-11.0-2.180","6078421a82b88488a16a2b1f","c2bsew","LY","33","F","{""name"":""Chrome"",""chrome"":true,""version"":""106.0"",""blink"":true,""windows"":true,""osname"":""Windows"",""osversion"":""10"",""a"":true}","9:15:24","1","4","Test_1","74","j","1","630.6000000014901","1366 x 768","1366 x 768","true","1","10","","","","",""
"null","<p style=""font-size: 80px;"">+ 10 points</p>","null","html-keyboard-response","182","822961","0.0-11.0-2.181","6078421a82b88488a16a2b1f","c2bsew","LY","33","F","{""name"":""Chrome"",""chrome"":true,""version"":""106.0"",""blink"":true,""windows"":true,""osname"":""Windows"",""osversion"":""10"",""a"":true}","9:15:24","1","4","Test_2","70","f","1","544","1366 x 768","1366 x 768","true","1","10","","","","",""
"null","<p style=""font-size: 80px;"">+ 10 points</p>","null","html-keyboard-response","183","825609","0.0-11.0-2.182","6078421a82b88488a16a2b1f","c2bsew","LY","33","F","{""name"":""Chrome"",""chrome"":true,""version"":""106.0"",""blink"":true,""windows"":true,""osname"":""Windows"",""osversion"":""10"",""a"":true}","9:15:24","1","4","Test_1","74","j","1","631.8999999985099","1366 x 768","1366 x 768","true","1","10","","","","",""
"null","<p style=""font-size: 80px;"">+ 10 points</p>","null","html-keyboard-response","184","828524","0.0-11.0-2.183","6078421a82b88488a16a2b1f","c2bsew","LY","33","F","{""name"":""Chrome"",""chrome"":true,""version"":""106.0"",""blink"":true,""windows"":true,""osname"":""Windows"",""osversion"":""10"",""a"":true}","9:15:24","1","4","Test_4","70","f","1","878.6999999955297","1366 x 768","1366 x 768","true","1","10","","","","",""
"null","<p style=""font-size: 80px;"">+ 10 points</p>","null","html-keyboard-response","185","831103","0.0-11.0-2.184","6078421a82b88488a16a2b1f","c2bsew","LY","33","F","{""name"":""Chrome"",""chrome"":true,""version"":""106.0"",""blink"":true,""windows"":true,""osname"":""Windows"",""osversion"":""10"",""a"":true}","9:15:24","1","4","Test_2","70","f","1","563.5","1366 x 768","1366 x 768","true","1","10","","","","",""
"null","<p style=""font-size: 80px;"">+ 10 points</p>","null","html-keyboard-response","186","833700","0.0-11.0-2.185","6078421a82b88488a16a2b1f","c2bsew","LY","33","F","{""name"":""Chrome"",""chrome"":true,""version"":""106.0"",""blink"":true,""windows"":true,""osname"":""Windows"",""osversion"":""10"",""a"":true}","9:15:24","1","4","Test_4","70","f","1","581","1366 x 768","1366 x 768","true","1","10","","","","",""
"null","<p style=""font-size: 80px;"">+ 10 points</p>","null","html-keyboard-response","187","836956","0.0-11.0-2.186","6078421a82b88488a16a2b1f","c2bsew","LY","33","F","{""name"":""Chrome"",""chrome"":true,""version"":""106.0"",""blink"":true,""windows"":true,""osname"":""Windows"",""osversion"":""10"",""a"":true}","9:15:24","1","4","Test_4","70","f","1","1233.1000000014901","1366 x 768","1366 x 768","true","1","10","","","","",""
"null","<p style=""font-size: 80px;"">+ 10 points</p>","null","html-keyboard-response","188","839618","0.0-11.0-2.187","6078421a82b88488a16a2b1f","c2bsew","LY","33","F","{""name"":""Chrome"",""chrome"":true,""version"":""106.0"",""blink"":true,""windows"":true,""osname"":""Windows"",""osversion"":""10"",""a"":true}","9:15:24","1","4","Test_2","70","f","1","631.2000000029802","1366 x 768","1366 x 768","true","1","10","","","","",""
"null","<p style=""font-size: 80px;"">+ 10 points</p>","null","html-keyboard-response","189","842329","0.0-11.0-2.188","6078421a82b88488a16a2b1f","c2bsew","LY","33","F","{""name"":""Chrome"",""chrome"":true,""version"":""106.0"",""blink"":true,""windows"":true,""osname"":""Windows"",""osversion"":""10"",""a"":true}","9:15:24","1","4","Test_1","74","j","1","697.8999999985099","1366 x 768","1366 x 768","true","1","10","","","","",""
