"rt","stimulus","key_press","trial_type","trial_index","time_elapsed","internal_node_id","Prolific_ID","random_ID","initials","age","gender","pc_info","start_time","Phase","Rule","Stimulus","Response","CorrResp","Accuracy","ResponseTime","screen_resolution","window_resolution","focus","relevant","Points","responses","question_order","rev_check","butterfly_check","passed_practice"
"null","<p style=""font-size: 80px;"">+ 10 points</p>","null","html-keyboard-response","1","102685","0.0-7.0-2.0","5c3512d27ab36100015bd89a","hvk4yh","SRL","47","F","{""name"":""Chrome"",""osname"":""Chrome OS"",""chromeos"":true,""chromeBook"":true,""chrome"":true,""version"":""105.0"",""blink"":true,""a"":true}","9:22:49","0","1","Practice_1","70","f","1","1278.699999999255","1536 x 864","1536 x 864","true","1","10","","","","",""
"null","<p style=""font-size: 80px;"">+ 10 points</p>","null","html-keyboard-response","2","105972","0.0-7.0-2.1","5c3512d27ab36100015bd89a","hvk4yh","SRL","47","F","{""name"":""Chrome"",""osname"":""Chrome OS"",""chromeos"":true,""chromeBook"":true,""chrome"":true,""version"":""105.0"",""blink"":true,""a"":true}","9:22:49","0","1","Practice_2","74","j","1","1282.8999999985099","1536 x 864","1536 x 864","true","1","10","","","","",""
"null","<p style=""font-size: 80px;"">+ 0 points</p>","null","html-keyboard-response","3","108956","0.0-7.0-2.2","5c3512d27ab36100015bd89a","hvk4yh","SRL","47","F","{""name"":""Chrome"",""osname"":""Chrome OS"",""chromeos"":true,""chromeBook"":true,""chrome"":true,""version"":""105.0"",""blink"":true,""a"":true}","9:22:49","0","1","Practice_3","74","f","0","980.5","1536 x 864","1536 x 864","true","1","0","","","","",""
"null","<p style=""font-size: 80px;"">+ 10 points</p>","null","html-keyboard-response","4","113115","0.0-7.0-2.3","5c3512d27ab36100015bd89a","hvk4yh","SRL","47","F","{""name"":""Chrome"",""osname"":""Chrome OS"",""chromeos"":true,""chromeBook"":true,""chrome"":true,""version"":""105.0"",""blink"":true,""a"":true}","9:22:49","0","1","Practice_1","70","f","1","2154.099999997765","1536 x 864","1536 x 864","true","1","10","","","","",""
"null","<p style=""font-size: 80px;"">+ 10 points</p>","null","html-keyboard-response","5","116425","0.0-7.0-2.4","5c3512d27ab36100015bd89a","hvk4yh","SRL","47","F","{""name"":""Chrome"",""osname"":""Chrome OS"",""chromeos"":true,""chromeBook"":true,""chrome"":true,""version"":""105.0"",""blink"":true,""a"":true}","9:22:49","0","1","Practice_3","70","f","1","1305.800000000745","1536 x 864","1536 x 864","true","1","10","","","","",""
"null","<p style=""font-size: 80px;"">+ 10 points</p>","null","html-keyboard-response","6","120106","0.0-7.0-2.5","5c3512d27ab36100015bd89a","hvk4yh","SRL","47","F","{""name"":""Chrome"",""osname"":""Chrome OS"",""chromeos"":true,""chromeBook"":true,""chrome"":true,""version"":""105.0"",""blink"":true,""a"":true}","9:22:49","0","1","Practice_4","74","j","1","1676.8999999985099","1536 x 864","1536 x 864","true","1","10","","","","",""
"null","<p style=""font-size: 80px;"">+ 10 points</p>","null","html-keyboard-response","7","123499","0.0-7.0-2.6","5c3512d27ab36100015bd89a","hvk4yh","SRL","47","F","{""name"":""Chrome"",""osname"":""Chrome OS"",""chromeos"":true,""chromeBook"":true,""chrome"":true,""version"":""105.0"",""blink"":true,""a"":true}","9:22:49","0","1","Practice_3","70","f","1","1389.3999999985099","1536 x 864","1536 x 864","true","1","10","","","","",""
"null","<p style=""font-size: 80px;"">+ 10 points</p>","null","html-keyboard-response","8","126644","0.0-7.0-2.7","5c3512d27ab36100015bd89a","hvk4yh","SRL","47","F","{""name"":""Chrome"",""osname"":""Chrome OS"",""chromeos"":true,""chromeBook"":true,""chrome"":true,""version"":""105.0"",""blink"":true,""a"":true}","9:22:49","0","1","Practice_2","74","j","1","1141","1536 x 864","1536 x 864","true","1","10","","","","",""
"null","<p style=""font-size: 80px;"">+ 10 points</p>","null","html-keyboard-response","9","129441","0.0-7.0-2.8","5c3512d27ab36100015bd89a","hvk4yh","SRL","47","F","{""name"":""Chrome"",""osname"":""Chrome OS"",""chromeos"":true,""chromeBook"":true,""chrome"":true,""version"":""105.0"",""blink"":true,""a"":true}","9:22:49","0","1","Practice_2","74","j","1","793","1536 x 864","1536 x 864","true","1","10","","","","",""
"null","<p style=""font-size: 80px;"">+ 10 points</p>","null","html-keyboard-response","10","132094","0.0-7.0-2.9","5c3512d27ab36100015bd89a","hvk4yh","SRL","47","F","{""name"":""Chrome"",""osname"":""Chrome OS"",""chromeos"":true,""chromeBook"":true,""chrome"":true,""version"":""105.0"",""blink"":true,""a"":true}","9:22:49","0","1","Practice_2","74","j","1","648.7999999970198","1536 x 864","1536 x 864","true","1","10","","","","",""
"null","<p style=""font-size: 80px;"">+ 0 points</p>","null","html-keyboard-response","11","135030","0.0-7.0-2.10","5c3512d27ab36100015bd89a","hvk4yh","SRL","47","F","{""name"":""Chrome"",""osname"":""Chrome OS"",""chromeos"":true,""chromeBook"":true,""chrome"":true,""version"":""105.0"",""blink"":true,""a"":true}","9:22:49","0","1","Practice_4","70","j","0","932.0999999977648","1536 x 864","1536 x 864","true","1","0","","","","",""
"null","<p style=""font-size: 80px;"">+ 10 points</p>","null","html-keyboard-response","12","137776","0.0-7.0-2.11","5c3512d27ab36100015bd89a","hvk4yh","SRL","47","F","{""name"":""Chrome"",""osname"":""Chrome OS"",""chromeos"":true,""chromeBook"":true,""chrome"":true,""version"":""105.0"",""blink"":true,""a"":true}","9:22:49","0","1","Practice_4","74","j","1","741.7999999970198","1536 x 864","1536 x 864","true","1","10","","","","",""
"null","<p style=""font-size: 80px;"">+ 10 points</p>","null","html-keyboard-response","13","140596","0.0-7.0-2.12","5c3512d27ab36100015bd89a","hvk4yh","SRL","47","F","{""name"":""Chrome"",""osname"":""Chrome OS"",""chromeos"":true,""chromeBook"":true,""chrome"":true,""version"":""105.0"",""blink"":true,""a"":true}","9:22:49","0","1","Practice_3","70","f","1","816","1536 x 864","1536 x 864","true","1","10","","","","",""
"null","<p style=""font-size: 80px;"">+ 10 points</p>","null","html-keyboard-response","14","143319","0.0-7.0-2.13","5c3512d27ab36100015bd89a","hvk4yh","SRL","47","F","{""name"":""Chrome"",""osname"":""Chrome OS"",""chromeos"":true,""chromeBook"":true,""chrome"":true,""version"":""105.0"",""blink"":true,""a"":true}","9:22:49","0","1","Practice_3","70","f","1","719.2999999970198","1536 x 864","1536 x 864","true","1","10","","","","",""
"null","<p style=""font-size: 80px;"">+ 10 points</p>","null","html-keyboard-response","15","146370","0.0-7.0-2.14","5c3512d27ab36100015bd89a","hvk4yh","SRL","47","F","{""name"":""Chrome"",""osname"":""Chrome OS"",""chromeos"":true,""chromeBook"":true,""chrome"":true,""version"":""105.0"",""blink"":true,""a"":true}","9:22:49","0","1","Practice_1","70","f","1","1047.0999999977648","1536 x 864","1536 x 864","true","1","10","","","","",""
"null","<p style=""font-size: 80px;"">+ 10 points</p>","null","html-keyboard-response","16","149007","0.0-7.0-2.15","5c3512d27ab36100015bd89a","hvk4yh","SRL","47","F","{""name"":""Chrome"",""osname"":""Chrome OS"",""chromeos"":true,""chromeBook"":true,""chrome"":true,""version"":""105.0"",""blink"":true,""a"":true}","9:22:49","0","1","Practice_4","74","j","1","633.3000000007451","1536 x 864","1536 x 864","true","1","10","","","","",""
"null","<p style=""font-size: 80px;"">+ 10 points</p>","null","html-keyboard-response","17","151768","0.0-7.0-2.16","5c3512d27ab36100015bd89a","hvk4yh","SRL","47","F","{""name"":""Chrome"",""osname"":""Chrome OS"",""chromeos"":true,""chromeBook"":true,""chrome"":true,""version"":""105.0"",""blink"":true,""a"":true}","9:22:49","0","1","Practice_1","70","f","1","757","1536 x 864","1536 x 864","true","1","10","","","","",""
"null","<p style=""font-size: 80px;"">+ 10 points</p>","null","html-keyboard-response","18","154551","0.0-7.0-2.17","5c3512d27ab36100015bd89a","hvk4yh","SRL","47","F","{""name"":""Chrome"",""osname"":""Chrome OS"",""chromeos"":true,""chromeBook"":true,""chrome"":true,""version"":""105.0"",""blink"":true,""a"":true}","9:22:49","0","1","Practice_2","74","j","1","778.1000000014901","1536 x 864","1536 x 864","true","1","10","","","","",""
"null","<p style=""font-size: 80px;"">+ 10 points</p>","null","html-keyboard-response","19","157279","0.0-7.0-2.18","5c3512d27ab36100015bd89a","hvk4yh","SRL","47","F","{""name"":""Chrome"",""osname"":""Chrome OS"",""chromeos"":true,""chromeBook"":true,""chrome"":true,""version"":""105.0"",""blink"":true,""a"":true}","9:22:49","0","1","Practice_4","74","j","1","723.6000000014901","1536 x 864","1536 x 864","true","1","10","","","","",""
"null","<p style=""font-size: 80px;"">+ 10 points</p>","null","html-keyboard-response","20","159930","0.0-7.0-2.19","5c3512d27ab36100015bd89a","hvk4yh","SRL","47","F","{""name"":""Chrome"",""osname"":""Chrome OS"",""chromeos"":true,""chromeBook"":true,""chrome"":true,""version"":""105.0"",""blink"":true,""a"":true}","9:22:49","0","1","Practice_1","70","f","1","647.5999999977648","1536 x 864","1536 x 864","true","1","10","","","","",""
"null","<p style=""font-size: 80px;"">+ 0 points</p>","null","html-keyboard-response","21","162711","0.0-7.0-2.20","5c3512d27ab36100015bd89a","hvk4yh","SRL","47","F","{""name"":""Chrome"",""osname"":""Chrome OS"",""chromeos"":true,""chromeBook"":true,""chrome"":true,""version"":""105.0"",""blink"":true,""a"":true}","9:22:49","0","2","Practice_2","74","f","0","775.9000000022352","1536 x 864","1536 x 864","true","1","0","","","","",""
"null","<p style=""font-size: 80px;"">+ 10 points</p>","null","html-keyboard-response","22","165332","0.0-7.0-2.21","5c3512d27ab36100015bd89a","hvk4yh","SRL","47","F","{""name"":""Chrome"",""osname"":""Chrome OS"",""chromeos"":true,""chromeBook"":true,""chrome"":true,""version"":""105.0"",""blink"":true,""a"":true}","9:22:49","0","2","Practice_3","74","j","1","617.1000000014901","1536 x 864","1536 x 864","true","1","10","","","","",""
"null","<p style=""font-size: 80px;"">+ 0 points</p>","null","html-keyboard-response","23","168071","0.0-7.0-2.22","5c3512d27ab36100015bd89a","hvk4yh","SRL","47","F","{""name"":""Chrome"",""osname"":""Chrome OS"",""chromeos"":true,""chromeBook"":true,""chrome"":true,""version"":""105.0"",""blink"":true,""a"":true}","9:22:49","0","2","Practice_4","74","f","0","734.8000000007451","1536 x 864","1536 x 864","true","1","0","","","","",""
"null","<p style=""font-size: 80px;"">+ 10 points</p>","null","html-keyboard-response","24","170821","0.0-7.0-2.23","5c3512d27ab36100015bd89a","hvk4yh","SRL","47","F","{""name"":""Chrome"",""osname"":""Chrome OS"",""chromeos"":true,""chromeBook"":true,""chrome"":true,""version"":""105.0"",""blink"":true,""a"":true}","9:22:49","0","2","Practice_3","74","j","1","746.8999999985099","1536 x 864","1536 x 864","true","1","10","","","","",""
"null","<p style=""font-size: 80px;"">+ 10 points</p>","null","html-keyboard-response","25","173689","0.0-7.0-2.24","5c3512d27ab36100015bd89a","hvk4yh","SRL","47","F","{""name"":""Chrome"",""osname"":""Chrome OS"",""chromeos"":true,""chromeBook"":true,""chrome"":true,""version"":""105.0"",""blink"":true,""a"":true}","9:22:49","0","2","Practice_2","70","f","1","864.3000000007451","1536 x 864","1536 x 864","true","1","10","","","","",""
"null","<p style=""font-size: 80px;"">+ 10 points</p>","null","html-keyboard-response","26","176411","0.0-7.0-2.25","5c3512d27ab36100015bd89a","hvk4yh","SRL","47","F","{""name"":""Chrome"",""osname"":""Chrome OS"",""chromeos"":true,""chromeBook"":true,""chrome"":true,""version"":""105.0"",""blink"":true,""a"":true}","9:22:49","0","2","Practice_3","74","j","1","717.6999999992549","1536 x 864","1536 x 864","true","1","10","","","","",""
"null","<p style=""font-size: 80px;"">+ 10 points</p>","null","html-keyboard-response","27","179081","0.0-7.0-2.26","5c3512d27ab36100015bd89a","hvk4yh","SRL","47","F","{""name"":""Chrome"",""osname"":""Chrome OS"",""chromeos"":true,""chromeBook"":true,""chrome"":true,""version"":""105.0"",""blink"":true,""a"":true}","9:22:49","0","2","Practice_4","70","f","1","666.4000000022352","1536 x 864","1536 x 864","true","1","10","","","","",""
"null","<p style=""font-size: 80px;"">+ 10 points</p>","null","html-keyboard-response","28","181818","0.0-7.0-2.27","5c3512d27ab36100015bd89a","hvk4yh","SRL","47","F","{""name"":""Chrome"",""osname"":""Chrome OS"",""chromeos"":true,""chromeBook"":true,""chrome"":true,""version"":""105.0"",""blink"":true,""a"":true}","9:22:49","0","2","Practice_4","70","f","1","732.7000000029802","1536 x 864","1536 x 864","true","1","10","","","","",""
"null","<p style=""font-size: 80px;"">+ 10 points</p>","null","html-keyboard-response","29","184391","0.0-7.0-2.28","5c3512d27ab36100015bd89a","hvk4yh","SRL","47","F","{""name"":""Chrome"",""osname"":""Chrome OS"",""chromeos"":true,""chromeBook"":true,""chrome"":true,""version"":""105.0"",""blink"":true,""a"":true}","9:22:49","0","2","Practice_1","74","j","1","568.6999999992549","1536 x 864","1536 x 864","true","1","10","","","","",""
"null","<p style=""font-size: 80px;"">+ 10 points</p>","null","html-keyboard-response","30","187436","0.0-7.0-2.29","5c3512d27ab36100015bd89a","hvk4yh","SRL","47","F","{""name"":""Chrome"",""osname"":""Chrome OS"",""chromeos"":true,""chromeBook"":true,""chrome"":true,""version"":""105.0"",""blink"":true,""a"":true}","9:22:49","0","2","Practice_3","74","j","1","1040.8999999985099","1536 x 864","1536 x 864","true","1","10","","","","",""
"null","<p style=""font-size: 80px;"">+ 10 points</p>","null","html-keyboard-response","31","190055","0.0-7.0-2.30","5c3512d27ab36100015bd89a","hvk4yh","SRL","47","F","{""name"":""Chrome"",""osname"":""Chrome OS"",""chromeos"":true,""chromeBook"":true,""chrome"":true,""version"":""105.0"",""blink"":true,""a"":true}","9:22:49","0","2","Practice_2","70","f","1","615.3000000007451","1536 x 864","1536 x 864","true","1","10","","","","",""
"null","<p style=""font-size: 80px;"">+ 10 points</p>","null","html-keyboard-response","32","193056","0.0-7.0-2.31","5c3512d27ab36100015bd89a","hvk4yh","SRL","47","F","{""name"":""Chrome"",""osname"":""Chrome OS"",""chromeos"":true,""chromeBook"":true,""chrome"":true,""version"":""105.0"",""blink"":true,""a"":true}","9:22:49","0","2","Practice_4","70","f","1","996.6999999992549","1536 x 864","1536 x 864","true","1","10","","","","",""
"null","<p style=""font-size: 80px;"">+ 0 points</p>","null","html-keyboard-response","33","195564","0.0-7.0-2.32","5c3512d27ab36100015bd89a","hvk4yh","SRL","47","F","{""name"":""Chrome"",""osname"":""Chrome OS"",""chromeos"":true,""chromeBook"":true,""chrome"":true,""version"":""105.0"",""blink"":true,""a"":true}","9:22:49","0","2","Practice_2","74","f","0","504.70000000298023","1536 x 864","1536 x 864","true","1","0","","","","",""
"null","<p style=""font-size: 80px;"">+ 10 points</p>","null","html-keyboard-response","34","198130","0.0-7.0-2.33","5c3512d27ab36100015bd89a","hvk4yh","SRL","47","F","{""name"":""Chrome"",""osname"":""Chrome OS"",""chromeos"":true,""chromeBook"":true,""chrome"":true,""version"":""105.0"",""blink"":true,""a"":true}","9:22:49","0","2","Practice_2","70","f","1","561","1536 x 864","1536 x 864","true","1","10","","","","",""
"null","<p style=""font-size: 80px;"">+ 10 points</p>","null","html-keyboard-response","35","200786","0.0-7.0-2.34","5c3512d27ab36100015bd89a","hvk4yh","SRL","47","F","{""name"":""Chrome"",""osname"":""Chrome OS"",""chromeos"":true,""chromeBook"":true,""chrome"":true,""version"":""105.0"",""blink"":true,""a"":true}","9:22:49","0","2","Practice_3","74","j","1","652.5","1536 x 864","1536 x 864","true","1","10","","","","",""
"null","<p style=""font-size: 80px;"">+ 10 points</p>","null","html-keyboard-response","36","203519","0.0-7.0-2.35","5c3512d27ab36100015bd89a","hvk4yh","SRL","47","F","{""name"":""Chrome"",""osname"":""Chrome OS"",""chromeos"":true,""chromeBook"":true,""chrome"":true,""version"":""105.0"",""blink"":true,""a"":true}","9:22:49","0","2","Practice_1","74","j","1","728.1999999992549","1536 x 864","1536 x 864","true","1","10","","","","",""
"null","<p style=""font-size: 80px;"">+ 10 points</p>","null","html-keyboard-response","37","206507","0.0-7.0-2.36","5c3512d27ab36100015bd89a","hvk4yh","SRL","47","F","{""name"":""Chrome"",""osname"":""Chrome OS"",""chromeos"":true,""chromeBook"":true,""chrome"":true,""version"":""105.0"",""blink"":true,""a"":true}","9:22:49","0","2","Practice_1","74","j","1","984.0999999977648","1536 x 864","1536 x 864","true","1","10","","","","",""
"null","<p style=""font-size: 80px;"">+ 10 points</p>","null","html-keyboard-response","38","208990","0.0-7.0-2.37","5c3512d27ab36100015bd89a","hvk4yh","SRL","47","F","{""name"":""Chrome"",""osname"":""Chrome OS"",""chromeos"":true,""chromeBook"":true,""chrome"":true,""version"":""105.0"",""blink"":true,""a"":true}","9:22:49","0","2","Practice_1","74","j","1","478.5999999977648","1536 x 864","1536 x 864","true","1","10","","","","",""
"null","<p style=""font-size: 80px;"">+ 10 points</p>","null","html-keyboard-response","39","211832","0.0-7.0-2.38","5c3512d27ab36100015bd89a","hvk4yh","SRL","47","F","{""name"":""Chrome"",""osname"":""Chrome OS"",""chromeos"":true,""chromeBook"":true,""chrome"":true,""version"":""105.0"",""blink"":true,""a"":true}","9:22:49","0","2","Practice_4","70","f","1","838.5","1536 x 864","1536 x 864","true","1","10","","","","",""
"null","<p style=""font-size: 80px;"">+ 10 points</p>","null","html-keyboard-response","40","214453","0.0-7.0-2.39","5c3512d27ab36100015bd89a","hvk4yh","SRL","47","F","{""name"":""Chrome"",""osname"":""Chrome OS"",""chromeos"":true,""chromeBook"":true,""chrome"":true,""version"":""105.0"",""blink"":true,""a"":true}","9:22:49","0","2","Practice_1","74","j","1","616.7000000029802","1536 x 864","1536 x 864","true","1","10","","","","",""
"9077.900000002235","","","survey-multi-choice","127","223533","0.0-8.0","5c3512d27ab36100015bd89a","hvk4yh","SRL","47","F","{""name"":""Chrome"",""osname"":""Chrome OS"",""chromeos"":true,""chromeBook"":true,""chrome"":true,""version"":""105.0"",""blink"":true,""a"":true}","9:22:49","","","","","","","","","","","1","","{""Q0"":""The red one"",""Q1"":""1""}","[0,1]","1","The red one","2"
"null","<p style=""font-size: 80px;"">+ 0 points</p>","null","html-keyboard-response","1","266359","0.0-11.0-2.0","5c3512d27ab36100015bd89a","hvk4yh","SRL","47","F","{""name"":""Chrome"",""osname"":""Chrome OS"",""chromeos"":true,""chromeBook"":true,""chrome"":true,""version"":""105.0"",""blink"":true,""a"":true}","9:22:49","1","3","Test_2","70","j","0","2073.300000000745","1536 x 864","1536 x 864","true","1","0","","","","",""
"null","<p style=""font-size: 80px;"">+ 10 points</p>","null","html-keyboard-response","2","269333","0.0-11.0-2.1","5c3512d27ab36100015bd89a","hvk4yh","SRL","47","F","{""name"":""Chrome"",""osname"":""Chrome OS"",""chromeos"":true,""chromeBook"":true,""chrome"":true,""version"":""105.0"",""blink"":true,""a"":true}","9:22:49","1","3","Test_3","70","f","1","969.8999999985099","1536 x 864","1536 x 864","true","1","10","","","","",""
"null","<p style=""font-size: 80px;"">+ 10 points</p>","null","html-keyboard-response","3","272411","0.0-11.0-2.2","5c3512d27ab36100015bd89a","hvk4yh","SRL","47","F","{""name"":""Chrome"",""osname"":""Chrome OS"",""chromeos"":true,""chromeBook"":true,""chrome"":true,""version"":""105.0"",""blink"":true,""a"":true}","9:22:49","1","3","Test_4","74","j","1","1074.1000000014901","1536 x 864","1536 x 864","true","1","10","","","","",""
"null","<p style=""font-size: 80px;"">+ 10 points</p>","null","html-keyboard-response","4","275287","0.0-11.0-2.3","5c3512d27ab36100015bd89a","hvk4yh","SRL","47","F","{""name"":""Chrome"",""osname"":""Chrome OS"",""chromeos"":true,""chromeBook"":true,""chrome"":true,""version"":""105.0"",""blink"":true,""a"":true}","9:22:49","1","3","Test_3","70","f","1","871.6000000014901","1536 x 864","1536 x 864","true","1","10","","","","",""
"null","<p style=""font-size: 80px;"">+ 0 points</p>","null","html-keyboard-response","5","278260","0.0-11.0-2.4","5c3512d27ab36100015bd89a","hvk4yh","SRL","47","F","{""name"":""Chrome"",""osname"":""Chrome OS"",""chromeos"":true,""chromeBook"":true,""chrome"":true,""version"":""105.0"",""blink"":true,""a"":true}","9:22:49","1","3","Test_1","74","f","0","967.9000000022352","1536 x 864","1536 x 864","true","1","0","","","","",""
"null","<p style=""font-size: 80px;"">+ 10 points</p>","null","html-keyboard-response","6","280992","0.0-11.0-2.5","5c3512d27ab36100015bd89a","hvk4yh","SRL","47","F","{""name"":""Chrome"",""osname"":""Chrome OS"",""chromeos"":true,""chromeBook"":true,""chrome"":true,""version"":""105.0"",""blink"":true,""a"":true}","9:22:49","1","3","Test_1","70","f","1","727.5999999977648","1536 x 864","1536 x 864","true","1","10","","","","",""
"null","<p style=""font-size: 80px;"">+ 10 points</p>","null","html-keyboard-response","7","283558","0.0-11.0-2.6","5c3512d27ab36100015bd89a","hvk4yh","SRL","47","F","{""name"":""Chrome"",""osname"":""Chrome OS"",""chromeos"":true,""chromeBook"":true,""chrome"":true,""version"":""105.0"",""blink"":true,""a"":true}","9:22:49","1","3","Test_1","70","f","1","561.2999999970198","1536 x 864","1536 x 864","true","1","10","","","","",""
"null","<p style=""font-size: 80px;"">+ 10 points</p>","null","html-keyboard-response","8","286439","0.0-11.0-2.7","5c3512d27ab36100015bd89a","hvk4yh","SRL","47","F","{""name"":""Chrome"",""osname"":""Chrome OS"",""chromeos"":true,""chromeBook"":true,""chrome"":true,""version"":""105.0"",""blink"":true,""a"":true}","9:22:49","1","3","Test_3","70","f","1","876.5","1536 x 864","1536 x 864","true","1","10","","","","",""
"null","<p style=""font-size: 80px;"">+ 10 points</p>","null","html-keyboard-response","9","289216","0.0-11.0-2.8","5c3512d27ab36100015bd89a","hvk4yh","SRL","47","F","{""name"":""Chrome"",""osname"":""Chrome OS"",""chromeos"":true,""chromeBook"":true,""chrome"":true,""version"":""105.0"",""blink"":true,""a"":true}","9:22:49","1","3","Test_2","74","j","1","773.3000000007451","1536 x 864","1536 x 864","true","1","10","","","","",""
"null","<p style=""font-size: 80px;"">+ 10 points</p>","null","html-keyboard-response","10","292192","0.0-11.0-2.9","5c3512d27ab36100015bd89a","hvk4yh","SRL","47","F","{""name"":""Chrome"",""osname"":""Chrome OS"",""chromeos"":true,""chromeBook"":true,""chrome"":true,""version"":""105.0"",""blink"":true,""a"":true}","9:22:49","1","3","Test_1","70","f","1","971.1999999992549","1536 x 864","1536 x 864","true","1","10","","","","",""
"null","<p style=""font-size: 80px;"">+ 10 points</p>","null","html-keyboard-response","11","295189","0.0-11.0-2.10","5c3512d27ab36100015bd89a","hvk4yh","SRL","47","F","{""name"":""Chrome"",""osname"":""Chrome OS"",""chromeos"":true,""chromeBook"":true,""chrome"":true,""version"":""105.0"",""blink"":true,""a"":true}","9:22:49","1","3","Test_3","70","f","1","991.8999999985099","1536 x 864","1536 x 864","true","1","10","","","","",""
"null","<p style=""font-size: 80px;"">+ 10 points</p>","null","html-keyboard-response","12","299434","0.0-11.0-2.11","5c3512d27ab36100015bd89a","hvk4yh","SRL","47","F","{""name"":""Chrome"",""osname"":""Chrome OS"",""chromeos"":true,""chromeBook"":true,""chrome"":true,""version"":""105.0"",""blink"":true,""a"":true}","9:22:49","1","3","Test_4","74","j","1","2241.5","1536 x 864","1536 x 864","true","1","10","","","","",""
"null","<p style=""font-size: 80px;"">+ 10 points</p>","null","html-keyboard-response","13","302079","0.0-11.0-2.12","5c3512d27ab36100015bd89a","hvk4yh","SRL","47","F","{""name"":""Chrome"",""osname"":""Chrome OS"",""chromeos"":true,""chromeBook"":true,""chrome"":true,""version"":""105.0"",""blink"":true,""a"":true}","9:22:49","1","3","Test_4","74","j","1","640","1536 x 864","1536 x 864","true","1","10","","","","",""
"null","<p style=""font-size: 80px;"">+ 10 points</p>","null","html-keyboard-response","14","304622","0.0-11.0-2.13","5c3512d27ab36100015bd89a","hvk4yh","SRL","47","F","{""name"":""Chrome"",""osname"":""Chrome OS"",""chromeos"":true,""chromeBook"":true,""chrome"":true,""version"":""105.0"",""blink"":true,""a"":true}","9:22:49","1","3","Test_1","70","f","1","538.1999999992549","1536 x 864","1536 x 864","true","1","10","","","","",""
"null","<p style=""font-size: 80px;"">+ 10 points</p>","null","html-keyboard-response","15","307107","0.0-11.0-2.14","5c3512d27ab36100015bd89a","hvk4yh","SRL","47","F","{""name"":""Chrome"",""osname"":""Chrome OS"",""chromeos"":true,""chromeBook"":true,""chrome"":true,""version"":""105.0"",""blink"":true,""a"":true}","9:22:49","1","3","Test_4","74","j","1","480.80000000074506","1536 x 864","1536 x 864","true","1","10","","","","",""
"null","<p style=""font-size: 80px;"">+ 10 points</p>","null","html-keyboard-response","16","309910","0.0-11.0-2.15","5c3512d27ab36100015bd89a","hvk4yh","SRL","47","F","{""name"":""Chrome"",""osname"":""Chrome OS"",""chromeos"":true,""chromeBook"":true,""chrome"":true,""version"":""105.0"",""blink"":true,""a"":true}","9:22:49","1","3","Test_2","74","j","1","797.8000000007451","1536 x 864","1536 x 864","true","1","10","","","","",""
"null","<p style=""font-size: 80px;"">+ 10 points</p>","null","html-keyboard-response","17","312451","0.0-11.0-2.16","5c3512d27ab36100015bd89a","hvk4yh","SRL","47","F","{""name"":""Chrome"",""osname"":""Chrome OS"",""chromeos"":true,""chromeBook"":true,""chrome"":true,""version"":""105.0"",""blink"":true,""a"":true}","9:22:49","1","3","Test_2","74","j","1","536.8000000007451","1536 x 864","1536 x 864","true","1","10","","","","",""
"null","<p style=""font-size: 80px;"">+ 10 points</p>","null","html-keyboard-response","18","315303","0.0-11.0-2.17","5c3512d27ab36100015bd89a","hvk4yh","SRL","47","F","{""name"":""Chrome"",""osname"":""Chrome OS"",""chromeos"":true,""chromeBook"":true,""chrome"":true,""version"":""105.0"",""blink"":true,""a"":true}","9:22:49","1","3","Test_4","74","j","1","848.0999999977648","1536 x 864","1536 x 864","true","1","10","","","","",""
"null","<p style=""font-size: 80px;"">+ 10 points</p>","null","html-keyboard-response","19","318248","0.0-11.0-2.18","5c3512d27ab36100015bd89a","hvk4yh","SRL","47","F","{""name"":""Chrome"",""osname"":""Chrome OS"",""chromeos"":true,""chromeBook"":true,""chrome"":true,""version"":""105.0"",""blink"":true,""a"":true}","9:22:49","1","3","Test_2","74","j","1","940","1536 x 864","1536 x 864","true","1","10","","","","",""
"null","<p style=""font-size: 80px;"">+ 0 points</p>","null","html-keyboard-response","20","321142","0.0-11.0-2.19","5c3512d27ab36100015bd89a","hvk4yh","SRL","47","F","{""name"":""Chrome"",""osname"":""Chrome OS"",""chromeos"":true,""chromeBook"":true,""chrome"":true,""version"":""105.0"",""blink"":true,""a"":true}","9:22:49","1","4","Test_4","74","f","0","890.3999999985099","1536 x 864","1536 x 864","true","1","0","","","","",""
"null","<p style=""font-size: 80px;"">+ 0 points</p>","null","html-keyboard-response","21","324308","0.0-11.0-2.20","5c3512d27ab36100015bd89a","hvk4yh","SRL","47","F","{""name"":""Chrome"",""osname"":""Chrome OS"",""chromeos"":true,""chromeBook"":true,""chrome"":true,""version"":""105.0"",""blink"":true,""a"":true}","9:22:49","1","4","Test_2","74","f","0","1161.6000000014901","1536 x 864","1536 x 864","true","1","0","","","","",""
"null","<p style=""font-size: 80px;"">+ 10 points</p>","null","html-keyboard-response","22","327028","0.0-11.0-2.21","5c3512d27ab36100015bd89a","hvk4yh","SRL","47","F","{""name"":""Chrome"",""osname"":""Chrome OS"",""chromeos"":true,""chromeBook"":true,""chrome"":true,""version"":""105.0"",""blink"":true,""a"":true}","9:22:49","1","4","Test_3","74","j","1","714.3999999985099","1536 x 864","1536 x 864","true","1","10","","","","",""
"null","<p style=""font-size: 80px;"">+ 10 points</p>","null","html-keyboard-response","23","329504","0.0-11.0-2.22","5c3512d27ab36100015bd89a","hvk4yh","SRL","47","F","{""name"":""Chrome"",""osname"":""Chrome OS"",""chromeos"":true,""chromeBook"":true,""chrome"":true,""version"":""105.0"",""blink"":true,""a"":true}","9:22:49","1","4","Test_4","70","f","1","472","1536 x 864","1536 x 864","true","1","10","","","","",""
"null","<p style=""font-size: 80px;"">+ 10 points</p>","null","html-keyboard-response","24","332771","0.0-11.0-2.23","5c3512d27ab36100015bd89a","hvk4yh","SRL","47","F","{""name"":""Chrome"",""osname"":""Chrome OS"",""chromeos"":true,""chromeBook"":true,""chrome"":true,""version"":""105.0"",""blink"":true,""a"":true}","9:22:49","1","4","Test_2","70","f","1","1262.199999999255","1536 x 864","1536 x 864","true","1","10","","","","",""
"null","<p style=""font-size: 80px;"">+ 10 points</p>","null","html-keyboard-response","25","335385","0.0-11.0-2.24","5c3512d27ab36100015bd89a","hvk4yh","SRL","47","F","{""name"":""Chrome"",""osname"":""Chrome OS"",""chromeos"":true,""chromeBook"":true,""chrome"":true,""version"":""105.0"",""blink"":true,""a"":true}","9:22:49","1","4","Test_3","74","j","1","609.8999999985099","1536 x 864","1536 x 864","true","1","10","","","","",""
"null","<p style=""font-size: 80px;"">+ 10 points</p>","null","html-keyboard-response","26","338119","0.0-11.0-2.25","5c3512d27ab36100015bd89a","hvk4yh","SRL","47","F","{""name"":""Chrome"",""osname"":""Chrome OS"",""chromeos"":true,""chromeBook"":true,""chrome"":true,""version"":""105.0"",""blink"":true,""a"":true}","9:22:49","1","4","Test_1","74","j","1","729.5","1536 x 864","1536 x 864","true","1","10","","","","",""
"null","<p style=""font-size: 80px;"">+ 10 points</p>","null","html-keyboard-response","27","340688","0.0-11.0-2.26","5c3512d27ab36100015bd89a","hvk4yh","SRL","47","F","{""name"":""Chrome"",""osname"":""Chrome OS"",""chromeos"":true,""chromeBook"":true,""chrome"":true,""version"":""105.0"",""blink"":true,""a"":true}","9:22:49","1","4","Test_1","74","j","1","563.5","1536 x 864","1536 x 864","true","1","10","","","","",""
"null","<p style=""font-size: 80px;"">+ 10 points</p>","null","html-keyboard-response","28","343265","0.0-11.0-2.27","5c3512d27ab36100015bd89a","hvk4yh","SRL","47","F","{""name"":""Chrome"",""osname"":""Chrome OS"",""chromeos"":true,""chromeBook"":true,""chrome"":true,""version"":""105.0"",""blink"":true,""a"":true}","9:22:49","1","4","Test_3","74","j","1","572.9000000022352","1536 x 864","1536 x 864","true","1","10","","","","",""
"null","<p style=""font-size: 80px;"">+ 10 points</p>","null","html-keyboard-response","29","345710","0.0-11.0-2.28","5c3512d27ab36100015bd89a","hvk4yh","SRL","47","F","{""name"":""Chrome"",""osname"":""Chrome OS"",""chromeos"":true,""chromeBook"":true,""chrome"":true,""version"":""105.0"",""blink"":true,""a"":true}","9:22:49","1","4","Test_2","70","f","1","440.80000000074506","1536 x 864","1536 x 864","true","1","10","","","","",""
"null","<p style=""font-size: 80px;"">+ 10 points</p>","null","html-keyboard-response","30","348156","0.0-11.0-2.29","5c3512d27ab36100015bd89a","hvk4yh","SRL","47","F","{""name"":""Chrome"",""osname"":""Chrome OS"",""chromeos"":true,""chromeBook"":true,""chrome"":true,""version"":""105.0"",""blink"":true,""a"":true}","9:22:49","1","4","Test_3","74","j","1","441.5","1536 x 864","1536 x 864","true","1","10","","","","",""
"null","<p style=""font-size: 80px;"">+ 10 points</p>","null","html-keyboard-response","31","350597","0.0-11.0-2.30","5c3512d27ab36100015bd89a","hvk4yh","SRL","47","F","{""name"":""Chrome"",""osname"":""Chrome OS"",""chromeos"":true,""chromeBook"":true,""chrome"":true,""version"":""105.0"",""blink"":true,""a"":true}","9:22:49","1","4","Test_3","74","j","1","436.1000000014901","1536 x 864","1536 x 864","true","1","10","","","","",""
"null","<p style=""font-size: 80px;"">+ 10 points</p>","null","html-keyboard-response","32","353228","0.0-11.0-2.31","5c3512d27ab36100015bd89a","hvk4yh","SRL","47","F","{""name"":""Chrome"",""osname"":""Chrome OS"",""chromeos"":true,""chromeBook"":true,""chrome"":true,""version"":""105.0"",""blink"":true,""a"":true}","9:22:49","1","4","Test_4","70","f","1","626.6000000014901","1536 x 864","1536 x 864","true","1","10","","","","",""
"null","<p style=""font-size: 80px;"">+ 10 points</p>","null","html-keyboard-response","33","356045","0.0-11.0-2.32","5c3512d27ab36100015bd89a","hvk4yh","SRL","47","F","{""name"":""Chrome"",""osname"":""Chrome OS"",""chromeos"":true,""chromeBook"":true,""chrome"":true,""version"":""105.0"",""blink"":true,""a"":true}","9:22:49","1","4","Test_2","70","f","1","811.8999999985099","1536 x 864","1536 x 864","true","1","10","","","","",""
"null","<p style=""font-size: 80px;"">+ 10 points</p>","null","html-keyboard-response","34","358433","0.0-11.0-2.33","5c3512d27ab36100015bd89a","hvk4yh","SRL","47","F","{""name"":""Chrome"",""osname"":""Chrome OS"",""chromeos"":true,""chromeBook"":true,""chrome"":true,""version"":""105.0"",""blink"":true,""a"":true}","9:22:49","1","4","Test_2","70","f","1","383.5999999977648","1536 x 864","1536 x 864","true","1","10","","","","",""
"null","<p style=""font-size: 80px;"">+ 10 points</p>","null","html-keyboard-response","35","361106","0.0-11.0-2.34","5c3512d27ab36100015bd89a","hvk4yh","SRL","47","F","{""name"":""Chrome"",""osname"":""Chrome OS"",""chromeos"":true,""chromeBook"":true,""chrome"":true,""version"":""105.0"",""blink"":true,""a"":true}","9:22:49","1","4","Test_1","74","j","1","669","1536 x 864","1536 x 864","true","1","10","","","","",""
"null","<p style=""font-size: 80px;"">+ 10 points</p>","null","html-keyboard-response","36","363678","0.0-11.0-2.35","5c3512d27ab36100015bd89a","hvk4yh","SRL","47","F","{""name"":""Chrome"",""osname"":""Chrome OS"",""chromeos"":true,""chromeBook"":true,""chrome"":true,""version"":""105.0"",""blink"":true,""a"":true}","9:22:49","1","4","Test_4","70","f","1","567.3000000007451","1536 x 864","1536 x 864","true","1","10","","","","",""
"null","<p style=""font-size: 80px;"">+ 10 points</p>","null","html-keyboard-response","37","366111","0.0-11.0-2.36","5c3512d27ab36100015bd89a","hvk4yh","SRL","47","F","{""name"":""Chrome"",""osname"":""Chrome OS"",""chromeos"":true,""chromeBook"":true,""chrome"":true,""version"":""105.0"",""blink"":true,""a"":true}","9:22:49","1","4","Test_1","74","j","1","428.30000000074506","1536 x 864","1536 x 864","true","1","10","","","","",""
"null","<p style=""font-size: 80px;"">+ 10 points</p>","null","html-keyboard-response","38","368859","0.0-11.0-2.37","5c3512d27ab36100015bd89a","hvk4yh","SRL","47","F","{""name"":""Chrome"",""osname"":""Chrome OS"",""chromeos"":true,""chromeBook"":true,""chrome"":true,""version"":""105.0"",""blink"":true,""a"":true}","9:22:49","1","4","Test_4","70","f","1","743.3000000007451","1536 x 864","1536 x 864","true","1","10","","","","",""
"null","<p style=""font-size: 80px;"">+ 10 points</p>","null","html-keyboard-response","39","371655","0.0-11.0-2.38","5c3512d27ab36100015bd89a","hvk4yh","SRL","47","F","{""name"":""Chrome"",""osname"":""Chrome OS"",""chromeos"":true,""chromeBook"":true,""chrome"":true,""version"":""105.0"",""blink"":true,""a"":true}","9:22:49","1","4","Test_1","74","j","1","791.8999999985099","1536 x 864","1536 x 864","true","1","10","","","","",""
"null","<p style=""font-size: 80px;"">+ 10 points</p>","null","html-keyboard-response","40","374273","0.0-11.0-2.39","5c3512d27ab36100015bd89a","hvk4yh","SRL","47","F","{""name"":""Chrome"",""osname"":""Chrome OS"",""chromeos"":true,""chromeBook"":true,""chrome"":true,""version"":""105.0"",""blink"":true,""a"":true}","9:22:49","1","4","Test_1","74","j","1","613.3000000007451","1536 x 864","1536 x 864","true","1","10","","","","",""
"null","<p style=""font-size: 80px;"">+ 10 points</p>","null","html-keyboard-response","41","376811","0.0-11.0-2.40","5c3512d27ab36100015bd89a","hvk4yh","SRL","47","F","{""name"":""Chrome"",""osname"":""Chrome OS"",""chromeos"":true,""chromeBook"":true,""chrome"":true,""version"":""105.0"",""blink"":true,""a"":true}","9:22:49","1","4","Test_4","70","f","1","533.3999999985099","1536 x 864","1536 x 864","true","1","10","","","","",""
"null","<p style=""font-size: 80px;"">+ 10 points</p>","null","html-keyboard-response","42","379419","0.0-11.0-2.41","5c3512d27ab36100015bd89a","hvk4yh","SRL","47","F","{""name"":""Chrome"",""osname"":""Chrome OS"",""chromeos"":true,""chromeBook"":true,""chrome"":true,""version"":""105.0"",""blink"":true,""a"":true}","9:22:49","1","4","Test_2","70","f","1","603.5","1536 x 864","1536 x 864","true","1","10","","","","",""
"null","<p style=""font-size: 80px;"">+ 0 points</p>","null","html-keyboard-response","43","382080","0.0-11.0-2.42","5c3512d27ab36100015bd89a","hvk4yh","SRL","47","F","{""name"":""Chrome"",""osname"":""Chrome OS"",""chromeos"":true,""chromeBook"":true,""chrome"":true,""version"":""105.0"",""blink"":true,""a"":true}","9:22:49","1","3","Test_4","70","j","0","656.3999999985099","1536 x 864","1536 x 864","true","1","0","","","","",""
"null","<p style=""font-size: 80px;"">+ 10 points</p>","null","html-keyboard-response","44","385506","0.0-11.0-2.43","5c3512d27ab36100015bd89a","hvk4yh","SRL","47","F","{""name"":""Chrome"",""osname"":""Chrome OS"",""chromeos"":true,""chromeBook"":true,""chrome"":true,""version"":""105.0"",""blink"":true,""a"":true}","9:22:49","1","3","Test_1","70","f","1","1422.3999999985099","1536 x 864","1536 x 864","true","1","10","","","","",""
"null","<p style=""font-size: 80px;"">+ 0 points</p>","null","html-keyboard-response","45","388542","0.0-11.0-2.44","5c3512d27ab36100015bd89a","hvk4yh","SRL","47","F","{""name"":""Chrome"",""osname"":""Chrome OS"",""chromeos"":true,""chromeBook"":true,""chrome"":true,""version"":""105.0"",""blink"":true,""a"":true}","9:22:49","1","3","Test_3","74","f","0","1030.8999999985099","1536 x 864","1536 x 864","true","1","0","","","","",""
"null","<p style=""font-size: 80px;"">+ 10 points</p>","null","html-keyboard-response","46","391050","0.0-11.0-2.45","5c3512d27ab36100015bd89a","hvk4yh","SRL","47","F","{""name"":""Chrome"",""osname"":""Chrome OS"",""chromeos"":true,""chromeBook"":true,""chrome"":true,""version"":""105.0"",""blink"":true,""a"":true}","9:22:49","1","3","Test_2","74","j","1","502.80000000074506","1536 x 864","1536 x 864","true","1","10","","","","",""
"null","<p style=""font-size: 80px;"">+ 10 points</p>","null","html-keyboard-response","47","394633","0.0-11.0-2.46","5c3512d27ab36100015bd89a","hvk4yh","SRL","47","F","{""name"":""Chrome"",""osname"":""Chrome OS"",""chromeos"":true,""chromeBook"":true,""chrome"":true,""version"":""105.0"",""blink"":true,""a"":true}","9:22:49","1","3","Test_2","74","j","1","1578.199999999255","1536 x 864","1536 x 864","true","1","10","","","","",""
"null","<p style=""font-size: 80px;"">+ 10 points</p>","null","html-keyboard-response","48","397368","0.0-11.0-2.47","5c3512d27ab36100015bd89a","hvk4yh","SRL","47","F","{""name"":""Chrome"",""osname"":""Chrome OS"",""chromeos"":true,""chromeBook"":true,""chrome"":true,""version"":""105.0"",""blink"":true,""a"":true}","9:22:49","1","3","Test_3","70","f","1","730.9000000022352","1536 x 864","1536 x 864","true","1","10","","","","",""
"null","<p style=""font-size: 80px;"">+ 10 points</p>","null","html-keyboard-response","49","400797","0.0-11.0-2.48","5c3512d27ab36100015bd89a","hvk4yh","SRL","47","F","{""name"":""Chrome"",""osname"":""Chrome OS"",""chromeos"":true,""chromeBook"":true,""chrome"":true,""version"":""105.0"",""blink"":true,""a"":true}","9:22:49","1","3","Test_4","74","j","1","1424","1536 x 864","1536 x 864","true","1","10","","","","",""
"null","<p style=""font-size: 80px;"">+ 10 points</p>","null","html-keyboard-response","50","403293","0.0-11.0-2.49","5c3512d27ab36100015bd89a","hvk4yh","SRL","47","F","{""name"":""Chrome"",""osname"":""Chrome OS"",""chromeos"":true,""chromeBook"":true,""chrome"":true,""version"":""105.0"",""blink"":true,""a"":true}","9:22:49","1","3","Test_4","74","j","1","492","1536 x 864","1536 x 864","true","1","10","","","","",""
"null","<p style=""font-size: 80px;"">+ 10 points</p>","null","html-keyboard-response","51","405885","0.0-11.0-2.50","5c3512d27ab36100015bd89a","hvk4yh","SRL","47","F","{""name"":""Chrome"",""osname"":""Chrome OS"",""chromeos"":true,""chromeBook"":true,""chrome"":true,""version"":""105.0"",""blink"":true,""a"":true}","9:22:49","1","3","Test_3","70","f","1","587.3000000007451","1536 x 864","1536 x 864","true","1","10","","","","",""
"null","<p style=""font-size: 80px;"">+ 10 points</p>","null","html-keyboard-response","52","408391","0.0-11.0-2.51","5c3512d27ab36100015bd89a","hvk4yh","SRL","47","F","{""name"":""Chrome"",""osname"":""Chrome OS"",""chromeos"":true,""chromeBook"":true,""chrome"":true,""version"":""105.0"",""blink"":true,""a"":true}","9:22:49","1","3","Test_2","74","j","1","500.8999999985099","1536 x 864","1536 x 864","true","1","10","","","","",""
"null","<p style=""font-size: 80px;"">+ 10 points</p>","null","html-keyboard-response","53","411037","0.0-11.0-2.52","5c3512d27ab36100015bd89a","hvk4yh","SRL","47","F","{""name"":""Chrome"",""osname"":""Chrome OS"",""chromeos"":true,""chromeBook"":true,""chrome"":true,""version"":""105.0"",""blink"":true,""a"":true}","9:22:49","1","3","Test_4","74","j","1","641.4000000022352","1536 x 864","1536 x 864","true","1","10","","","","",""
"null","<p style=""font-size: 80px;"">+ 10 points</p>","null","html-keyboard-response","54","413757","0.0-11.0-2.53","5c3512d27ab36100015bd89a","hvk4yh","SRL","47","F","{""name"":""Chrome"",""osname"":""Chrome OS"",""chromeos"":true,""chromeBook"":true,""chrome"":true,""version"":""105.0"",""blink"":true,""a"":true}","9:22:49","1","3","Test_2","74","j","1","716.1000000014901","1536 x 864","1536 x 864","true","1","10","","","","",""
"null","<p style=""font-size: 80px;"">+ 10 points</p>","null","html-keyboard-response","55","416305","0.0-11.0-2.54","5c3512d27ab36100015bd89a","hvk4yh","SRL","47","F","{""name"":""Chrome"",""osname"":""Chrome OS"",""chromeos"":true,""chromeBook"":true,""chrome"":true,""version"":""105.0"",""blink"":true,""a"":true}","9:22:49","1","3","Test_1","70","f","1","544","1536 x 864","1536 x 864","true","1","10","","","","",""
"null","<p style=""font-size: 80px;"">+ 10 points</p>","null","html-keyboard-response","56","418818","0.0-11.0-2.55","5c3512d27ab36100015bd89a","hvk4yh","SRL","47","F","{""name"":""Chrome"",""osname"":""Chrome OS"",""chromeos"":true,""chromeBook"":true,""chrome"":true,""version"":""105.0"",""blink"":true,""a"":true}","9:22:49","1","3","Test_1","70","f","1","508.30000000074506","1536 x 864","1536 x 864","true","1","10","","","","",""
"null","<p style=""font-size: 80px;"">+ 10 points</p>","null","html-keyboard-response","57","421278","0.0-11.0-2.56","5c3512d27ab36100015bd89a","hvk4yh","SRL","47","F","{""name"":""Chrome"",""osname"":""Chrome OS"",""chromeos"":true,""chromeBook"":true,""chrome"":true,""version"":""105.0"",""blink"":true,""a"":true}","9:22:49","1","3","Test_1","70","f","1","455.69999999925494","1536 x 864","1536 x 864","true","1","10","","","","",""
"null","<p style=""font-size: 80px;"">+ 10 points</p>","null","html-keyboard-response","58","424023","0.0-11.0-2.57","5c3512d27ab36100015bd89a","hvk4yh","SRL","47","F","{""name"":""Chrome"",""osname"":""Chrome OS"",""chromeos"":true,""chromeBook"":true,""chrome"":true,""version"":""105.0"",""blink"":true,""a"":true}","9:22:49","1","3","Test_3","70","f","1","740.1999999992549","1536 x 864","1536 x 864","true","1","10","","","","",""
"null","<p style=""font-size: 80px;"">+ 10 points</p>","null","html-keyboard-response","59","426542","0.0-11.0-2.58","5c3512d27ab36100015bd89a","hvk4yh","SRL","47","F","{""name"":""Chrome"",""osname"":""Chrome OS"",""chromeos"":true,""chromeBook"":true,""chrome"":true,""version"":""105.0"",""blink"":true,""a"":true}","9:22:49","1","3","Test_2","74","j","1","514.3999999985099","1536 x 864","1536 x 864","true","1","10","","","","",""
"null","<p style=""font-size: 80px;"">+ 0 points</p>","null","html-keyboard-response","60","429034","0.0-11.0-2.59","5c3512d27ab36100015bd89a","hvk4yh","SRL","47","F","{""name"":""Chrome"",""osname"":""Chrome OS"",""chromeos"":true,""chromeBook"":true,""chrome"":true,""version"":""105.0"",""blink"":true,""a"":true}","9:22:49","1","4","Test_2","74","f","0","486.5","1536 x 864","1536 x 864","true","1","0","","","","",""
"null","<p style=""font-size: 80px;"">+ 10 points</p>","null","html-keyboard-response","61","432256","0.0-11.0-2.60","5c3512d27ab36100015bd89a","hvk4yh","SRL","47","F","{""name"":""Chrome"",""osname"":""Chrome OS"",""chromeos"":true,""chromeBook"":true,""chrome"":true,""version"":""105.0"",""blink"":true,""a"":true}","9:22:49","1","4","Test_1","74","j","1","1217","1536 x 864","1536 x 864","true","1","10","","","","",""
"null","<p style=""font-size: 80px;"">+ 10 points</p>","null","html-keyboard-response","62","434993","0.0-11.0-2.61","5c3512d27ab36100015bd89a","hvk4yh","SRL","47","F","{""name"":""Chrome"",""osname"":""Chrome OS"",""chromeos"":true,""chromeBook"":true,""chrome"":true,""version"":""105.0"",""blink"":true,""a"":true}","9:22:49","1","4","Test_1","74","j","1","732.3999999985099","1536 x 864","1536 x 864","true","1","10","","","","",""
"null","<p style=""font-size: 80px;"">+ 10 points</p>","null","html-keyboard-response","63","437609","0.0-11.0-2.62","5c3512d27ab36100015bd89a","hvk4yh","SRL","47","F","{""name"":""Chrome"",""osname"":""Chrome OS"",""chromeos"":true,""chromeBook"":true,""chrome"":true,""version"":""105.0"",""blink"":true,""a"":true}","9:22:49","1","4","Test_2","70","f","1","611.5999999977648","1536 x 864","1536 x 864","true","1","10","","","","",""
"null","<p style=""font-size: 80px;"">+ 10 points</p>","null","html-keyboard-response","64","440043","0.0-11.0-2.63","5c3512d27ab36100015bd89a","hvk4yh","SRL","47","F","{""name"":""Chrome"",""osname"":""Chrome OS"",""chromeos"":true,""chromeBook"":true,""chrome"":true,""version"":""105.0"",""blink"":true,""a"":true}","9:22:49","1","4","Test_2","70","f","1","429.80000000074506","1536 x 864","1536 x 864","true","1","10","","","","",""
"null","<p style=""font-size: 80px;"">+ 10 points</p>","null","html-keyboard-response","65","442441","0.0-11.0-2.64","5c3512d27ab36100015bd89a","hvk4yh","SRL","47","F","{""name"":""Chrome"",""osname"":""Chrome OS"",""chromeos"":true,""chromeBook"":true,""chrome"":true,""version"":""105.0"",""blink"":true,""a"":true}","9:22:49","1","4","Test_2","70","f","1","392.5","1536 x 864","1536 x 864","true","1","10","","","","",""
"null","<p style=""font-size: 80px;"">+ 10 points</p>","null","html-keyboard-response","66","445123","0.0-11.0-2.65","5c3512d27ab36100015bd89a","hvk4yh","SRL","47","F","{""name"":""Chrome"",""osname"":""Chrome OS"",""chromeos"":true,""chromeBook"":true,""chrome"":true,""version"":""105.0"",""blink"":true,""a"":true}","9:22:49","1","4","Test_4","70","f","1","677.3999999985099","1536 x 864","1536 x 864","true","1","10","","","","",""
"null","<p style=""font-size: 80px;"">+ 10 points</p>","null","html-keyboard-response","67","447806","0.0-11.0-2.66","5c3512d27ab36100015bd89a","hvk4yh","SRL","47","F","{""name"":""Chrome"",""osname"":""Chrome OS"",""chromeos"":true,""chromeBook"":true,""chrome"":true,""version"":""105.0"",""blink"":true,""a"":true}","9:22:49","1","4","Test_1","74","j","1","677.3999999985099","1536 x 864","1536 x 864","true","1","10","","","","",""
"null","<p style=""font-size: 80px;"">+ 10 points</p>","null","html-keyboard-response","68","450578","0.0-11.0-2.67","5c3512d27ab36100015bd89a","hvk4yh","SRL","47","F","{""name"":""Chrome"",""osname"":""Chrome OS"",""chromeos"":true,""chromeBook"":true,""chrome"":true,""version"":""105.0"",""blink"":true,""a"":true}","9:22:49","1","4","Test_1","74","j","1","767.3000000007451","1536 x 864","1536 x 864","true","1","10","","","","",""
"null","<p style=""font-size: 80px;"">+ 0 points</p>","null","html-keyboard-response","69","453127","0.0-11.0-2.68","5c3512d27ab36100015bd89a","hvk4yh","SRL","47","F","{""name"":""Chrome"",""osname"":""Chrome OS"",""chromeos"":true,""chromeBook"":true,""chrome"":true,""version"":""105.0"",""blink"":true,""a"":true}","9:22:49","1","4","Test_3","70","j","0","544.8000000007451","1536 x 864","1536 x 864","true","1","0","","","","",""
"null","<p style=""font-size: 80px;"">+ 10 points</p>","null","html-keyboard-response","70","455661","0.0-11.0-2.69","5c3512d27ab36100015bd89a","hvk4yh","SRL","47","F","{""name"":""Chrome"",""osname"":""Chrome OS"",""chromeos"":true,""chromeBook"":true,""chrome"":true,""version"":""105.0"",""blink"":true,""a"":true}","9:22:49","1","4","Test_3","74","j","1","528.6999999992549","1536 x 864","1536 x 864","true","1","10","","","","",""
"null","<p style=""font-size: 80px;"">+ 10 points</p>","null","html-keyboard-response","71","458136","0.0-11.0-2.70","5c3512d27ab36100015bd89a","hvk4yh","SRL","47","F","{""name"":""Chrome"",""osname"":""Chrome OS"",""chromeos"":true,""chromeBook"":true,""chrome"":true,""version"":""105.0"",""blink"":true,""a"":true}","9:22:49","1","4","Test_3","74","j","1","471.19999999925494","1536 x 864","1536 x 864","true","1","10","","","","",""
"null","<p style=""font-size: 80px;"">+ 10 points</p>","null","html-keyboard-response","72","460938","0.0-11.0-2.71","5c3512d27ab36100015bd89a","hvk4yh","SRL","47","F","{""name"":""Chrome"",""osname"":""Chrome OS"",""chromeos"":true,""chromeBook"":true,""chrome"":true,""version"":""105.0"",""blink"":true,""a"":true}","9:22:49","1","4","Test_4","70","f","1","795.8999999985099","1536 x 864","1536 x 864","true","1","10","","","","",""
"null","<p style=""font-size: 80px;"">+ 10 points</p>","null","html-keyboard-response","73","463509","0.0-11.0-2.72","5c3512d27ab36100015bd89a","hvk4yh","SRL","47","F","{""name"":""Chrome"",""osname"":""Chrome OS"",""chromeos"":true,""chromeBook"":true,""chrome"":true,""version"":""105.0"",""blink"":true,""a"":true}","9:22:49","1","4","Test_4","70","f","1","566.5999999977648","1536 x 864","1536 x 864","true","1","10","","","","",""
"null","<p style=""font-size: 80px;"">+ 10 points</p>","null","html-keyboard-response","74","466084","0.0-11.0-2.73","5c3512d27ab36100015bd89a","hvk4yh","SRL","47","F","{""name"":""Chrome"",""osname"":""Chrome OS"",""chromeos"":true,""chromeBook"":true,""chrome"":true,""version"":""105.0"",""blink"":true,""a"":true}","9:22:49","1","4","Test_4","70","f","1","570.0999999977648","1536 x 864","1536 x 864","true","1","10","","","","",""
"null","<p style=""font-size: 80px;"">+ 10 points</p>","null","html-keyboard-response","75","468651","0.0-11.0-2.74","5c3512d27ab36100015bd89a","hvk4yh","SRL","47","F","{""name"":""Chrome"",""osname"":""Chrome OS"",""chromeos"":true,""chromeBook"":true,""chrome"":true,""version"":""105.0"",""blink"":true,""a"":true}","9:22:49","1","4","Test_4","70","f","1","562.3999999985099","1536 x 864","1536 x 864","true","1","10","","","","",""
"null","<p style=""font-size: 80px;"">+ 10 points</p>","null","html-keyboard-response","76","471280","0.0-11.0-2.75","5c3512d27ab36100015bd89a","hvk4yh","SRL","47","F","{""name"":""Chrome"",""osname"":""Chrome OS"",""chromeos"":true,""chromeBook"":true,""chrome"":true,""version"":""105.0"",""blink"":true,""a"":true}","9:22:49","1","4","Test_1","74","j","1","623.9000000022352","1536 x 864","1536 x 864","true","1","10","","","","",""
"null","<p style=""font-size: 80px;"">+ 10 points</p>","null","html-keyboard-response","77","474064","0.0-11.0-2.76","5c3512d27ab36100015bd89a","hvk4yh","SRL","47","F","{""name"":""Chrome"",""osname"":""Chrome OS"",""chromeos"":true,""chromeBook"":true,""chrome"":true,""version"":""105.0"",""blink"":true,""a"":true}","9:22:49","1","4","Test_3","74","j","1","780","1536 x 864","1536 x 864","true","1","10","","","","",""
"null","<p style=""font-size: 80px;"">+ 10 points</p>","null","html-keyboard-response","78","476504","0.0-11.0-2.77","5c3512d27ab36100015bd89a","hvk4yh","SRL","47","F","{""name"":""Chrome"",""osname"":""Chrome OS"",""chromeos"":true,""chromeBook"":true,""chrome"":true,""version"":""105.0"",""blink"":true,""a"":true}","9:22:49","1","4","Test_3","74","j","1","435.30000000074506","1536 x 864","1536 x 864","true","1","10","","","","",""
"null","<p style=""font-size: 80px;"">+ 10 points</p>","null","html-keyboard-response","79","479067","0.0-11.0-2.78","5c3512d27ab36100015bd89a","hvk4yh","SRL","47","F","{""name"":""Chrome"",""osname"":""Chrome OS"",""chromeos"":true,""chromeBook"":true,""chrome"":true,""version"":""105.0"",""blink"":true,""a"":true}","9:22:49","1","4","Test_4","70","f","1","557.6000000014901","1536 x 864","1536 x 864","true","1","10","","","","",""
"null","<p style=""font-size: 80px;"">+ 10 points</p>","null","html-keyboard-response","80","481853","0.0-11.0-2.79","5c3512d27ab36100015bd89a","hvk4yh","SRL","47","F","{""name"":""Chrome"",""osname"":""Chrome OS"",""chromeos"":true,""chromeBook"":true,""chrome"":true,""version"":""105.0"",""blink"":true,""a"":true}","9:22:49","1","4","Test_3","74","j","1","781.5","1536 x 864","1536 x 864","true","1","10","","","","",""
"null","<p style=""font-size: 80px;"">+ 10 points</p>","null","html-keyboard-response","81","486190","0.0-11.0-2.80","5c3512d27ab36100015bd89a","hvk4yh","SRL","47","F","{""name"":""Chrome"",""osname"":""Chrome OS"",""chromeos"":true,""chromeBook"":true,""chrome"":true,""version"":""105.0"",""blink"":true,""a"":true}","9:22:49","1","4","Test_1","74","j","1","2331.5","1536 x 864","1536 x 864","true","1","10","","","","",""
"null","<p style=""font-size: 80px;"">+ 0 points</p>","null","html-keyboard-response","82","488849","0.0-11.0-2.81","5c3512d27ab36100015bd89a","hvk4yh","SRL","47","F","{""name"":""Chrome"",""osname"":""Chrome OS"",""chromeos"":true,""chromeBook"":true,""chrome"":true,""version"":""105.0"",""blink"":true,""a"":true}","9:22:49","1","3","Test_3","74","f","0","654.6000000014901","1536 x 864","1536 x 864","true","1","0","","","","",""
"null","<p style=""font-size: 80px;"">+ 10 points</p>","null","html-keyboard-response","83","491372","0.0-11.0-2.82","5c3512d27ab36100015bd89a","hvk4yh","SRL","47","F","{""name"":""Chrome"",""osname"":""Chrome OS"",""chromeos"":true,""chromeBook"":true,""chrome"":true,""version"":""105.0"",""blink"":true,""a"":true}","9:22:49","1","3","Test_3","70","f","1","517.7999999970198","1536 x 864","1536 x 864","true","1","10","","","","",""
"null","<p style=""font-size: 80px;"">+ 10 points</p>","null","html-keyboard-response","84","493973","0.0-11.0-2.83","5c3512d27ab36100015bd89a","hvk4yh","SRL","47","F","{""name"":""Chrome"",""osname"":""Chrome OS"",""chromeos"":true,""chromeBook"":true,""chrome"":true,""version"":""105.0"",""blink"":true,""a"":true}","9:22:49","1","3","Test_4","74","j","1","596.1999999992549","1536 x 864","1536 x 864","true","1","10","","","","",""
"null","<p style=""font-size: 80px;"">+ 10 points</p>","null","html-keyboard-response","85","496753","0.0-11.0-2.84","5c3512d27ab36100015bd89a","hvk4yh","SRL","47","F","{""name"":""Chrome"",""osname"":""Chrome OS"",""chromeos"":true,""chromeBook"":true,""chrome"":true,""version"":""105.0"",""blink"":true,""a"":true}","9:22:49","1","3","Test_4","74","j","1","775.6999999992549","1536 x 864","1536 x 864","true","1","10","","","","",""
"null","<p style=""font-size: 80px;"">+ 10 points</p>","null","html-keyboard-response","86","499652","0.0-11.0-2.85","5c3512d27ab36100015bd89a","hvk4yh","SRL","47","F","{""name"":""Chrome"",""osname"":""Chrome OS"",""chromeos"":true,""chromeBook"":true,""chrome"":true,""version"":""105.0"",""blink"":true,""a"":true}","9:22:49","1","3","Test_2","74","j","1","893.8000000007451","1536 x 864","1536 x 864","true","1","10","","","","",""
"null","<p style=""font-size: 80px;"">+ 10 points</p>","null","html-keyboard-response","87","502549","0.0-11.0-2.86","5c3512d27ab36100015bd89a","hvk4yh","SRL","47","F","{""name"":""Chrome"",""osname"":""Chrome OS"",""chromeos"":true,""chromeBook"":true,""chrome"":true,""version"":""105.0"",""blink"":true,""a"":true}","9:22:49","1","3","Test_4","74","j","1","892.5","1536 x 864","1536 x 864","true","1","10","","","","",""
"null","<p style=""font-size: 80px;"">+ 10 points</p>","null","html-keyboard-response","88","505191","0.0-11.0-2.87","5c3512d27ab36100015bd89a","hvk4yh","SRL","47","F","{""name"":""Chrome"",""osname"":""Chrome OS"",""chromeos"":true,""chromeBook"":true,""chrome"":true,""version"":""105.0"",""blink"":true,""a"":true}","9:22:49","1","3","Test_1","70","f","1","638.0999999977648","1536 x 864","1536 x 864","true","1","10","","","","",""
"null","<p style=""font-size: 80px;"">+ 10 points</p>","null","html-keyboard-response","89","507608","0.0-11.0-2.88","5c3512d27ab36100015bd89a","hvk4yh","SRL","47","F","{""name"":""Chrome"",""osname"":""Chrome OS"",""chromeos"":true,""chromeBook"":true,""chrome"":true,""version"":""105.0"",""blink"":true,""a"":true}","9:22:49","1","3","Test_1","70","f","1","411.80000000074506","1536 x 864","1536 x 864","true","1","10","","","","",""
"null","<p style=""font-size: 80px;"">+ 10 points</p>","null","html-keyboard-response","90","510077","0.0-11.0-2.89","5c3512d27ab36100015bd89a","hvk4yh","SRL","47","F","{""name"":""Chrome"",""osname"":""Chrome OS"",""chromeos"":true,""chromeBook"":true,""chrome"":true,""version"":""105.0"",""blink"":true,""a"":true}","9:22:49","1","3","Test_1","70","f","1","464.30000000074506","1536 x 864","1536 x 864","true","1","10","","","","",""
"null","<p style=""font-size: 80px;"">+ 10 points</p>","null","html-keyboard-response","91","512676","0.0-11.0-2.90","5c3512d27ab36100015bd89a","hvk4yh","SRL","47","F","{""name"":""Chrome"",""osname"":""Chrome OS"",""chromeos"":true,""chromeBook"":true,""chrome"":true,""version"":""105.0"",""blink"":true,""a"":true}","9:22:49","1","3","Test_1","70","f","1","594.0999999977648","1536 x 864","1536 x 864","true","1","10","","","","",""
"null","<p style=""font-size: 80px;"">+ 10 points</p>","null","html-keyboard-response","92","515499","0.0-11.0-2.91","5c3512d27ab36100015bd89a","hvk4yh","SRL","47","F","{""name"":""Chrome"",""osname"":""Chrome OS"",""chromeos"":true,""chromeBook"":true,""chrome"":true,""version"":""105.0"",""blink"":true,""a"":true}","9:22:49","1","3","Test_3","70","f","1","817.4000000022352","1536 x 864","1536 x 864","true","1","10","","","","",""
"null","<p style=""font-size: 80px;"">+ 10 points</p>","null","html-keyboard-response","93","518303","0.0-11.0-2.92","5c3512d27ab36100015bd89a","hvk4yh","SRL","47","F","{""name"":""Chrome"",""osname"":""Chrome OS"",""chromeos"":true,""chromeBook"":true,""chrome"":true,""version"":""105.0"",""blink"":true,""a"":true}","9:22:49","1","3","Test_2","74","j","1","799.5","1536 x 864","1536 x 864","true","1","10","","","","",""
"null","<p style=""font-size: 80px;"">+ 10 points</p>","null","html-keyboard-response","94","520807","0.0-11.0-2.93","5c3512d27ab36100015bd89a","hvk4yh","SRL","47","F","{""name"":""Chrome"",""osname"":""Chrome OS"",""chromeos"":true,""chromeBook"":true,""chrome"":true,""version"":""105.0"",""blink"":true,""a"":true}","9:22:49","1","3","Test_2","74","j","1","495.80000000074506","1536 x 864","1536 x 864","true","1","10","","","","",""
"null","<p style=""font-size: 80px;"">+ 10 points</p>","null","html-keyboard-response","95","523338","0.0-11.0-2.94","5c3512d27ab36100015bd89a","hvk4yh","SRL","47","F","{""name"":""Chrome"",""osname"":""Chrome OS"",""chromeos"":true,""chromeBook"":true,""chrome"":true,""version"":""105.0"",""blink"":true,""a"":true}","9:22:49","1","3","Test_3","70","f","1","526.4000000022352","1536 x 864","1536 x 864","true","1","10","","","","",""
"null","<p style=""font-size: 80px;"">+ 10 points</p>","null","html-keyboard-response","96","525761","0.0-11.0-2.95","5c3512d27ab36100015bd89a","hvk4yh","SRL","47","F","{""name"":""Chrome"",""osname"":""Chrome OS"",""chromeos"":true,""chromeBook"":true,""chrome"":true,""version"":""105.0"",""blink"":true,""a"":true}","9:22:49","1","3","Test_2","74","j","1","418.5","1536 x 864","1536 x 864","true","1","10","","","","",""
"null","<p style=""font-size: 80px;"">+ 0 points</p>","null","html-keyboard-response","97","528285","0.0-11.0-2.96","5c3512d27ab36100015bd89a","hvk4yh","SRL","47","F","{""name"":""Chrome"",""osname"":""Chrome OS"",""chromeos"":true,""chromeBook"":true,""chrome"":true,""version"":""105.0"",""blink"":true,""a"":true}","9:22:49","1","4","Test_2","74","f","0","519","1536 x 864","1536 x 864","true","1","0","","","","",""
"null","<p style=""font-size: 80px;"">+ 10 points</p>","null","html-keyboard-response","98","531160","0.0-11.0-2.97","5c3512d27ab36100015bd89a","hvk4yh","SRL","47","F","{""name"":""Chrome"",""osname"":""Chrome OS"",""chromeos"":true,""chromeBook"":true,""chrome"":true,""version"":""105.0"",""blink"":true,""a"":true}","9:22:49","1","4","Test_4","70","f","1","869.2999999970198","1536 x 864","1536 x 864","true","1","10","","","","",""
"null","<p style=""font-size: 80px;"">+ 10 points</p>","null","html-keyboard-response","99","534306","0.0-11.0-2.98","5c3512d27ab36100015bd89a","hvk4yh","SRL","47","F","{""name"":""Chrome"",""osname"":""Chrome OS"",""chromeos"":true,""chromeBook"":true,""chrome"":true,""version"":""105.0"",""blink"":true,""a"":true}","9:22:49","1","4","Test_1","74","j","1","1138.2999999970198","1536 x 864","1536 x 864","true","1","10","","","","",""
"null","<p style=""font-size: 80px;"">+ 0 points</p>","null","html-keyboard-response","100","537877","0.0-11.0-2.99","5c3512d27ab36100015bd89a","hvk4yh","SRL","47","F","{""name"":""Chrome"",""osname"":""Chrome OS"",""chromeos"":true,""chromeBook"":true,""chrome"":true,""version"":""105.0"",""blink"":true,""a"":true}","9:22:49","1","4","Test_4","74","f","0","1565.8999999985099","1536 x 864","1536 x 864","true","1","0","","","","",""
"null","<p style=""font-size: 80px;"">+ 10 points</p>","null","html-keyboard-response","101","541087","0.0-11.0-2.100","5c3512d27ab36100015bd89a","hvk4yh","SRL","47","F","{""name"":""Chrome"",""osname"":""Chrome OS"",""chromeos"":true,""chromeBook"":true,""chrome"":true,""version"":""105.0"",""blink"":true,""a"":true}","9:22:49","1","4","Test_1","74","j","1","1206.4000000022352","1536 x 864","1536 x 864","true","1","10","","","","",""
"null","<p style=""font-size: 80px;"">+ 0 points</p>","null","html-keyboard-response","102","544416","0.0-11.0-2.101","5c3512d27ab36100015bd89a","hvk4yh","SRL","47","F","{""name"":""Chrome"",""osname"":""Chrome OS"",""chromeos"":true,""chromeBook"":true,""chrome"":true,""version"":""105.0"",""blink"":true,""a"":true}","9:22:49","1","4","Test_3","70","j","0","1325.5","1536 x 864","1536 x 864","true","1","0","","","","",""
"null","<p style=""font-size: 80px;"">+ 10 points</p>","null","html-keyboard-response","103","547002","0.0-11.0-2.102","5c3512d27ab36100015bd89a","hvk4yh","SRL","47","F","{""name"":""Chrome"",""osname"":""Chrome OS"",""chromeos"":true,""chromeBook"":true,""chrome"":true,""version"":""105.0"",""blink"":true,""a"":true}","9:22:49","1","4","Test_3","74","j","1","581.6000000014901","1536 x 864","1536 x 864","true","1","10","","","","",""
"null","<p style=""font-size: 80px;"">+ 10 points</p>","null","html-keyboard-response","104","549627","0.0-11.0-2.103","5c3512d27ab36100015bd89a","hvk4yh","SRL","47","F","{""name"":""Chrome"",""osname"":""Chrome OS"",""chromeos"":true,""chromeBook"":true,""chrome"":true,""version"":""105.0"",""blink"":true,""a"":true}","9:22:49","1","4","Test_1","74","j","1","620.7000000029802","1536 x 864","1536 x 864","true","1","10","","","","",""
"null","<p style=""font-size: 80px;"">+ 10 points</p>","null","html-keyboard-response","105","552372","0.0-11.0-2.104","5c3512d27ab36100015bd89a","hvk4yh","SRL","47","F","{""name"":""Chrome"",""osname"":""Chrome OS"",""chromeos"":true,""chromeBook"":true,""chrome"":true,""version"":""105.0"",""blink"":true,""a"":true}","9:22:49","1","4","Test_2","70","f","1","740.5","1536 x 864","1536 x 864","true","1","10","","","","",""
"null","<p style=""font-size: 80px;"">+ 10 points</p>","null","html-keyboard-response","106","555126","0.0-11.0-2.105","5c3512d27ab36100015bd89a","hvk4yh","SRL","47","F","{""name"":""Chrome"",""osname"":""Chrome OS"",""chromeos"":true,""chromeBook"":true,""chrome"":true,""version"":""105.0"",""blink"":true,""a"":true}","9:22:49","1","4","Test_4","70","f","1","750.5999999977648","1536 x 864","1536 x 864","true","1","10","","","","",""
"null","<p style=""font-size: 80px;"">+ 10 points</p>","null","html-keyboard-response","107","558042","0.0-11.0-2.106","5c3512d27ab36100015bd89a","hvk4yh","SRL","47","F","{""name"":""Chrome"",""osname"":""Chrome OS"",""chromeos"":true,""chromeBook"":true,""chrome"":true,""version"":""105.0"",""blink"":true,""a"":true}","9:22:49","1","4","Test_1","74","j","1","912.7000000029802","1536 x 864","1536 x 864","true","1","10","","","","",""
"null","<p style=""font-size: 80px;"">+ 10 points</p>","null","html-keyboard-response","108","560756","0.0-11.0-2.107","5c3512d27ab36100015bd89a","hvk4yh","SRL","47","F","{""name"":""Chrome"",""osname"":""Chrome OS"",""chromeos"":true,""chromeBook"":true,""chrome"":true,""version"":""105.0"",""blink"":true,""a"":true}","9:22:49","1","4","Test_4","70","f","1","709.8999999985099","1536 x 864","1536 x 864","true","1","10","","","","",""
"null","<p style=""font-size: 80px;"">+ 10 points</p>","null","html-keyboard-response","109","563513","0.0-11.0-2.108","5c3512d27ab36100015bd89a","hvk4yh","SRL","47","F","{""name"":""Chrome"",""osname"":""Chrome OS"",""chromeos"":true,""chromeBook"":true,""chrome"":true,""version"":""105.0"",""blink"":true,""a"":true}","9:22:49","1","4","Test_2","70","f","1","752.2000000029802","1536 x 864","1536 x 864","true","1","10","","","","",""
"null","<p style=""font-size: 80px;"">+ 10 points</p>","null","html-keyboard-response","110","581070","0.0-11.0-2.109","5c3512d27ab36100015bd89a","hvk4yh","SRL","47","F","{""name"":""Chrome"",""osname"":""Chrome OS"",""chromeos"":true,""chromeBook"":true,""chrome"":true,""version"":""105.0"",""blink"":true,""a"":true}","9:22:49","1","4","Test_4","70","f","1","2553.699999999255","1536 x 864","1536 x 864","true","1","10","","","","",""
"null","<p style=""font-size: 80px;"">+ 10 points</p>","null","html-keyboard-response","111","583771","0.0-11.0-2.110","5c3512d27ab36100015bd89a","hvk4yh","SRL","47","F","{""name"":""Chrome"",""osname"":""Chrome OS"",""chromeos"":true,""chromeBook"":true,""chrome"":true,""version"":""105.0"",""blink"":true,""a"":true}","9:22:49","1","4","Test_3","74","j","1","691.8000000007451","1536 x 864","1536 x 864","true","1","10","","","","",""
"null","<p style=""font-size: 80px;"">+ 10 points</p>","null","html-keyboard-response","112","586356","0.0-11.0-2.111","5c3512d27ab36100015bd89a","hvk4yh","SRL","47","F","{""name"":""Chrome"",""osname"":""Chrome OS"",""chromeos"":true,""chromeBook"":true,""chrome"":true,""version"":""105.0"",""blink"":true,""a"":true}","9:22:49","1","4","Test_4","70","f","1","581.1999999992549","1536 x 864","1536 x 864","true","1","10","","","","",""
"null","<p style=""font-size: 80px;"">+ 10 points</p>","null","html-keyboard-response","113","589017","0.0-11.0-2.112","5c3512d27ab36100015bd89a","hvk4yh","SRL","47","F","{""name"":""Chrome"",""osname"":""Chrome OS"",""chromeos"":true,""chromeBook"":true,""chrome"":true,""version"":""105.0"",""blink"":true,""a"":true}","9:22:49","1","4","Test_1","74","j","1","657.1999999992549","1536 x 864","1536 x 864","true","1","10","","","","",""
"null","<p style=""font-size: 80px;"">+ 10 points</p>","null","html-keyboard-response","114","591807","0.0-11.0-2.113","5c3512d27ab36100015bd89a","hvk4yh","SRL","47","F","{""name"":""Chrome"",""osname"":""Chrome OS"",""chromeos"":true,""chromeBook"":true,""chrome"":true,""version"":""105.0"",""blink"":true,""a"":true}","9:22:49","1","4","Test_2","70","f","1","785.6000000014901","1536 x 864","1536 x 864","true","1","10","","","","",""
"null","<p style=""font-size: 80px;"">+ 10 points</p>","null","html-keyboard-response","115","594808","0.0-11.0-2.114","5c3512d27ab36100015bd89a","hvk4yh","SRL","47","F","{""name"":""Chrome"",""osname"":""Chrome OS"",""chromeos"":true,""chromeBook"":true,""chrome"":true,""version"":""105.0"",""blink"":true,""a"":true}","9:22:49","1","4","Test_1","74","j","1","997.3999999985099","1536 x 864","1536 x 864","true","1","10","","","","",""
"null","<p style=""font-size: 80px;"">+ 10 points</p>","null","html-keyboard-response","116","598042","0.0-11.0-2.115","5c3512d27ab36100015bd89a","hvk4yh","SRL","47","F","{""name"":""Chrome"",""osname"":""Chrome OS"",""chromeos"":true,""chromeBook"":true,""chrome"":true,""version"":""105.0"",""blink"":true,""a"":true}","9:22:49","1","4","Test_3","74","j","1","1229.699999999255","1536 x 864","1536 x 864","true","1","10","","","","",""
"null","<p style=""font-size: 80px;"">+ 10 points</p>","null","html-keyboard-response","117","600609","0.0-11.0-2.116","5c3512d27ab36100015bd89a","hvk4yh","SRL","47","F","{""name"":""Chrome"",""osname"":""Chrome OS"",""chromeos"":true,""chromeBook"":true,""chrome"":true,""version"":""105.0"",""blink"":true,""a"":true}","9:22:49","1","4","Test_2","70","f","1","562.2000000029802","1536 x 864","1536 x 864","true","1","10","","","","",""
"null","<p style=""font-size: 80px;"">+ 0 points</p>","null","html-keyboard-response","118","603633","0.0-11.0-2.117","5c3512d27ab36100015bd89a","hvk4yh","SRL","47","F","{""name"":""Chrome"",""osname"":""Chrome OS"",""chromeos"":true,""chromeBook"":true,""chrome"":true,""version"":""105.0"",""blink"":true,""a"":true}","9:22:49","1","3","Test_1","74","f","0","1019.6999999992549","1536 x 864","1536 x 864","true","1","0","","","","",""
"null","<p style=""font-size: 80px;"">+ 10 points</p>","null","html-keyboard-response","119","607170","0.0-11.0-2.118","5c3512d27ab36100015bd89a","hvk4yh","SRL","47","F","{""name"":""Chrome"",""osname"":""Chrome OS"",""chromeos"":true,""chromeBook"":true,""chrome"":true,""version"":""105.0"",""blink"":true,""a"":true}","9:22:49","1","3","Test_2","74","j","1","1532.5999999977648","1536 x 864","1536 x 864","true","1","10","","","","",""
"null","<p style=""font-size: 80px;"">+ 10 points</p>","null","html-keyboard-response","120","609995","0.0-11.0-2.119","5c3512d27ab36100015bd89a","hvk4yh","SRL","47","F","{""name"":""Chrome"",""osname"":""Chrome OS"",""chromeos"":true,""chromeBook"":true,""chrome"":true,""version"":""105.0"",""blink"":true,""a"":true}","9:22:49","1","3","Test_2","74","j","1","821.0999999977648","1536 x 864","1536 x 864","true","1","10","","","","",""
"null","<p style=""font-size: 80px;"">+ 10 points</p>","null","html-keyboard-response","121","612714","0.0-11.0-2.120","5c3512d27ab36100015bd89a","hvk4yh","SRL","47","F","{""name"":""Chrome"",""osname"":""Chrome OS"",""chromeos"":true,""chromeBook"":true,""chrome"":true,""version"":""105.0"",""blink"":true,""a"":true}","9:22:49","1","3","Test_3","70","f","1","714.3000000007451","1536 x 864","1536 x 864","true","1","10","","","","",""
"null","<p style=""font-size: 80px;"">+ 10 points</p>","null","html-keyboard-response","122","615337","0.0-11.0-2.121","5c3512d27ab36100015bd89a","hvk4yh","SRL","47","F","{""name"":""Chrome"",""osname"":""Chrome OS"",""chromeos"":true,""chromeBook"":true,""chrome"":true,""version"":""105.0"",""blink"":true,""a"":true}","9:22:49","1","3","Test_1","70","f","1","618.5","1536 x 864","1536 x 864","true","1","10","","","","",""
"null","<p style=""font-size: 80px;"">+ 10 points</p>","null","html-keyboard-response","123","617750","0.0-11.0-2.122","5c3512d27ab36100015bd89a","hvk4yh","SRL","47","F","{""name"":""Chrome"",""osname"":""Chrome OS"",""chromeos"":true,""chromeBook"":true,""chrome"":true,""version"":""105.0"",""blink"":true,""a"":true}","9:22:49","1","3","Test_1","70","f","1","408.69999999925494","1536 x 864","1536 x 864","true","1","10","","","","",""
"null","<p style=""font-size: 80px;"">+ 10 points</p>","null","html-keyboard-response","124","620701","0.0-11.0-2.123","5c3512d27ab36100015bd89a","hvk4yh","SRL","47","F","{""name"":""Chrome"",""osname"":""Chrome OS"",""chromeos"":true,""chromeBook"":true,""chrome"":true,""version"":""105.0"",""blink"":true,""a"":true}","9:22:49","1","3","Test_3","70","f","1","946.1000000014901","1536 x 864","1536 x 864","true","1","10","","","","",""
"null","<p style=""font-size: 80px;"">+ 10 points</p>","null","html-keyboard-response","125","623369","0.0-11.0-2.124","5c3512d27ab36100015bd89a","hvk4yh","SRL","47","F","{""name"":""Chrome"",""osname"":""Chrome OS"",""chromeos"":true,""chromeBook"":true,""chrome"":true,""version"":""105.0"",""blink"":true,""a"":true}","9:22:49","1","3","Test_4","74","j","1","664.6000000014901","1536 x 864","1536 x 864","true","1","10","","","","",""
"null","<p style=""font-size: 80px;"">+ 10 points</p>","null","html-keyboard-response","126","625838","0.0-11.0-2.125","5c3512d27ab36100015bd89a","hvk4yh","SRL","47","F","{""name"":""Chrome"",""osname"":""Chrome OS"",""chromeos"":true,""chromeBook"":true,""chrome"":true,""version"":""105.0"",""blink"":true,""a"":true}","9:22:49","1","3","Test_4","74","j","1","464.70000000298023","1536 x 864","1536 x 864","true","1","10","","","","",""
"null","<p style=""font-size: 80px;"">+ 10 points</p>","null","html-keyboard-response","127","628408","0.0-11.0-2.126","5c3512d27ab36100015bd89a","hvk4yh","SRL","47","F","{""name"":""Chrome"",""osname"":""Chrome OS"",""chromeos"":true,""chromeBook"":true,""chrome"":true,""version"":""105.0"",""blink"":true,""a"":true}","9:22:49","1","3","Test_3","70","f","1","565.6999999992549","1536 x 864","1536 x 864","true","1","10","","","","",""
"null","<p style=""font-size: 80px;"">+ 10 points</p>","null","html-keyboard-response","128","630932","0.0-11.0-2.127","5c3512d27ab36100015bd89a","hvk4yh","SRL","47","F","{""name"":""Chrome"",""osname"":""Chrome OS"",""chromeos"":true,""chromeBook"":true,""chrome"":true,""version"":""105.0"",""blink"":true,""a"":true}","9:22:49","1","3","Test_4","74","j","1","521.1999999992549","1536 x 864","1536 x 864","true","1","10","","","","",""
"null","<p style=""font-size: 80px;"">+ 10 points</p>","null","html-keyboard-response","129","633782","0.0-11.0-2.128","5c3512d27ab36100015bd89a","hvk4yh","SRL","47","F","{""name"":""Chrome"",""osname"":""Chrome OS"",""chromeos"":true,""chromeBook"":true,""chrome"":true,""version"":""105.0"",""blink"":true,""a"":true}","9:22:49","1","3","Test_2","74","j","1","845.3000000007451","1536 x 864","1536 x 864","true","1","10","","","","",""
"null","<p style=""font-size: 80px;"">+ 10 points</p>","null","html-keyboard-response","130","637143","0.0-11.0-2.129","5c3512d27ab36100015bd89a","hvk4yh","SRL","47","F","{""name"":""Chrome"",""osname"":""Chrome OS"",""chromeos"":true,""chromeBook"":true,""chrome"":true,""version"":""105.0"",""blink"":true,""a"":true}","9:22:49","1","3","Test_4","74","j","1","1356.3999999985099","1536 x 864","1536 x 864","true","1","10","","","","",""
"null","<p style=""font-size: 80px;"">+ 10 points</p>","null","html-keyboard-response","131","639744","0.0-11.0-2.130","5c3512d27ab36100015bd89a","hvk4yh","SRL","47","F","{""name"":""Chrome"",""osname"":""Chrome OS"",""chromeos"":true,""chromeBook"":true,""chrome"":true,""version"":""105.0"",""blink"":true,""a"":true}","9:22:49","1","3","Test_3","70","f","1","596.5999999977648","1536 x 864","1536 x 864","true","1","10","","","","",""
"null","<p style=""font-size: 80px;"">+ 10 points</p>","null","html-keyboard-response","132","642221","0.0-11.0-2.131","5c3512d27ab36100015bd89a","hvk4yh","SRL","47","F","{""name"":""Chrome"",""osname"":""Chrome OS"",""chromeos"":true,""chromeBook"":true,""chrome"":true,""version"":""105.0"",""blink"":true,""a"":true}","9:22:49","1","3","Test_1","70","f","1","473.3999999985099","1536 x 864","1536 x 864","true","1","10","","","","",""
"null","<p style=""font-size: 80px;"">+ 10 points</p>","null","html-keyboard-response","133","644705","0.0-11.0-2.132","5c3512d27ab36100015bd89a","hvk4yh","SRL","47","F","{""name"":""Chrome"",""osname"":""Chrome OS"",""chromeos"":true,""chromeBook"":true,""chrome"":true,""version"":""105.0"",""blink"":true,""a"":true}","9:22:49","1","3","Test_4","74","j","1","480.19999999925494","1536 x 864","1536 x 864","true","1","10","","","","",""
"null","<p style=""font-size: 80px;"">+ 10 points</p>","null","html-keyboard-response","134","647080","0.0-11.0-2.133","5c3512d27ab36100015bd89a","hvk4yh","SRL","47","F","{""name"":""Chrome"",""osname"":""Chrome OS"",""chromeos"":true,""chromeBook"":true,""chrome"":true,""version"":""105.0"",""blink"":true,""a"":true}","9:22:49","1","3","Test_3","70","f","1","371.19999999925494","1536 x 864","1536 x 864","true","1","10","","","","",""
"null","<p style=""font-size: 80px;"">+ 10 points</p>","null","html-keyboard-response","135","649821","0.0-11.0-2.134","5c3512d27ab36100015bd89a","hvk4yh","SRL","47","F","{""name"":""Chrome"",""osname"":""Chrome OS"",""chromeos"":true,""chromeBook"":true,""chrome"":true,""version"":""105.0"",""blink"":true,""a"":true}","9:22:49","1","3","Test_3","70","f","1","736.9000000022352","1536 x 864","1536 x 864","true","1","10","","","","",""
"null","<p style=""font-size: 80px;"">+ 10 points</p>","null","html-keyboard-response","136","652440","0.0-11.0-2.135","5c3512d27ab36100015bd89a","hvk4yh","SRL","47","F","{""name"":""Chrome"",""osname"":""Chrome OS"",""chromeos"":true,""chromeBook"":true,""chrome"":true,""version"":""105.0"",""blink"":true,""a"":true}","9:22:49","1","3","Test_2","74","j","1","614.3000000007451","1536 x 864","1536 x 864","true","1","10","","","","",""
"null","<p style=""font-size: 80px;"">+ 10 points</p>","null","html-keyboard-response","137","655011","0.0-11.0-2.136","5c3512d27ab36100015bd89a","hvk4yh","SRL","47","F","{""name"":""Chrome"",""osname"":""Chrome OS"",""chromeos"":true,""chromeBook"":true,""chrome"":true,""version"":""105.0"",""blink"":true,""a"":true}","9:22:49","1","3","Test_2","74","j","1","566.6000000014901","1536 x 864","1536 x 864","true","1","10","","","","",""
"null","<p style=""font-size: 80px;"">+ 10 points</p>","null","html-keyboard-response","138","657559","0.0-11.0-2.137","5c3512d27ab36100015bd89a","hvk4yh","SRL","47","F","{""name"":""Chrome"",""osname"":""Chrome OS"",""chromeos"":true,""chromeBook"":true,""chrome"":true,""version"":""105.0"",""blink"":true,""a"":true}","9:22:49","1","3","Test_4","74","j","1","543.1999999992549","1536 x 864","1536 x 864","true","1","10","","","","",""
"null","<p style=""font-size: 80px;"">+ 0 points</p>","null","html-keyboard-response","139","659991","0.0-11.0-2.138","5c3512d27ab36100015bd89a","hvk4yh","SRL","47","F","{""name"":""Chrome"",""osname"":""Chrome OS"",""chromeos"":true,""chromeBook"":true,""chrome"":true,""version"":""105.0"",""blink"":true,""a"":true}","9:22:49","1","4","Test_1","70","j","0","428","1536 x 864","1536 x 864","true","1","0","","","","",""
"null","<p style=""font-size: 80px;"">+ 10 points</p>","null","html-keyboard-response","140","662567","0.0-11.0-2.139","5c3512d27ab36100015bd89a","hvk4yh","SRL","47","F","{""name"":""Chrome"",""osname"":""Chrome OS"",""chromeos"":true,""chromeBook"":true,""chrome"":true,""version"":""105.0"",""blink"":true,""a"":true}","9:22:49","1","4","Test_1","74","j","1","572.6999999992549","1536 x 864","1536 x 864","true","1","10","","","","",""
"null","<p style=""font-size: 80px;"">+ 10 points</p>","null","html-keyboard-response","141","665821","0.0-11.0-2.140","5c3512d27ab36100015bd89a","hvk4yh","SRL","47","F","{""name"":""Chrome"",""osname"":""Chrome OS"",""chromeos"":true,""chromeBook"":true,""chrome"":true,""version"":""105.0"",""blink"":true,""a"":true}","9:22:49","1","4","Test_4","70","f","1","1250.6000000014901","1536 x 864","1536 x 864","true","1","10","","","","",""
"null","<p style=""font-size: 80px;"">+ 10 points</p>","null","html-keyboard-response","142","668772","0.0-11.0-2.141","5c3512d27ab36100015bd89a","hvk4yh","SRL","47","F","{""name"":""Chrome"",""osname"":""Chrome OS"",""chromeos"":true,""chromeBook"":true,""chrome"":true,""version"":""105.0"",""blink"":true,""a"":true}","9:22:49","1","4","Test_3","74","j","1","946.1000000014901","1536 x 864","1536 x 864","true","1","10","","","","",""
"null","<p style=""font-size: 80px;"">+ 10 points</p>","null","html-keyboard-response","143","671416","0.0-11.0-2.142","5c3512d27ab36100015bd89a","hvk4yh","SRL","47","F","{""name"":""Chrome"",""osname"":""Chrome OS"",""chromeos"":true,""chromeBook"":true,""chrome"":true,""version"":""105.0"",""blink"":true,""a"":true}","9:22:49","1","4","Test_3","74","j","1","641.0999999977648","1536 x 864","1536 x 864","true","1","10","","","","",""
"null","<p style=""font-size: 80px;"">+ 10 points</p>","null","html-keyboard-response","144","673881","0.0-11.0-2.143","5c3512d27ab36100015bd89a","hvk4yh","SRL","47","F","{""name"":""Chrome"",""osname"":""Chrome OS"",""chromeos"":true,""chromeBook"":true,""chrome"":true,""version"":""105.0"",""blink"":true,""a"":true}","9:22:49","1","4","Test_2","70","f","1","460","1536 x 864","1536 x 864","true","1","10","","","","",""
"null","<p style=""font-size: 80px;"">+ 10 points</p>","null","html-keyboard-response","145","676583","0.0-11.0-2.144","5c3512d27ab36100015bd89a","hvk4yh","SRL","47","F","{""name"":""Chrome"",""osname"":""Chrome OS"",""chromeos"":true,""chromeBook"":true,""chrome"":true,""version"":""105.0"",""blink"":true,""a"":true}","9:22:49","1","4","Test_4","70","f","1","698.0999999977648","1536 x 864","1536 x 864","true","1","10","","","","",""
"null","<p style=""font-size: 80px;"">+ 10 points</p>","null","html-keyboard-response","146","679324","0.0-11.0-2.145","5c3512d27ab36100015bd89a","hvk4yh","SRL","47","F","{""name"":""Chrome"",""osname"":""Chrome OS"",""chromeos"":true,""chromeBook"":true,""chrome"":true,""version"":""105.0"",""blink"":true,""a"":true}","9:22:49","1","4","Test_3","74","j","1","737.0999999977648","1536 x 864","1536 x 864","true","1","10","","","","",""
"null","<p style=""font-size: 80px;"">+ 10 points</p>","null","html-keyboard-response","147","681907","0.0-11.0-2.146","5c3512d27ab36100015bd89a","hvk4yh","SRL","47","F","{""name"":""Chrome"",""osname"":""Chrome OS"",""chromeos"":true,""chromeBook"":true,""chrome"":true,""version"":""105.0"",""blink"":true,""a"":true}","9:22:49","1","4","Test_2","70","f","1","579.1999999992549","1536 x 864","1536 x 864","true","1","10","","","","",""
"null","<p style=""font-size: 80px;"">+ 10 points</p>","null","html-keyboard-response","148","684481","0.0-11.0-2.147","5c3512d27ab36100015bd89a","hvk4yh","SRL","47","F","{""name"":""Chrome"",""osname"":""Chrome OS"",""chromeos"":true,""chromeBook"":true,""chrome"":true,""version"":""105.0"",""blink"":true,""a"":true}","9:22:49","1","4","Test_3","74","j","1","569.3000000007451","1536 x 864","1536 x 864","true","1","10","","","","",""
"null","<p style=""font-size: 80px;"">+ 10 points</p>","null","html-keyboard-response","149","686969","0.0-11.0-2.148","5c3512d27ab36100015bd89a","hvk4yh","SRL","47","F","{""name"":""Chrome"",""osname"":""Chrome OS"",""chromeos"":true,""chromeBook"":true,""chrome"":true,""version"":""105.0"",""blink"":true,""a"":true}","9:22:49","1","4","Test_3","74","j","1","483.80000000074506","1536 x 864","1536 x 864","true","1","10","","","","",""
"null","<p style=""font-size: 80px;"">+ 10 points</p>","null","html-keyboard-response","150","689525","0.0-11.0-2.149","5c3512d27ab36100015bd89a","hvk4yh","SRL","47","F","{""name"":""Chrome"",""osname"":""Chrome OS"",""chromeos"":true,""chromeBook"":true,""chrome"":true,""version"":""105.0"",""blink"":true,""a"":true}","9:22:49","1","4","Test_4","70","f","1","552.5","1536 x 864","1536 x 864","true","1","10","","","","",""
"null","<p style=""font-size: 80px;"">+ 10 points</p>","null","html-keyboard-response","151","692173","0.0-11.0-2.150","5c3512d27ab36100015bd89a","hvk4yh","SRL","47","F","{""name"":""Chrome"",""osname"":""Chrome OS"",""chromeos"":true,""chromeBook"":true,""chrome"":true,""version"":""105.0"",""blink"":true,""a"":true}","9:22:49","1","4","Test_1","74","j","1","643.5","1536 x 864","1536 x 864","true","1","10","","","","",""
"null","<p style=""font-size: 80px;"">+ 10 points</p>","null","html-keyboard-response","152","694842","0.0-11.0-2.151","5c3512d27ab36100015bd89a","hvk4yh","SRL","47","F","{""name"":""Chrome"",""osname"":""Chrome OS"",""chromeos"":true,""chromeBook"":true,""chrome"":true,""version"":""105.0"",""blink"":true,""a"":true}","9:22:49","1","4","Test_1","74","j","1","665.3000000007451","1536 x 864","1536 x 864","true","1","10","","","","",""
"null","<p style=""font-size: 80px;"">+ 10 points</p>","null","html-keyboard-response","153","697396","0.0-11.0-2.152","5c3512d27ab36100015bd89a","hvk4yh","SRL","47","F","{""name"":""Chrome"",""osname"":""Chrome OS"",""chromeos"":true,""chromeBook"":true,""chrome"":true,""version"":""105.0"",""blink"":true,""a"":true}","9:22:49","1","4","Test_2","70","f","1","550.3999999985099","1536 x 864","1536 x 864","true","1","10","","","","",""
"null","<p style=""font-size: 80px;"">+ 10 points</p>","null","html-keyboard-response","154","699822","0.0-11.0-2.153","5c3512d27ab36100015bd89a","hvk4yh","SRL","47","F","{""name"":""Chrome"",""osname"":""Chrome OS"",""chromeos"":true,""chromeBook"":true,""chrome"":true,""version"":""105.0"",""blink"":true,""a"":true}","9:22:49","1","4","Test_3","74","j","1","421.70000000298023","1536 x 864","1536 x 864","true","1","10","","","","",""
"null","<p style=""font-size: 80px;"">+ 10 points</p>","null","html-keyboard-response","155","702386","0.0-11.0-2.154","5c3512d27ab36100015bd89a","hvk4yh","SRL","47","F","{""name"":""Chrome"",""osname"":""Chrome OS"",""chromeos"":true,""chromeBook"":true,""chrome"":true,""version"":""105.0"",""blink"":true,""a"":true}","9:22:49","1","4","Test_4","70","f","1","559.5","1536 x 864","1536 x 864","true","1","10","","","","",""
"null","<p style=""font-size: 80px;"">+ 10 points</p>","null","html-keyboard-response","156","704831","0.0-11.0-2.155","5c3512d27ab36100015bd89a","hvk4yh","SRL","47","F","{""name"":""Chrome"",""osname"":""Chrome OS"",""chromeos"":true,""chromeBook"":true,""chrome"":true,""version"":""105.0"",""blink"":true,""a"":true}","9:22:49","1","4","Test_1","74","j","1","441.70000000298023","1536 x 864","1536 x 864","true","1","10","","","","",""
"null","<p style=""font-size: 80px;"">+ 10 points</p>","null","html-keyboard-response","157","707321","0.0-11.0-2.156","5c3512d27ab36100015bd89a","hvk4yh","SRL","47","F","{""name"":""Chrome"",""osname"":""Chrome OS"",""chromeos"":true,""chromeBook"":true,""chrome"":true,""version"":""105.0"",""blink"":true,""a"":true}","9:22:49","1","4","Test_4","70","f","1","485","1536 x 864","1536 x 864","true","1","10","","","","",""
"null","<p style=""font-size: 80px;"">+ 10 points</p>","null","html-keyboard-response","158","709900","0.0-11.0-2.157","5c3512d27ab36100015bd89a","hvk4yh","SRL","47","F","{""name"":""Chrome"",""osname"":""Chrome OS"",""chromeos"":true,""chromeBook"":true,""chrome"":true,""version"":""105.0"",""blink"":true,""a"":true}","9:22:49","1","4","Test_2","70","f","1","574.2999999970198","1536 x 864","1536 x 864","true","1","10","","","","",""
"null","<p style=""font-size: 80px;"">+ 10 points</p>","null","html-keyboard-response","159","712358","0.0-11.0-2.158","5c3512d27ab36100015bd89a","hvk4yh","SRL","47","F","{""name"":""Chrome"",""osname"":""Chrome OS"",""chromeos"":true,""chromeBook"":true,""chrome"":true,""version"":""105.0"",""blink"":true,""a"":true}","9:22:49","1","4","Test_2","70","f","1","453.6000000014901","1536 x 864","1536 x 864","true","1","10","","","","",""
"null","<p style=""font-size: 80px;"">+ 10 points</p>","null","html-keyboard-response","160","714753","0.0-11.0-2.159","5c3512d27ab36100015bd89a","hvk4yh","SRL","47","F","{""name"":""Chrome"",""osname"":""Chrome OS"",""chromeos"":true,""chromeBook"":true,""chrome"":true,""version"":""105.0"",""blink"":true,""a"":true}","9:22:49","1","4","Test_2","70","f","1","390.20000000298023","1536 x 864","1536 x 864","true","1","10","","","","",""
"null","<p style=""font-size: 80px;"">+ 0 points</p>","null","html-keyboard-response","161","717109","0.0-11.0-2.160","5c3512d27ab36100015bd89a","hvk4yh","SRL","47","F","{""name"":""Chrome"",""osname"":""Chrome OS"",""chromeos"":true,""chromeBook"":true,""chrome"":true,""version"":""105.0"",""blink"":true,""a"":true}","9:22:49","1","3","Test_2","70","j","0","351.6000000014901","1536 x 864","1536 x 864","true","1","0","","","","",""
"null","<p style=""font-size: 80px;"">+ 10 points</p>","null","html-keyboard-response","162","721086","0.0-11.0-2.161","5c3512d27ab36100015bd89a","hvk4yh","SRL","47","F","{""name"":""Chrome"",""osname"":""Chrome OS"",""chromeos"":true,""chromeBook"":true,""chrome"":true,""version"":""105.0"",""blink"":true,""a"":true}","9:22:49","1","3","Test_1","70","f","1","1973.1000000014901","1536 x 864","1536 x 864","true","1","10","","","","",""
"null","<p style=""font-size: 80px;"">+ 10 points</p>","null","html-keyboard-response","163","723655","0.0-11.0-2.162","5c3512d27ab36100015bd89a","hvk4yh","SRL","47","F","{""name"":""Chrome"",""osname"":""Chrome OS"",""chromeos"":true,""chromeBook"":true,""chrome"":true,""version"":""105.0"",""blink"":true,""a"":true}","9:22:49","1","3","Test_2","74","j","1","565","1536 x 864","1536 x 864","true","1","10","","","","",""
"null","<p style=""font-size: 80px;"">+ 10 points</p>","null","html-keyboard-response","164","726096","0.0-11.0-2.163","5c3512d27ab36100015bd89a","hvk4yh","SRL","47","F","{""name"":""Chrome"",""osname"":""Chrome OS"",""chromeos"":true,""chromeBook"":true,""chrome"":true,""version"":""105.0"",""blink"":true,""a"":true}","9:22:49","1","3","Test_2","74","j","1","436","1536 x 864","1536 x 864","true","1","10","","","","",""
"null","<p style=""font-size: 80px;"">+ 10 points</p>","null","html-keyboard-response","165","728529","0.0-11.0-2.164","5c3512d27ab36100015bd89a","hvk4yh","SRL","47","F","{""name"":""Chrome"",""osname"":""Chrome OS"",""chromeos"":true,""chromeBook"":true,""chrome"":true,""version"":""105.0"",""blink"":true,""a"":true}","9:22:49","1","3","Test_1","70","f","1","429.1000000014901","1536 x 864","1536 x 864","true","1","10","","","","",""
"null","<p style=""font-size: 80px;"">+ 10 points</p>","null","html-keyboard-response","166","731434","0.0-11.0-2.165","5c3512d27ab36100015bd89a","hvk4yh","SRL","47","F","{""name"":""Chrome"",""osname"":""Chrome OS"",""chromeos"":true,""chromeBook"":true,""chrome"":true,""version"":""105.0"",""blink"":true,""a"":true}","9:22:49","1","3","Test_3","70","f","1","901.4000000022352","1536 x 864","1536 x 864","true","1","10","","","","",""
"null","<p style=""font-size: 80px;"">+ 10 points</p>","null","html-keyboard-response","167","733953","0.0-11.0-2.166","5c3512d27ab36100015bd89a","hvk4yh","SRL","47","F","{""name"":""Chrome"",""osname"":""Chrome OS"",""chromeos"":true,""chromeBook"":true,""chrome"":true,""version"":""105.0"",""blink"":true,""a"":true}","9:22:49","1","3","Test_4","74","j","1","514.3999999985099","1536 x 864","1536 x 864","true","1","10","","","","",""
"null","<p style=""font-size: 80px;"">+ 10 points</p>","null","html-keyboard-response","168","736800","0.0-11.0-2.167","5c3512d27ab36100015bd89a","hvk4yh","SRL","47","F","{""name"":""Chrome"",""osname"":""Chrome OS"",""chromeos"":true,""chromeBook"":true,""chrome"":true,""version"":""105.0"",""blink"":true,""a"":true}","9:22:49","1","3","Test_4","74","j","1","843.7000000029802","1536 x 864","1536 x 864","true","1","10","","","","",""
"null","<p style=""font-size: 80px;"">+ 10 points</p>","null","html-keyboard-response","169","739269","0.0-11.0-2.168","5c3512d27ab36100015bd89a","hvk4yh","SRL","47","F","{""name"":""Chrome"",""osname"":""Chrome OS"",""chromeos"":true,""chromeBook"":true,""chrome"":true,""version"":""105.0"",""blink"":true,""a"":true}","9:22:49","1","3","Test_1","70","f","1","464.19999999925494","1536 x 864","1536 x 864","true","1","10","","","","",""
"null","<p style=""font-size: 80px;"">+ 10 points</p>","null","html-keyboard-response","170","741913","0.0-11.0-2.169","5c3512d27ab36100015bd89a","hvk4yh","SRL","47","F","{""name"":""Chrome"",""osname"":""Chrome OS"",""chromeos"":true,""chromeBook"":true,""chrome"":true,""version"":""105.0"",""blink"":true,""a"":true}","9:22:49","1","3","Test_3","70","f","1","639","1536 x 864","1536 x 864","true","1","10","","","","",""
"null","<p style=""font-size: 80px;"">+ 10 points</p>","null","html-keyboard-response","171","744522","0.0-11.0-2.170","5c3512d27ab36100015bd89a","hvk4yh","SRL","47","F","{""name"":""Chrome"",""osname"":""Chrome OS"",""chromeos"":true,""chromeBook"":true,""chrome"":true,""version"":""105.0"",""blink"":true,""a"":true}","9:22:49","1","3","Test_4","74","j","1","605.6000000014901","1536 x 864","1536 x 864","true","1","10","","","","",""
"null","<p style=""font-size: 80px;"">+ 10 points</p>","null","html-keyboard-response","172","747011","0.0-11.0-2.171","5c3512d27ab36100015bd89a","hvk4yh","SRL","47","F","{""name"":""Chrome"",""osname"":""Chrome OS"",""chromeos"":true,""chromeBook"":true,""chrome"":true,""version"":""105.0"",""blink"":true,""a"":true}","9:22:49","1","3","Test_3","70","f","1","484.79999999701977","1536 x 864","1536 x 864","true","1","10","","","","",""
"null","<p style=""font-size: 80px;"">+ 10 points</p>","null","html-keyboard-response","173","749405","0.0-11.0-2.172","5c3512d27ab36100015bd89a","hvk4yh","SRL","47","F","{""name"":""Chrome"",""osname"":""Chrome OS"",""chromeos"":true,""chromeBook"":true,""chrome"":true,""version"":""105.0"",""blink"":true,""a"":true}","9:22:49","1","3","Test_3","70","f","1","389.69999999925494","1536 x 864","1536 x 864","true","1","10","","","","",""
"null","<p style=""font-size: 80px;"">+ 0 points</p>","null","html-keyboard-response","174","751917","0.0-11.0-2.173","5c3512d27ab36100015bd89a","hvk4yh","SRL","47","F","{""name"":""Chrome"",""osname"":""Chrome OS"",""chromeos"":true,""chromeBook"":true,""chrome"":true,""version"":""105.0"",""blink"":true,""a"":true}","9:22:49","1","3","Test_1","74","f","0","507.29999999701977","1536 x 864","1536 x 864","true","1","0","","","","",""
"null","<p style=""font-size: 80px;"">+ 10 points</p>","null","html-keyboard-response","175","754680","0.0-11.0-2.174","5c3512d27ab36100015bd89a","hvk4yh","SRL","47","F","{""name"":""Chrome"",""osname"":""Chrome OS"",""chromeos"":true,""chromeBook"":true,""chrome"":true,""version"":""105.0"",""blink"":true,""a"":true}","9:22:49","1","3","Test_2","74","j","1","758.5999999977648","1536 x 864","1536 x 864","true","1","10","","","","",""
"null","<p style=""font-size: 80px;"">+ 10 points</p>","null","html-keyboard-response","176","757282","0.0-11.0-2.175","5c3512d27ab36100015bd89a","hvk4yh","SRL","47","F","{""name"":""Chrome"",""osname"":""Chrome OS"",""chromeos"":true,""chromeBook"":true,""chrome"":true,""version"":""105.0"",""blink"":true,""a"":true}","9:22:49","1","3","Test_4","74","j","1","596.5","1536 x 864","1536 x 864","true","1","10","","","","",""
"null","<p style=""font-size: 80px;"">+ 0 points</p>","null","html-keyboard-response","177","760089","0.0-11.0-2.176","5c3512d27ab36100015bd89a","hvk4yh","SRL","47","F","{""name"":""Chrome"",""osname"":""Chrome OS"",""chromeos"":true,""chromeBook"":true,""chrome"":true,""version"":""105.0"",""blink"":true,""a"":true}","9:22:49","1","4","Test_2","74","f","0","801.6999999992549","1536 x 864","1536 x 864","true","1","0","","","","",""
"null","<p style=""font-size: 80px;"">+ 10 points</p>","null","html-keyboard-response","178","762658","0.0-11.0-2.177","5c3512d27ab36100015bd89a","hvk4yh","SRL","47","F","{""name"":""Chrome"",""osname"":""Chrome OS"",""chromeos"":true,""chromeBook"":true,""chrome"":true,""version"":""105.0"",""blink"":true,""a"":true}","9:22:49","1","4","Test_2","70","f","1","564.9000000022352","1536 x 864","1536 x 864","true","1","10","","","","",""
"null","<p style=""font-size: 80px;"">+ 10 points</p>","null","html-keyboard-response","179","765468","0.0-11.0-2.178","5c3512d27ab36100015bd89a","hvk4yh","SRL","47","F","{""name"":""Chrome"",""osname"":""Chrome OS"",""chromeos"":true,""chromeBook"":true,""chrome"":true,""version"":""105.0"",""blink"":true,""a"":true}","9:22:49","1","4","Test_3","74","j","1","805","1536 x 864","1536 x 864","true","1","10","","","","",""
"null","<p style=""font-size: 80px;"">+ 10 points</p>","null","html-keyboard-response","180","768281","0.0-11.0-2.179","5c3512d27ab36100015bd89a","hvk4yh","SRL","47","F","{""name"":""Chrome"",""osname"":""Chrome OS"",""chromeos"":true,""chromeBook"":true,""chrome"":true,""version"":""105.0"",""blink"":true,""a"":true}","9:22:49","1","4","Test_1","74","j","1","809.2000000029802","1536 x 864","1536 x 864","true","1","10","","","","",""
"null","<p style=""font-size: 80px;"">+ 10 points</p>","null","html-keyboard-response","181","770719","0.0-11.0-2.180","5c3512d27ab36100015bd89a","hvk4yh","SRL","47","F","{""name"":""Chrome"",""osname"":""Chrome OS"",""chromeos"":true,""chromeBook"":true,""chrome"":true,""version"":""105.0"",""blink"":true,""a"":true}","9:22:49","1","4","Test_2","70","f","1","432.80000000074506","1536 x 864","1536 x 864","true","1","10","","","","",""
"null","<p style=""font-size: 80px;"">+ 10 points</p>","null","html-keyboard-response","182","773340","0.0-11.0-2.181","5c3512d27ab36100015bd89a","hvk4yh","SRL","47","F","{""name"":""Chrome"",""osname"":""Chrome OS"",""chromeos"":true,""chromeBook"":true,""chrome"":true,""version"":""105.0"",""blink"":true,""a"":true}","9:22:49","1","4","Test_1","74","j","1","617.5","1536 x 864","1536 x 864","true","1","10","","","","",""
"null","<p style=""font-size: 80px;"">+ 10 points</p>","null","html-keyboard-response","183","776142","0.0-11.0-2.182","5c3512d27ab36100015bd89a","hvk4yh","SRL","47","F","{""name"":""Chrome"",""osname"":""Chrome OS"",""chromeos"":true,""chromeBook"":true,""chrome"":true,""version"":""105.0"",""blink"":true,""a"":true}","9:22:49","1","4","Test_4","70","f","1","797","1536 x 864","1536 x 864","true","1","10","","","","",""
"null","<p style=""font-size: 80px;"">+ 10 points</p>","null","html-keyboard-response","184","778749","0.0-11.0-2.183","5c3512d27ab36100015bd89a","hvk4yh","SRL","47","F","{""name"":""Chrome"",""osname"":""Chrome OS"",""chromeos"":true,""chromeBook"":true,""chrome"":true,""version"":""105.0"",""blink"":true,""a"":true}","9:22:49","1","4","Test_1","74","j","1","602.7000000029802","1536 x 864","1536 x 864","true","1","10","","","","",""
"null","<p style=""font-size: 80px;"">+ 10 points</p>","null","html-keyboard-response","185","781291","0.0-11.0-2.184","5c3512d27ab36100015bd89a","hvk4yh","SRL","47","F","{""name"":""Chrome"",""osname"":""Chrome OS"",""chromeos"":true,""chromeBook"":true,""chrome"":true,""version"":""105.0"",""blink"":true,""a"":true}","9:22:49","1","4","Test_2","70","f","1","537.3000000007451","1536 x 864","1536 x 864","true","1","10","","","","",""
"null","<p style=""font-size: 80px;"">+ 10 points</p>","null","html-keyboard-response","186","783732","0.0-11.0-2.185","5c3512d27ab36100015bd89a","hvk4yh","SRL","47","F","{""name"":""Chrome"",""osname"":""Chrome OS"",""chromeos"":true,""chromeBook"":true,""chrome"":true,""version"":""105.0"",""blink"":true,""a"":true}","9:22:49","1","4","Test_3","74","j","1","437.0999999977648","1536 x 864","1536 x 864","true","1","10","","","","",""
"null","<p style=""font-size: 80px;"">+ 10 points</p>","null","html-keyboard-response","187","786125","0.0-11.0-2.186","5c3512d27ab36100015bd89a","hvk4yh","SRL","47","F","{""name"":""Chrome"",""osname"":""Chrome OS"",""chromeos"":true,""chromeBook"":true,""chrome"":true,""version"":""105.0"",""blink"":true,""a"":true}","9:22:49","1","4","Test_3","74","j","1","389","1536 x 864","1536 x 864","true","1","10","","","","",""
