"rt","stimulus","key_press","trial_type","trial_index","time_elapsed","internal_node_id","Prolific_ID","random_ID","initials","age","gender","pc_info","start_time","Phase","Rule","Stimulus","Response","CorrResp","Accuracy","ResponseTime","screen_resolution","window_resolution","focus","relevant","Points","responses","question_order","rev_check","butterfly_check","passed_practice"
"null","<p style=""font-size: 80px;"">+ 10 points</p>","null","html-keyboard-response","1","80214","0.0-7.0-2.0","5ee3682ff11a7802de2e11e1","vq1uf7","LM","22","M","{""name"":""Chrome"",""chrome"":true,""version"":""106.0"",""blink"":true,""windows"":true,""osname"":""Windows"",""osversion"":""10"",""a"":true}","9:13:58","0","1","Practice_1","70","f","1","1202.2000000476837","1920 x 1080","1920 x 1080","true","1","10","","","","",""
"null","<p style=""font-size: 80px;"">+ 0 points</p>","null","html-keyboard-response","2","83079","0.0-7.0-2.1","5ee3682ff11a7802de2e11e1","vq1uf7","LM","22","M","{""name"":""Chrome"",""chrome"":true,""version"":""106.0"",""blink"":true,""windows"":true,""osname"":""Windows"",""osversion"":""10"",""a"":true}","9:13:58","0","1","Practice_2","70","j","0","846.7000000476837","1920 x 1080","1920 x 1080","true","1","0","","","","",""
"null","<p style=""font-size: 80px;"">+ 0 points</p>","null","html-keyboard-response","3","86454","0.0-7.0-2.2","5ee3682ff11a7802de2e11e1","vq1uf7","LM","22","M","{""name"":""Chrome"",""chrome"":true,""version"":""106.0"",""blink"":true,""windows"":true,""osname"":""Windows"",""osversion"":""10"",""a"":true}","9:13:58","0","1","Practice_2","70","j","0","1354.2000000476837","1920 x 1080","1920 x 1080","true","1","0","","","","",""
"null","<p style=""font-size: 80px;"">+ 0 points</p>","null","html-keyboard-response","4","89878","0.0-7.0-2.3","5ee3682ff11a7802de2e11e1","vq1uf7","LM","22","M","{""name"":""Chrome"",""chrome"":true,""version"":""106.0"",""blink"":true,""windows"":true,""osname"":""Windows"",""osversion"":""10"",""a"":true}","9:13:58","0","1","Practice_4","70","j","0","1405.2999999523163","1920 x 1080","1920 x 1080","true","1","0","","","","",""
"null","<p style=""font-size: 80px;"">+ 0 points</p>","null","html-keyboard-response","5","92924","0.0-7.0-2.4","5ee3682ff11a7802de2e11e1","vq1uf7","LM","22","M","{""name"":""Chrome"",""chrome"":true,""version"":""106.0"",""blink"":true,""windows"":true,""osname"":""Windows"",""osversion"":""10"",""a"":true}","9:13:58","0","1","Practice_1","74","f","0","1017.8000001907349","1920 x 1080","1920 x 1080","true","1","0","","","","",""
"null","<p style=""font-size: 80px;"">+ 0 points</p>","null","html-keyboard-response","6","96482","0.0-7.0-2.5","5ee3682ff11a7802de2e11e1","vq1uf7","LM","22","M","{""name"":""Chrome"",""chrome"":true,""version"":""106.0"",""blink"":true,""windows"":true,""osname"":""Windows"",""osversion"":""10"",""a"":true}","9:13:58","0","1","Practice_3","74","f","0","1538.5999999046326","1920 x 1080","1920 x 1080","true","1","0","","","","",""
"null","<p style=""font-size: 80px;"">+ 10 points</p>","null","html-keyboard-response","7","99254","0.0-7.0-2.6","5ee3682ff11a7802de2e11e1","vq1uf7","LM","22","M","{""name"":""Chrome"",""chrome"":true,""version"":""106.0"",""blink"":true,""windows"":true,""osname"":""Windows"",""osversion"":""10"",""a"":true}","9:13:58","0","1","Practice_1","70","f","1","747.7999999523163","1920 x 1080","1920 x 1080","true","1","10","","","","",""
"null","<p style=""font-size: 80px;"">+ 10 points</p>","null","html-keyboard-response","8","102327","0.0-7.0-2.7","5ee3682ff11a7802de2e11e1","vq1uf7","LM","22","M","{""name"":""Chrome"",""chrome"":true,""version"":""106.0"",""blink"":true,""windows"":true,""osname"":""Windows"",""osversion"":""10"",""a"":true}","9:13:58","0","1","Practice_3","70","f","1","1055.2000000476837","1920 x 1080","1920 x 1080","true","1","10","","","","",""
"null","<p style=""font-size: 80px;"">+ 10 points</p>","null","html-keyboard-response","9","106265","0.0-7.0-2.8","5ee3682ff11a7802de2e11e1","vq1uf7","LM","22","M","{""name"":""Chrome"",""chrome"":true,""version"":""106.0"",""blink"":true,""windows"":true,""osname"":""Windows"",""osversion"":""10"",""a"":true}","9:13:58","0","1","Practice_2","74","j","1","1928.0999999046326","1920 x 1080","1920 x 1080","true","1","10","","","","",""
"null","<p style=""font-size: 80px;"">+ 10 points</p>","null","html-keyboard-response","10","109653","0.0-7.0-2.9","5ee3682ff11a7802de2e11e1","vq1uf7","LM","22","M","{""name"":""Chrome"",""chrome"":true,""version"":""106.0"",""blink"":true,""windows"":true,""osname"":""Windows"",""osversion"":""10"",""a"":true}","9:13:58","0","1","Practice_3","70","f","1","1356.8000001907349","1920 x 1080","1920 x 1080","true","1","10","","","","",""
"null","<p style=""font-size: 80px;"">+ 10 points</p>","null","html-keyboard-response","11","112617","0.0-7.0-2.10","5ee3682ff11a7802de2e11e1","vq1uf7","LM","22","M","{""name"":""Chrome"",""chrome"":true,""version"":""106.0"",""blink"":true,""windows"":true,""osname"":""Windows"",""osversion"":""10"",""a"":true}","9:13:58","0","1","Practice_3","70","f","1","954.1000001430511","1920 x 1080","1920 x 1080","true","1","10","","","","",""
"null","<p style=""font-size: 80px;"">+ 10 points</p>","null","html-keyboard-response","12","115648","0.0-7.0-2.11","5ee3682ff11a7802de2e11e1","vq1uf7","LM","22","M","{""name"":""Chrome"",""chrome"":true,""version"":""106.0"",""blink"":true,""windows"":true,""osname"":""Windows"",""osversion"":""10"",""a"":true}","9:13:58","0","1","Practice_2","74","j","1","1018.8000001907349","1920 x 1080","1920 x 1080","true","1","10","","","","",""
"null","<p style=""font-size: 80px;"">+ 10 points</p>","null","html-keyboard-response","13","118896","0.0-7.0-2.12","5ee3682ff11a7802de2e11e1","vq1uf7","LM","22","M","{""name"":""Chrome"",""chrome"":true,""version"":""106.0"",""blink"":true,""windows"":true,""osname"":""Windows"",""osversion"":""10"",""a"":true}","9:13:58","0","1","Practice_2","74","j","1","1220.6000001430511","1920 x 1080","1920 x 1080","true","1","10","","","","",""
"null","<p style=""font-size: 80px;"">+ 10 points</p>","null","html-keyboard-response","14","121785","0.0-7.0-2.13","5ee3682ff11a7802de2e11e1","vq1uf7","LM","22","M","{""name"":""Chrome"",""chrome"":true,""version"":""106.0"",""blink"":true,""windows"":true,""osname"":""Windows"",""osversion"":""10"",""a"":true}","9:13:58","0","1","Practice_1","70","f","1","876","1920 x 1080","1920 x 1080","true","1","10","","","","",""
"null","<p style=""font-size: 80px;"">+ 10 points</p>","null","html-keyboard-response","15","124408","0.0-7.0-2.14","5ee3682ff11a7802de2e11e1","vq1uf7","LM","22","M","{""name"":""Chrome"",""chrome"":true,""version"":""106.0"",""blink"":true,""windows"":true,""osname"":""Windows"",""osversion"":""10"",""a"":true}","9:13:58","0","1","Practice_3","70","f","1","600.6999998092651","1920 x 1080","1920 x 1080","true","1","10","","","","",""
"null","<p style=""font-size: 80px;"">+ 10 points</p>","null","html-keyboard-response","16","127313","0.0-7.0-2.15","5ee3682ff11a7802de2e11e1","vq1uf7","LM","22","M","{""name"":""Chrome"",""chrome"":true,""version"":""106.0"",""blink"":true,""windows"":true,""osname"":""Windows"",""osversion"":""10"",""a"":true}","9:13:58","0","1","Practice_4","74","j","1","886","1920 x 1080","1920 x 1080","true","1","10","","","","",""
"null","<p style=""font-size: 80px;"">+ 10 points</p>","null","html-keyboard-response","17","130499","0.0-7.0-2.16","5ee3682ff11a7802de2e11e1","vq1uf7","LM","22","M","{""name"":""Chrome"",""chrome"":true,""version"":""106.0"",""blink"":true,""windows"":true,""osname"":""Windows"",""osversion"":""10"",""a"":true}","9:13:58","0","1","Practice_4","74","j","1","1165.5","1920 x 1080","1920 x 1080","true","1","10","","","","",""
"null","<p style=""font-size: 80px;"">+ 10 points</p>","null","html-keyboard-response","18","133114","0.0-7.0-2.17","5ee3682ff11a7802de2e11e1","vq1uf7","LM","22","M","{""name"":""Chrome"",""chrome"":true,""version"":""106.0"",""blink"":true,""windows"":true,""osname"":""Windows"",""osversion"":""10"",""a"":true}","9:13:58","0","1","Practice_4","74","j","1","591","1920 x 1080","1920 x 1080","true","1","10","","","","",""
"null","<p style=""font-size: 80px;"">+ 10 points</p>","null","html-keyboard-response","19","135995","0.0-7.0-2.18","5ee3682ff11a7802de2e11e1","vq1uf7","LM","22","M","{""name"":""Chrome"",""chrome"":true,""version"":""106.0"",""blink"":true,""windows"":true,""osname"":""Windows"",""osversion"":""10"",""a"":true}","9:13:58","0","1","Practice_1","70","f","1","862.3999998569489","1920 x 1080","1920 x 1080","true","1","10","","","","",""
"null","<p style=""font-size: 80px;"">+ 10 points</p>","null","html-keyboard-response","20","139026","0.0-7.0-2.19","5ee3682ff11a7802de2e11e1","vq1uf7","LM","22","M","{""name"":""Chrome"",""chrome"":true,""version"":""106.0"",""blink"":true,""windows"":true,""osname"":""Windows"",""osversion"":""10"",""a"":true}","9:13:58","0","1","Practice_4","74","j","1","1010.1000001430511","1920 x 1080","1920 x 1080","true","1","10","","","","",""
"null","<p style=""font-size: 80px;"">+ 0 points</p>","null","html-keyboard-response","21","141946","0.0-7.0-2.20","5ee3682ff11a7802de2e11e1","vq1uf7","LM","22","M","{""name"":""Chrome"",""chrome"":true,""version"":""106.0"",""blink"":true,""windows"":true,""osname"":""Windows"",""osversion"":""10"",""a"":true}","9:13:58","0","2","Practice_4","74","f","0","905.4000000953674","1920 x 1080","1920 x 1080","true","1","0","","","","",""
"null","<p style=""font-size: 80px;"">+ 10 points</p>","null","html-keyboard-response","22","144845","0.0-7.0-2.21","5ee3682ff11a7802de2e11e1","vq1uf7","LM","22","M","{""name"":""Chrome"",""chrome"":true,""version"":""106.0"",""blink"":true,""windows"":true,""osname"":""Windows"",""osversion"":""10"",""a"":true}","9:13:58","0","2","Practice_1","74","j","1","872.2000000476837","1920 x 1080","1920 x 1080","true","1","10","","","","",""
"null","<p style=""font-size: 80px;"">+ 0 points</p>","null","html-keyboard-response","23","147939","0.0-7.0-2.22","5ee3682ff11a7802de2e11e1","vq1uf7","LM","22","M","{""name"":""Chrome"",""chrome"":true,""version"":""106.0"",""blink"":true,""windows"":true,""osname"":""Windows"",""osversion"":""10"",""a"":true}","9:13:58","0","2","Practice_2","74","f","0","1076.1000001430511","1920 x 1080","1920 x 1080","true","1","0","","","","",""
"null","<p style=""font-size: 80px;"">+ 10 points</p>","null","html-keyboard-response","24","150811","0.0-7.0-2.23","5ee3682ff11a7802de2e11e1","vq1uf7","LM","22","M","{""name"":""Chrome"",""chrome"":true,""version"":""106.0"",""blink"":true,""windows"":true,""osname"":""Windows"",""osversion"":""10"",""a"":true}","9:13:58","0","2","Practice_4","70","f","1","857.7000000476837","1920 x 1080","1920 x 1080","true","1","10","","","","",""
"null","<p style=""font-size: 80px;"">+ 10 points</p>","null","html-keyboard-response","25","153782","0.0-7.0-2.24","5ee3682ff11a7802de2e11e1","vq1uf7","LM","22","M","{""name"":""Chrome"",""chrome"":true,""version"":""106.0"",""blink"":true,""windows"":true,""osname"":""Windows"",""osversion"":""10"",""a"":true}","9:13:58","0","2","Practice_2","70","f","1","957.6000001430511","1920 x 1080","1920 x 1080","true","1","10","","","","",""
"null","<p style=""font-size: 80px;"">+ 10 points</p>","null","html-keyboard-response","26","156952","0.0-7.0-2.25","5ee3682ff11a7802de2e11e1","vq1uf7","LM","22","M","{""name"":""Chrome"",""chrome"":true,""version"":""106.0"",""blink"":true,""windows"":true,""osname"":""Windows"",""osversion"":""10"",""a"":true}","9:13:58","0","2","Practice_3","74","j","1","1157.5","1920 x 1080","1920 x 1080","true","1","10","","","","",""
"null","<p style=""font-size: 80px;"">+ 10 points</p>","null","html-keyboard-response","27","159743","0.0-7.0-2.26","5ee3682ff11a7802de2e11e1","vq1uf7","LM","22","M","{""name"":""Chrome"",""chrome"":true,""version"":""106.0"",""blink"":true,""windows"":true,""osname"":""Windows"",""osversion"":""10"",""a"":true}","9:13:58","0","2","Practice_1","74","j","1","765.7999999523163","1920 x 1080","1920 x 1080","true","1","10","","","","",""
"null","<p style=""font-size: 80px;"">+ 10 points</p>","null","html-keyboard-response","28","163366","0.0-7.0-2.27","5ee3682ff11a7802de2e11e1","vq1uf7","LM","22","M","{""name"":""Chrome"",""chrome"":true,""version"":""106.0"",""blink"":true,""windows"":true,""osname"":""Windows"",""osversion"":""10"",""a"":true}","9:13:58","0","2","Practice_3","74","j","1","1609.9000000953674","1920 x 1080","1920 x 1080","true","1","10","","","","",""
"null","<p style=""font-size: 80px;"">+ 10 points</p>","null","html-keyboard-response","29","166419","0.0-7.0-2.28","5ee3682ff11a7802de2e11e1","vq1uf7","LM","22","M","{""name"":""Chrome"",""chrome"":true,""version"":""106.0"",""blink"":true,""windows"":true,""osname"":""Windows"",""osversion"":""10"",""a"":true}","9:13:58","0","2","Practice_1","74","j","1","1033.2999999523163","1920 x 1080","1920 x 1080","true","1","10","","","","",""
"null","<p style=""font-size: 80px;"">+ 10 points</p>","null","html-keyboard-response","30","170062","0.0-7.0-2.29","5ee3682ff11a7802de2e11e1","vq1uf7","LM","22","M","{""name"":""Chrome"",""chrome"":true,""version"":""106.0"",""blink"":true,""windows"":true,""osname"":""Windows"",""osversion"":""10"",""a"":true}","9:13:58","0","2","Practice_1","74","j","1","1618.2999999523163","1920 x 1080","1920 x 1080","true","1","10","","","","",""
"null","<p style=""font-size: 80px;"">+ 10 points</p>","null","html-keyboard-response","31","173222","0.0-7.0-2.30","5ee3682ff11a7802de2e11e1","vq1uf7","LM","22","M","{""name"":""Chrome"",""chrome"":true,""version"":""106.0"",""blink"":true,""windows"":true,""osname"":""Windows"",""osversion"":""10"",""a"":true}","9:13:58","0","2","Practice_2","70","f","1","1140.8999998569489","1920 x 1080","1920 x 1080","true","1","10","","","","",""
"null","<p style=""font-size: 80px;"">+ 10 points</p>","null","html-keyboard-response","32","176466","0.0-7.0-2.31","5ee3682ff11a7802de2e11e1","vq1uf7","LM","22","M","{""name"":""Chrome"",""chrome"":true,""version"":""106.0"",""blink"":true,""windows"":true,""osname"":""Windows"",""osversion"":""10"",""a"":true}","9:13:58","0","2","Practice_3","74","j","1","1230.1999998092651","1920 x 1080","1920 x 1080","true","1","10","","","","",""
"null","<p style=""font-size: 80px;"">+ 0 points</p>","null","html-keyboard-response","33","179289","0.0-7.0-2.32","5ee3682ff11a7802de2e11e1","vq1uf7","LM","22","M","{""name"":""Chrome"",""chrome"":true,""version"":""106.0"",""blink"":true,""windows"":true,""osname"":""Windows"",""osversion"":""10"",""a"":true}","9:13:58","0","2","Practice_1","70","j","0","803.2000000476837","1920 x 1080","1920 x 1080","true","1","0","","","","",""
"null","<p style=""font-size: 80px;"">+ 10 points</p>","null","html-keyboard-response","34","182540","0.0-7.0-2.33","5ee3682ff11a7802de2e11e1","vq1uf7","LM","22","M","{""name"":""Chrome"",""chrome"":true,""version"":""106.0"",""blink"":true,""windows"":true,""osname"":""Windows"",""osversion"":""10"",""a"":true}","9:13:58","0","2","Practice_3","74","j","1","1218.5","1920 x 1080","1920 x 1080","true","1","10","","","","",""
"null","<p style=""font-size: 80px;"">+ 10 points</p>","null","html-keyboard-response","35","185589","0.0-7.0-2.34","5ee3682ff11a7802de2e11e1","vq1uf7","LM","22","M","{""name"":""Chrome"",""chrome"":true,""version"":""106.0"",""blink"":true,""windows"":true,""osname"":""Windows"",""osversion"":""10"",""a"":true}","9:13:58","0","2","Practice_3","74","j","1","1025.1000001430511","1920 x 1080","1920 x 1080","true","1","10","","","","",""
"null","<p style=""font-size: 80px;"">+ 10 points</p>","null","html-keyboard-response","36","189050","0.0-7.0-2.35","5ee3682ff11a7802de2e11e1","vq1uf7","LM","22","M","{""name"":""Chrome"",""chrome"":true,""version"":""106.0"",""blink"":true,""windows"":true,""osname"":""Windows"",""osversion"":""10"",""a"":true}","9:13:58","0","2","Practice_2","70","f","1","1448.6000001430511","1920 x 1080","1920 x 1080","true","1","10","","","","",""
"null","<p style=""font-size: 80px;"">+ 10 points</p>","null","html-keyboard-response","37","193207","0.0-7.0-2.36","5ee3682ff11a7802de2e11e1","vq1uf7","LM","22","M","{""name"":""Chrome"",""chrome"":true,""version"":""106.0"",""blink"":true,""windows"":true,""osname"":""Windows"",""osversion"":""10"",""a"":true}","9:13:58","0","2","Practice_4","70","f","1","2134.5999999046326","1920 x 1080","1920 x 1080","true","1","10","","","","",""
"null","<p style=""font-size: 80px;"">+ 10 points</p>","null","html-keyboard-response","38","195969","0.0-7.0-2.37","5ee3682ff11a7802de2e11e1","vq1uf7","LM","22","M","{""name"":""Chrome"",""chrome"":true,""version"":""106.0"",""blink"":true,""windows"":true,""osname"":""Windows"",""osversion"":""10"",""a"":true}","9:13:58","0","2","Practice_4","70","f","1","750.1000001430511","1920 x 1080","1920 x 1080","true","1","10","","","","",""
"null","<p style=""font-size: 80px;"">+ 10 points</p>","null","html-keyboard-response","39","198730","0.0-7.0-2.38","5ee3682ff11a7802de2e11e1","vq1uf7","LM","22","M","{""name"":""Chrome"",""chrome"":true,""version"":""106.0"",""blink"":true,""windows"":true,""osname"":""Windows"",""osversion"":""10"",""a"":true}","9:13:58","0","2","Practice_4","70","f","1","729.9000000953674","1920 x 1080","1920 x 1080","true","1","10","","","","",""
"null","<p style=""font-size: 80px;"">+ 10 points</p>","null","html-keyboard-response","40","201886","0.0-7.0-2.39","5ee3682ff11a7802de2e11e1","vq1uf7","LM","22","M","{""name"":""Chrome"",""chrome"":true,""version"":""106.0"",""blink"":true,""windows"":true,""osname"":""Windows"",""osversion"":""10"",""a"":true}","9:13:58","0","2","Practice_2","70","f","1","1132.5999999046326","1920 x 1080","1920 x 1080","true","1","10","","","","",""
"9903.700000047684","","","survey-multi-choice","127","211792","0.0-8.0","5ee3682ff11a7802de2e11e1","vq1uf7","LM","22","M","{""name"":""Chrome"",""chrome"":true,""version"":""106.0"",""blink"":true,""windows"":true,""osname"":""Windows"",""osversion"":""10"",""a"":true}","9:13:58","","","","","","","","","","","1","","{""Q0"":""The red one"",""Q1"":""1""}","[0,1]","1","The red one","2"
"null","<p style=""font-size: 80px;"">+ 10 points</p>","null","html-keyboard-response","1","228677","0.0-11.0-2.0","5ee3682ff11a7802de2e11e1","vq1uf7","LM","22","M","{""name"":""Chrome"",""chrome"":true,""version"":""106.0"",""blink"":true,""windows"":true,""osname"":""Windows"",""osversion"":""10"",""a"":true}","9:13:58","1","4","Test_2","70","f","1","1395.2999999523163","1920 x 1080","1920 x 1080","true","1","10","","","","",""
"null","<p style=""font-size: 80px;"">+ 10 points</p>","null","html-keyboard-response","2","231680","0.0-11.0-2.1","5ee3682ff11a7802de2e11e1","vq1uf7","LM","22","M","{""name"":""Chrome"",""chrome"":true,""version"":""106.0"",""blink"":true,""windows"":true,""osname"":""Windows"",""osversion"":""10"",""a"":true}","9:13:58","1","4","Test_1","74","j","1","993.2999999523163","1920 x 1080","1920 x 1080","true","1","10","","","","",""
"null","<p style=""font-size: 80px;"">+ 10 points</p>","null","html-keyboard-response","3","234662","0.0-11.0-2.2","5ee3682ff11a7802de2e11e1","vq1uf7","LM","22","M","{""name"":""Chrome"",""chrome"":true,""version"":""106.0"",""blink"":true,""windows"":true,""osname"":""Windows"",""osversion"":""10"",""a"":true}","9:13:58","1","4","Test_4","70","f","1","964.6000001430511","1920 x 1080","1920 x 1080","true","1","10","","","","",""
"null","<p style=""font-size: 80px;"">+ 10 points</p>","null","html-keyboard-response","4","237873","0.0-11.0-2.3","5ee3682ff11a7802de2e11e1","vq1uf7","LM","22","M","{""name"":""Chrome"",""chrome"":true,""version"":""106.0"",""blink"":true,""windows"":true,""osname"":""Windows"",""osversion"":""10"",""a"":true}","9:13:58","1","4","Test_2","70","f","1","1192.0999999046326","1920 x 1080","1920 x 1080","true","1","10","","","","",""
"null","<p style=""font-size: 80px;"">+ 10 points</p>","null","html-keyboard-response","5","241627","0.0-11.0-2.4","5ee3682ff11a7802de2e11e1","vq1uf7","LM","22","M","{""name"":""Chrome"",""chrome"":true,""version"":""106.0"",""blink"":true,""windows"":true,""osname"":""Windows"",""osversion"":""10"",""a"":true}","9:13:58","1","4","Test_4","70","f","1","1738.7000000476837","1920 x 1080","1920 x 1080","true","1","10","","","","",""
"null","<p style=""font-size: 80px;"">+ 10 points</p>","null","html-keyboard-response","6","244229","0.0-11.0-2.5","5ee3682ff11a7802de2e11e1","vq1uf7","LM","22","M","{""name"":""Chrome"",""chrome"":true,""version"":""106.0"",""blink"":true,""windows"":true,""osname"":""Windows"",""osversion"":""10"",""a"":true}","9:13:58","1","4","Test_2","70","f","1","568.9000000953674","1920 x 1080","1920 x 1080","true","1","10","","","","",""
"null","<p style=""font-size: 80px;"">+ 0 points</p>","null","html-keyboard-response","7","247278","0.0-11.0-2.6","5ee3682ff11a7802de2e11e1","vq1uf7","LM","22","M","{""name"":""Chrome"",""chrome"":true,""version"":""106.0"",""blink"":true,""windows"":true,""osname"":""Windows"",""osversion"":""10"",""a"":true}","9:13:58","1","4","Test_3","70","j","0","1024.5","1920 x 1080","1920 x 1080","true","1","0","","","","",""
"null","<p style=""font-size: 80px;"">+ 10 points</p>","null","html-keyboard-response","8","250177","0.0-11.0-2.7","5ee3682ff11a7802de2e11e1","vq1uf7","LM","22","M","{""name"":""Chrome"",""chrome"":true,""version"":""106.0"",""blink"":true,""windows"":true,""osname"":""Windows"",""osversion"":""10"",""a"":true}","9:13:58","1","4","Test_3","74","j","1","879.4000000953674","1920 x 1080","1920 x 1080","true","1","10","","","","",""
"null","<p style=""font-size: 80px;"">+ 10 points</p>","null","html-keyboard-response","9","253017","0.0-11.0-2.8","5ee3682ff11a7802de2e11e1","vq1uf7","LM","22","M","{""name"":""Chrome"",""chrome"":true,""version"":""106.0"",""blink"":true,""windows"":true,""osname"":""Windows"",""osversion"":""10"",""a"":true}","9:13:58","1","4","Test_3","74","j","1","820","1920 x 1080","1920 x 1080","true","1","10","","","","",""
"null","<p style=""font-size: 80px;"">+ 10 points</p>","null","html-keyboard-response","10","255729","0.0-11.0-2.9","5ee3682ff11a7802de2e11e1","vq1uf7","LM","22","M","{""name"":""Chrome"",""chrome"":true,""version"":""106.0"",""blink"":true,""windows"":true,""osname"":""Windows"",""osversion"":""10"",""a"":true}","9:13:58","1","4","Test_2","70","f","1","689.5","1920 x 1080","1920 x 1080","true","1","10","","","","",""
"null","<p style=""font-size: 80px;"">+ 10 points</p>","null","html-keyboard-response","11","258537","0.0-11.0-2.10","5ee3682ff11a7802de2e11e1","vq1uf7","LM","22","M","{""name"":""Chrome"",""chrome"":true,""version"":""106.0"",""blink"":true,""windows"":true,""osname"":""Windows"",""osversion"":""10"",""a"":true}","9:13:58","1","4","Test_4","70","f","1","780.7999999523163","1920 x 1080","1920 x 1080","true","1","10","","","","",""
"null","<p style=""font-size: 80px;"">+ 10 points</p>","null","html-keyboard-response","12","262105","0.0-11.0-2.11","5ee3682ff11a7802de2e11e1","vq1uf7","LM","22","M","{""name"":""Chrome"",""chrome"":true,""version"":""106.0"",""blink"":true,""windows"":true,""osname"":""Windows"",""osversion"":""10"",""a"":true}","9:13:58","1","4","Test_1","74","j","1","1548.2999999523163","1920 x 1080","1920 x 1080","true","1","10","","","","",""
"null","<p style=""font-size: 80px;"">+ 10 points</p>","null","html-keyboard-response","13","264723","0.0-11.0-2.12","5ee3682ff11a7802de2e11e1","vq1uf7","LM","22","M","{""name"":""Chrome"",""chrome"":true,""version"":""106.0"",""blink"":true,""windows"":true,""osname"":""Windows"",""osversion"":""10"",""a"":true}","9:13:58","1","4","Test_1","74","j","1","596.2999999523163","1920 x 1080","1920 x 1080","true","1","10","","","","",""
"null","<p style=""font-size: 80px;"">+ 10 points</p>","null","html-keyboard-response","14","267976","0.0-11.0-2.13","5ee3682ff11a7802de2e11e1","vq1uf7","LM","22","M","{""name"":""Chrome"",""chrome"":true,""version"":""106.0"",""blink"":true,""windows"":true,""osname"":""Windows"",""osversion"":""10"",""a"":true}","9:13:58","1","4","Test_4","70","f","1","1238.0999999046326","1920 x 1080","1920 x 1080","true","1","10","","","","",""
"null","<p style=""font-size: 80px;"">+ 10 points</p>","null","html-keyboard-response","15","270640","0.0-11.0-2.14","5ee3682ff11a7802de2e11e1","vq1uf7","LM","22","M","{""name"":""Chrome"",""chrome"":true,""version"":""106.0"",""blink"":true,""windows"":true,""osname"":""Windows"",""osversion"":""10"",""a"":true}","9:13:58","1","4","Test_1","74","j","1","648.5999999046326","1920 x 1080","1920 x 1080","true","1","10","","","","",""
"null","<p style=""font-size: 80px;"">+ 10 points</p>","null","html-keyboard-response","16","273392","0.0-11.0-2.15","5ee3682ff11a7802de2e11e1","vq1uf7","LM","22","M","{""name"":""Chrome"",""chrome"":true,""version"":""106.0"",""blink"":true,""windows"":true,""osname"":""Windows"",""osversion"":""10"",""a"":true}","9:13:58","1","4","Test_1","74","j","1","737.1000001430511","1920 x 1080","1920 x 1080","true","1","10","","","","",""
"null","<p style=""font-size: 80px;"">+ 10 points</p>","null","html-keyboard-response","17","276017","0.0-11.0-2.16","5ee3682ff11a7802de2e11e1","vq1uf7","LM","22","M","{""name"":""Chrome"",""chrome"":true,""version"":""106.0"",""blink"":true,""windows"":true,""osname"":""Windows"",""osversion"":""10"",""a"":true}","9:13:58","1","4","Test_4","70","f","1","611.7999999523163","1920 x 1080","1920 x 1080","true","1","10","","","","",""
"null","<p style=""font-size: 80px;"">+ 10 points</p>","null","html-keyboard-response","18","278825","0.0-11.0-2.17","5ee3682ff11a7802de2e11e1","vq1uf7","LM","22","M","{""name"":""Chrome"",""chrome"":true,""version"":""106.0"",""blink"":true,""windows"":true,""osname"":""Windows"",""osversion"":""10"",""a"":true}","9:13:58","1","4","Test_3","74","j","1","781.9000000953674","1920 x 1080","1920 x 1080","true","1","10","","","","",""
"null","<p style=""font-size: 80px;"">+ 0 points</p>","null","html-keyboard-response","19","281546","0.0-11.0-2.18","5ee3682ff11a7802de2e11e1","vq1uf7","LM","22","M","{""name"":""Chrome"",""chrome"":true,""version"":""106.0"",""blink"":true,""windows"":true,""osname"":""Windows"",""osversion"":""10"",""a"":true}","9:13:58","1","3","Test_4","70","j","0","696.2000000476837","1920 x 1080","1920 x 1080","true","1","0","","","","",""
"null","<p style=""font-size: 80px;"">+ 10 points</p>","null","html-keyboard-response","20","284867","0.0-11.0-2.19","5ee3682ff11a7802de2e11e1","vq1uf7","LM","22","M","{""name"":""Chrome"",""chrome"":true,""version"":""106.0"",""blink"":true,""windows"":true,""osname"":""Windows"",""osversion"":""10"",""a"":true}","9:13:58","1","3","Test_1","70","f","1","1300.3999998569489","1920 x 1080","1920 x 1080","true","1","10","","","","",""
"null","<p style=""font-size: 80px;"">+ 10 points</p>","null","html-keyboard-response","21","287800","0.0-11.0-2.20","5ee3682ff11a7802de2e11e1","vq1uf7","LM","22","M","{""name"":""Chrome"",""chrome"":true,""version"":""106.0"",""blink"":true,""windows"":true,""osname"":""Windows"",""osversion"":""10"",""a"":true}","9:13:58","1","3","Test_3","70","f","1","914.6000001430511","1920 x 1080","1920 x 1080","true","1","10","","","","",""
"null","<p style=""font-size: 80px;"">+ 10 points</p>","null","html-keyboard-response","22","290778","0.0-11.0-2.21","5ee3682ff11a7802de2e11e1","vq1uf7","LM","22","M","{""name"":""Chrome"",""chrome"":true,""version"":""106.0"",""blink"":true,""windows"":true,""osname"":""Windows"",""osversion"":""10"",""a"":true}","9:13:58","1","3","Test_4","74","j","1","956.1000001430511","1920 x 1080","1920 x 1080","true","1","10","","","","",""
"null","<p style=""font-size: 80px;"">+ 10 points</p>","null","html-keyboard-response","23","293620","0.0-11.0-2.22","5ee3682ff11a7802de2e11e1","vq1uf7","LM","22","M","{""name"":""Chrome"",""chrome"":true,""version"":""106.0"",""blink"":true,""windows"":true,""osname"":""Windows"",""osversion"":""10"",""a"":true}","9:13:58","1","3","Test_2","74","j","1","825.8999998569489","1920 x 1080","1920 x 1080","true","1","10","","","","",""
"null","<p style=""font-size: 80px;"">+ 10 points</p>","null","html-keyboard-response","24","296613","0.0-11.0-2.23","5ee3682ff11a7802de2e11e1","vq1uf7","LM","22","M","{""name"":""Chrome"",""chrome"":true,""version"":""106.0"",""blink"":true,""windows"":true,""osname"":""Windows"",""osversion"":""10"",""a"":true}","9:13:58","1","3","Test_3","70","f","1","975.2999999523163","1920 x 1080","1920 x 1080","true","1","10","","","","",""
"null","<p style=""font-size: 80px;"">+ 0 points</p>","null","html-keyboard-response","25","299228","0.0-11.0-2.24","5ee3682ff11a7802de2e11e1","vq1uf7","LM","22","M","{""name"":""Chrome"",""chrome"":true,""version"":""106.0"",""blink"":true,""windows"":true,""osname"":""Windows"",""osversion"":""10"",""a"":true}","9:13:58","1","3","Test_1","74","f","0","590.3999998569489","1920 x 1080","1920 x 1080","true","1","0","","","","",""
"null","<p style=""font-size: 80px;"">+ 10 points</p>","null","html-keyboard-response","26","302359","0.0-11.0-2.25","5ee3682ff11a7802de2e11e1","vq1uf7","LM","22","M","{""name"":""Chrome"",""chrome"":true,""version"":""106.0"",""blink"":true,""windows"":true,""osname"":""Windows"",""osversion"":""10"",""a"":true}","9:13:58","1","3","Test_4","74","j","1","1124.8999998569489","1920 x 1080","1920 x 1080","true","1","10","","","","",""
"null","<p style=""font-size: 80px;"">+ 10 points</p>","null","html-keyboard-response","27","305037","0.0-11.0-2.26","5ee3682ff11a7802de2e11e1","vq1uf7","LM","22","M","{""name"":""Chrome"",""chrome"":true,""version"":""106.0"",""blink"":true,""windows"":true,""osname"":""Windows"",""osversion"":""10"",""a"":true}","9:13:58","1","3","Test_4","74","j","1","655.4000000953674","1920 x 1080","1920 x 1080","true","1","10","","","","",""
"null","<p style=""font-size: 80px;"">+ 10 points</p>","null","html-keyboard-response","28","307734","0.0-11.0-2.27","5ee3682ff11a7802de2e11e1","vq1uf7","LM","22","M","{""name"":""Chrome"",""chrome"":true,""version"":""106.0"",""blink"":true,""windows"":true,""osname"":""Windows"",""osversion"":""10"",""a"":true}","9:13:58","1","3","Test_3","70","f","1","676.7000000476837","1920 x 1080","1920 x 1080","true","1","10","","","","",""
"null","<p style=""font-size: 80px;"">+ 10 points</p>","null","html-keyboard-response","29","310512","0.0-11.0-2.28","5ee3682ff11a7802de2e11e1","vq1uf7","LM","22","M","{""name"":""Chrome"",""chrome"":true,""version"":""106.0"",""blink"":true,""windows"":true,""osname"":""Windows"",""osversion"":""10"",""a"":true}","9:13:58","1","3","Test_3","70","f","1","760.4000000953674","1920 x 1080","1920 x 1080","true","1","10","","","","",""
"null","<p style=""font-size: 80px;"">+ 10 points</p>","null","html-keyboard-response","30","313563","0.0-11.0-2.29","5ee3682ff11a7802de2e11e1","vq1uf7","LM","22","M","{""name"":""Chrome"",""chrome"":true,""version"":""106.0"",""blink"":true,""windows"":true,""osname"":""Windows"",""osversion"":""10"",""a"":true}","9:13:58","1","3","Test_1","70","f","1","1030.0999999046326","1920 x 1080","1920 x 1080","true","1","10","","","","",""
"null","<p style=""font-size: 80px;"">+ 10 points</p>","null","html-keyboard-response","31","316391","0.0-11.0-2.30","5ee3682ff11a7802de2e11e1","vq1uf7","LM","22","M","{""name"":""Chrome"",""chrome"":true,""version"":""106.0"",""blink"":true,""windows"":true,""osname"":""Windows"",""osversion"":""10"",""a"":true}","9:13:58","1","3","Test_2","74","j","1","816","1920 x 1080","1920 x 1080","true","1","10","","","","",""
"null","<p style=""font-size: 80px;"">+ 10 points</p>","null","html-keyboard-response","32","319204","0.0-11.0-2.31","5ee3682ff11a7802de2e11e1","vq1uf7","LM","22","M","{""name"":""Chrome"",""chrome"":true,""version"":""106.0"",""blink"":true,""windows"":true,""osname"":""Windows"",""osversion"":""10"",""a"":true}","9:13:58","1","3","Test_1","70","f","1","796.8999998569489","1920 x 1080","1920 x 1080","true","1","10","","","","",""
"null","<p style=""font-size: 80px;"">+ 10 points</p>","null","html-keyboard-response","33","321922","0.0-11.0-2.32","5ee3682ff11a7802de2e11e1","vq1uf7","LM","22","M","{""name"":""Chrome"",""chrome"":true,""version"":""106.0"",""blink"":true,""windows"":true,""osname"":""Windows"",""osversion"":""10"",""a"":true}","9:13:58","1","3","Test_2","74","j","1","699.6000001430511","1920 x 1080","1920 x 1080","true","1","10","","","","",""
"null","<p style=""font-size: 80px;"">+ 10 points</p>","null","html-keyboard-response","34","324811","0.0-11.0-2.33","5ee3682ff11a7802de2e11e1","vq1uf7","LM","22","M","{""name"":""Chrome"",""chrome"":true,""version"":""106.0"",""blink"":true,""windows"":true,""osname"":""Windows"",""osversion"":""10"",""a"":true}","9:13:58","1","3","Test_2","74","j","1","865","1920 x 1080","1920 x 1080","true","1","10","","","","",""
"null","<p style=""font-size: 80px;"">+ 10 points</p>","null","html-keyboard-response","35","327544","0.0-11.0-2.34","5ee3682ff11a7802de2e11e1","vq1uf7","LM","22","M","{""name"":""Chrome"",""chrome"":true,""version"":""106.0"",""blink"":true,""windows"":true,""osname"":""Windows"",""osversion"":""10"",""a"":true}","9:13:58","1","3","Test_2","74","j","1","720.8000001907349","1920 x 1080","1920 x 1080","true","1","10","","","","",""
"null","<p style=""font-size: 80px;"">+ 10 points</p>","null","html-keyboard-response","36","330452","0.0-11.0-2.35","5ee3682ff11a7802de2e11e1","vq1uf7","LM","22","M","{""name"":""Chrome"",""chrome"":true,""version"":""106.0"",""blink"":true,""windows"":true,""osname"":""Windows"",""osversion"":""10"",""a"":true}","9:13:58","1","3","Test_3","70","f","1","882.5","1920 x 1080","1920 x 1080","true","1","10","","","","",""
"null","<p style=""font-size: 80px;"">+ 10 points</p>","null","html-keyboard-response","37","333538","0.0-11.0-2.36","5ee3682ff11a7802de2e11e1","vq1uf7","LM","22","M","{""name"":""Chrome"",""chrome"":true,""version"":""106.0"",""blink"":true,""windows"":true,""osname"":""Windows"",""osversion"":""10"",""a"":true}","9:13:58","1","3","Test_1","70","f","1","1072.7000000476837","1920 x 1080","1920 x 1080","true","1","10","","","","",""
"null","<p style=""font-size: 80px;"">+ 10 points</p>","null","html-keyboard-response","38","336137","0.0-11.0-2.37","5ee3682ff11a7802de2e11e1","vq1uf7","LM","22","M","{""name"":""Chrome"",""chrome"":true,""version"":""106.0"",""blink"":true,""windows"":true,""osname"":""Windows"",""osversion"":""10"",""a"":true}","9:13:58","1","3","Test_1","70","f","1","580.5999999046326","1920 x 1080","1920 x 1080","true","1","10","","","","",""
"null","<p style=""font-size: 80px;"">+ 10 points</p>","null","html-keyboard-response","39","338914","0.0-11.0-2.38","5ee3682ff11a7802de2e11e1","vq1uf7","LM","22","M","{""name"":""Chrome"",""chrome"":true,""version"":""106.0"",""blink"":true,""windows"":true,""osname"":""Windows"",""osversion"":""10"",""a"":true}","9:13:58","1","3","Test_2","74","j","1","768.8000001907349","1920 x 1080","1920 x 1080","true","1","10","","","","",""
"null","<p style=""font-size: 80px;"">+ 10 points</p>","null","html-keyboard-response","40","341707","0.0-11.0-2.39","5ee3682ff11a7802de2e11e1","vq1uf7","LM","22","M","{""name"":""Chrome"",""chrome"":true,""version"":""106.0"",""blink"":true,""windows"":true,""osname"":""Windows"",""osversion"":""10"",""a"":true}","9:13:58","1","3","Test_3","70","f","1","780.2000000476837","1920 x 1080","1920 x 1080","true","1","10","","","","",""
"null","<p style=""font-size: 80px;"">+ 10 points</p>","null","html-keyboard-response","41","344595","0.0-11.0-2.40","5ee3682ff11a7802de2e11e1","vq1uf7","LM","22","M","{""name"":""Chrome"",""chrome"":true,""version"":""106.0"",""blink"":true,""windows"":true,""osname"":""Windows"",""osversion"":""10"",""a"":true}","9:13:58","1","3","Test_4","74","j","1","874.8999998569489","1920 x 1080","1920 x 1080","true","1","10","","","","",""
"null","<p style=""font-size: 80px;"">+ 0 points</p>","null","html-keyboard-response","42","347158","0.0-11.0-2.41","5ee3682ff11a7802de2e11e1","vq1uf7","LM","22","M","{""name"":""Chrome"",""chrome"":true,""version"":""106.0"",""blink"":true,""windows"":true,""osname"":""Windows"",""osversion"":""10"",""a"":true}","9:13:58","1","4","Test_1","70","j","0","539.2999999523163","1920 x 1080","1920 x 1080","true","1","0","","","","",""
"null","<p style=""font-size: 80px;"">+ 10 points</p>","null","html-keyboard-response","43","350017","0.0-11.0-2.42","5ee3682ff11a7802de2e11e1","vq1uf7","LM","22","M","{""name"":""Chrome"",""chrome"":true,""version"":""106.0"",""blink"":true,""windows"":true,""osname"":""Windows"",""osversion"":""10"",""a"":true}","9:13:58","1","4","Test_3","74","j","1","836.2000000476837","1920 x 1080","1920 x 1080","true","1","10","","","","",""
"null","<p style=""font-size: 80px;"">+ 10 points</p>","null","html-keyboard-response","44","352885","0.0-11.0-2.43","5ee3682ff11a7802de2e11e1","vq1uf7","LM","22","M","{""name"":""Chrome"",""chrome"":true,""version"":""106.0"",""blink"":true,""windows"":true,""osname"":""Windows"",""osversion"":""10"",""a"":true}","9:13:58","1","4","Test_1","74","j","1","855.5999999046326","1920 x 1080","1920 x 1080","true","1","10","","","","",""
"null","<p style=""font-size: 80px;"">+ 0 points</p>","null","html-keyboard-response","45","355739","0.0-11.0-2.44","5ee3682ff11a7802de2e11e1","vq1uf7","LM","22","M","{""name"":""Chrome"",""chrome"":true,""version"":""106.0"",""blink"":true,""windows"":true,""osname"":""Windows"",""osversion"":""10"",""a"":true}","9:13:58","1","4","Test_2","74","f","0","821.1000001430511","1920 x 1080","1920 x 1080","true","1","0","","","","",""
"null","<p style=""font-size: 80px;"">+ 10 points</p>","null","html-keyboard-response","46","358576","0.0-11.0-2.45","5ee3682ff11a7802de2e11e1","vq1uf7","LM","22","M","{""name"":""Chrome"",""chrome"":true,""version"":""106.0"",""blink"":true,""windows"":true,""osname"":""Windows"",""osversion"":""10"",""a"":true}","9:13:58","1","4","Test_2","70","f","1","814.1000001430511","1920 x 1080","1920 x 1080","true","1","10","","","","",""
"null","<p style=""font-size: 80px;"">+ 0 points</p>","null","html-keyboard-response","47","361418","0.0-11.0-2.46","5ee3682ff11a7802de2e11e1","vq1uf7","LM","22","M","{""name"":""Chrome"",""chrome"":true,""version"":""106.0"",""blink"":true,""windows"":true,""osname"":""Windows"",""osversion"":""10"",""a"":true}","9:13:58","1","4","Test_4","74","f","0","821","1920 x 1080","1920 x 1080","true","1","0","","","","",""
"null","<p style=""font-size: 80px;"">+ 10 points</p>","null","html-keyboard-response","48","364454","0.0-11.0-2.47","5ee3682ff11a7802de2e11e1","vq1uf7","LM","22","M","{""name"":""Chrome"",""chrome"":true,""version"":""106.0"",""blink"":true,""windows"":true,""osname"":""Windows"",""osversion"":""10"",""a"":true}","9:13:58","1","4","Test_2","70","f","1","1019.1999998092651","1920 x 1080","1920 x 1080","true","1","10","","","","",""
"null","<p style=""font-size: 80px;"">+ 10 points</p>","null","html-keyboard-response","49","367656","0.0-11.0-2.48","5ee3682ff11a7802de2e11e1","vq1uf7","LM","22","M","{""name"":""Chrome"",""chrome"":true,""version"":""106.0"",""blink"":true,""windows"":true,""osname"":""Windows"",""osversion"":""10"",""a"":true}","9:13:58","1","4","Test_3","74","j","1","1191.2999999523163","1920 x 1080","1920 x 1080","true","1","10","","","","",""
"null","<p style=""font-size: 80px;"">+ 10 points</p>","null","html-keyboard-response","50","370380","0.0-11.0-2.49","5ee3682ff11a7802de2e11e1","vq1uf7","LM","22","M","{""name"":""Chrome"",""chrome"":true,""version"":""106.0"",""blink"":true,""windows"":true,""osname"":""Windows"",""osversion"":""10"",""a"":true}","9:13:58","1","4","Test_4","70","f","1","699.2000000476837","1920 x 1080","1920 x 1080","true","1","10","","","","",""
"null","<p style=""font-size: 80px;"">+ 10 points</p>","null","html-keyboard-response","51","373429","0.0-11.0-2.50","5ee3682ff11a7802de2e11e1","vq1uf7","LM","22","M","{""name"":""Chrome"",""chrome"":true,""version"":""106.0"",""blink"":true,""windows"":true,""osname"":""Windows"",""osversion"":""10"",""a"":true}","9:13:58","1","4","Test_4","70","f","1","1024.2000000476837","1920 x 1080","1920 x 1080","true","1","10","","","","",""
"null","<p style=""font-size: 80px;"">+ 10 points</p>","null","html-keyboard-response","52","376073","0.0-11.0-2.51","5ee3682ff11a7802de2e11e1","vq1uf7","LM","22","M","{""name"":""Chrome"",""chrome"":true,""version"":""106.0"",""blink"":true,""windows"":true,""osname"":""Windows"",""osversion"":""10"",""a"":true}","9:13:58","1","4","Test_4","70","f","1","613.7000000476837","1920 x 1080","1920 x 1080","true","1","10","","","","",""
"null","<p style=""font-size: 80px;"">+ 10 points</p>","null","html-keyboard-response","53","378878","0.0-11.0-2.52","5ee3682ff11a7802de2e11e1","vq1uf7","LM","22","M","{""name"":""Chrome"",""chrome"":true,""version"":""106.0"",""blink"":true,""windows"":true,""osname"":""Windows"",""osversion"":""10"",""a"":true}","9:13:58","1","4","Test_3","74","j","1","793.2999999523163","1920 x 1080","1920 x 1080","true","1","10","","","","",""
"null","<p style=""font-size: 80px;"">+ 10 points</p>","null","html-keyboard-response","54","381730","0.0-11.0-2.53","5ee3682ff11a7802de2e11e1","vq1uf7","LM","22","M","{""name"":""Chrome"",""chrome"":true,""version"":""106.0"",""blink"":true,""windows"":true,""osname"":""Windows"",""osversion"":""10"",""a"":true}","9:13:58","1","4","Test_3","74","j","1","823.6000001430511","1920 x 1080","1920 x 1080","true","1","10","","","","",""
"null","<p style=""font-size: 80px;"">+ 10 points</p>","null","html-keyboard-response","55","384669","0.0-11.0-2.54","5ee3682ff11a7802de2e11e1","vq1uf7","LM","22","M","{""name"":""Chrome"",""chrome"":true,""version"":""106.0"",""blink"":true,""windows"":true,""osname"":""Windows"",""osversion"":""10"",""a"":true}","9:13:58","1","4","Test_1","74","j","1","932.4000000953674","1920 x 1080","1920 x 1080","true","1","10","","","","",""
"null","<p style=""font-size: 80px;"">+ 10 points</p>","null","html-keyboard-response","56","387433","0.0-11.0-2.55","5ee3682ff11a7802de2e11e1","vq1uf7","LM","22","M","{""name"":""Chrome"",""chrome"":true,""version"":""106.0"",""blink"":true,""windows"":true,""osname"":""Windows"",""osversion"":""10"",""a"":true}","9:13:58","1","4","Test_1","74","j","1","732.5999999046326","1920 x 1080","1920 x 1080","true","1","10","","","","",""
"null","<p style=""font-size: 80px;"">+ 10 points</p>","null","html-keyboard-response","57","390265","0.0-11.0-2.56","5ee3682ff11a7802de2e11e1","vq1uf7","LM","22","M","{""name"":""Chrome"",""chrome"":true,""version"":""106.0"",""blink"":true,""windows"":true,""osname"":""Windows"",""osversion"":""10"",""a"":true}","9:13:58","1","4","Test_2","70","f","1","813.9000000953674","1920 x 1080","1920 x 1080","true","1","10","","","","",""
"null","<p style=""font-size: 80px;"">+ 10 points</p>","null","html-keyboard-response","58","393948","0.0-11.0-2.57","5ee3682ff11a7802de2e11e1","vq1uf7","LM","22","M","{""name"":""Chrome"",""chrome"":true,""version"":""106.0"",""blink"":true,""windows"":true,""osname"":""Windows"",""osversion"":""10"",""a"":true}","9:13:58","1","4","Test_3","74","j","1","1663.4000000953674","1920 x 1080","1920 x 1080","true","1","10","","","","",""
"null","<p style=""font-size: 80px;"">+ 10 points</p>","null","html-keyboard-response","59","396666","0.0-11.0-2.58","5ee3682ff11a7802de2e11e1","vq1uf7","LM","22","M","{""name"":""Chrome"",""chrome"":true,""version"":""106.0"",""blink"":true,""windows"":true,""osname"":""Windows"",""osversion"":""10"",""a"":true}","9:13:58","1","4","Test_2","70","f","1","698.5","1920 x 1080","1920 x 1080","true","1","10","","","","",""
"null","<p style=""font-size: 80px;"">+ 0 points</p>","null","html-keyboard-response","60","399348","0.0-11.0-2.59","5ee3682ff11a7802de2e11e1","vq1uf7","LM","22","M","{""name"":""Chrome"",""chrome"":true,""version"":""106.0"",""blink"":true,""windows"":true,""osname"":""Windows"",""osversion"":""10"",""a"":true}","9:13:58","1","3","Test_4","70","j","0","667.0999999046326","1920 x 1080","1920 x 1080","true","1","0","","","","",""
"null","<p style=""font-size: 80px;"">+ 10 points</p>","null","html-keyboard-response","61","402208","0.0-11.0-2.60","5ee3682ff11a7802de2e11e1","vq1uf7","LM","22","M","{""name"":""Chrome"",""chrome"":true,""version"":""106.0"",""blink"":true,""windows"":true,""osname"":""Windows"",""osversion"":""10"",""a"":true}","9:13:58","1","3","Test_1","70","f","1","838.5","1920 x 1080","1920 x 1080","true","1","10","","","","",""
"null","<p style=""font-size: 80px;"">+ 10 points</p>","null","html-keyboard-response","62","404864","0.0-11.0-2.61","5ee3682ff11a7802de2e11e1","vq1uf7","LM","22","M","{""name"":""Chrome"",""chrome"":true,""version"":""106.0"",""blink"":true,""windows"":true,""osname"":""Windows"",""osversion"":""10"",""a"":true}","9:13:58","1","3","Test_4","74","j","1","642.1000001430511","1920 x 1080","1920 x 1080","true","1","10","","","","",""
"null","<p style=""font-size: 80px;"">+ 10 points</p>","null","html-keyboard-response","63","407783","0.0-11.0-2.62","5ee3682ff11a7802de2e11e1","vq1uf7","LM","22","M","{""name"":""Chrome"",""chrome"":true,""version"":""106.0"",""blink"":true,""windows"":true,""osname"":""Windows"",""osversion"":""10"",""a"":true}","9:13:58","1","3","Test_3","70","f","1","889.3999998569489","1920 x 1080","1920 x 1080","true","1","10","","","","",""
"null","<p style=""font-size: 80px;"">+ 0 points</p>","null","html-keyboard-response","64","411078","0.0-11.0-2.63","5ee3682ff11a7802de2e11e1","vq1uf7","LM","22","M","{""name"":""Chrome"",""chrome"":true,""version"":""106.0"",""blink"":true,""windows"":true,""osname"":""Windows"",""osversion"":""10"",""a"":true}","9:13:58","1","3","Test_1","74","f","0","1273.9000000953674","1920 x 1080","1920 x 1080","true","1","0","","","","",""
"null","<p style=""font-size: 80px;"">+ 0 points</p>","null","html-keyboard-response","65","414076","0.0-11.0-2.64","5ee3682ff11a7802de2e11e1","vq1uf7","LM","22","M","{""name"":""Chrome"",""chrome"":true,""version"":""106.0"",""blink"":true,""windows"":true,""osname"":""Windows"",""osversion"":""10"",""a"":true}","9:13:58","1","3","Test_2","70","j","0","981.2999999523163","1920 x 1080","1920 x 1080","true","1","0","","","","",""
"null","<p style=""font-size: 80px;"">+ 10 points</p>","null","html-keyboard-response","66","417470","0.0-11.0-2.65","5ee3682ff11a7802de2e11e1","vq1uf7","LM","22","M","{""name"":""Chrome"",""chrome"":true,""version"":""106.0"",""blink"":true,""windows"":true,""osname"":""Windows"",""osversion"":""10"",""a"":true}","9:13:58","1","3","Test_3","70","f","1","1378.0999999046326","1920 x 1080","1920 x 1080","true","1","10","","","","",""
"null","<p style=""font-size: 80px;"">+ 10 points</p>","null","html-keyboard-response","67","420159","0.0-11.0-2.66","5ee3682ff11a7802de2e11e1","vq1uf7","LM","22","M","{""name"":""Chrome"",""chrome"":true,""version"":""106.0"",""blink"":true,""windows"":true,""osname"":""Windows"",""osversion"":""10"",""a"":true}","9:13:58","1","3","Test_4","74","j","1","680.2999999523163","1920 x 1080","1920 x 1080","true","1","10","","","","",""
"null","<p style=""font-size: 80px;"">+ 10 points</p>","null","html-keyboard-response","68","423105","0.0-11.0-2.67","5ee3682ff11a7802de2e11e1","vq1uf7","LM","22","M","{""name"":""Chrome"",""chrome"":true,""version"":""106.0"",""blink"":true,""windows"":true,""osname"":""Windows"",""osversion"":""10"",""a"":true}","9:13:58","1","3","Test_3","70","f","1","925.2000000476837","1920 x 1080","1920 x 1080","true","1","10","","","","",""
"null","<p style=""font-size: 80px;"">+ 10 points</p>","null","html-keyboard-response","69","425988","0.0-11.0-2.68","5ee3682ff11a7802de2e11e1","vq1uf7","LM","22","M","{""name"":""Chrome"",""chrome"":true,""version"":""106.0"",""blink"":true,""windows"":true,""osname"":""Windows"",""osversion"":""10"",""a"":true}","9:13:58","1","3","Test_1","70","f","1","850.2999999523163","1920 x 1080","1920 x 1080","true","1","10","","","","",""
"null","<p style=""font-size: 80px;"">+ 10 points</p>","null","html-keyboard-response","70","428635","0.0-11.0-2.69","5ee3682ff11a7802de2e11e1","vq1uf7","LM","22","M","{""name"":""Chrome"",""chrome"":true,""version"":""106.0"",""blink"":true,""windows"":true,""osname"":""Windows"",""osversion"":""10"",""a"":true}","9:13:58","1","3","Test_2","74","j","1","630.7000000476837","1920 x 1080","1920 x 1080","true","1","10","","","","",""
"null","<p style=""font-size: 80px;"">+ 10 points</p>","null","html-keyboard-response","71","431250","0.0-11.0-2.70","5ee3682ff11a7802de2e11e1","vq1uf7","LM","22","M","{""name"":""Chrome"",""chrome"":true,""version"":""106.0"",""blink"":true,""windows"":true,""osname"":""Windows"",""osversion"":""10"",""a"":true}","9:13:58","1","3","Test_2","74","j","1","594.7999999523163","1920 x 1080","1920 x 1080","true","1","10","","","","",""
"null","<p style=""font-size: 80px;"">+ 10 points</p>","null","html-keyboard-response","72","434219","0.0-11.0-2.71","5ee3682ff11a7802de2e11e1","vq1uf7","LM","22","M","{""name"":""Chrome"",""chrome"":true,""version"":""106.0"",""blink"":true,""windows"":true,""osname"":""Windows"",""osversion"":""10"",""a"":true}","9:13:58","1","3","Test_3","70","f","1","941.6000001430511","1920 x 1080","1920 x 1080","true","1","10","","","","",""
"null","<p style=""font-size: 80px;"">+ 10 points</p>","null","html-keyboard-response","73","436867","0.0-11.0-2.72","5ee3682ff11a7802de2e11e1","vq1uf7","LM","22","M","{""name"":""Chrome"",""chrome"":true,""version"":""106.0"",""blink"":true,""windows"":true,""osname"":""Windows"",""osversion"":""10"",""a"":true}","9:13:58","1","3","Test_2","74","j","1","625.4000000953674","1920 x 1080","1920 x 1080","true","1","10","","","","",""
"null","<p style=""font-size: 80px;"">+ 10 points</p>","null","html-keyboard-response","74","439521","0.0-11.0-2.73","5ee3682ff11a7802de2e11e1","vq1uf7","LM","22","M","{""name"":""Chrome"",""chrome"":true,""version"":""106.0"",""blink"":true,""windows"":true,""osname"":""Windows"",""osversion"":""10"",""a"":true}","9:13:58","1","3","Test_1","70","f","1","631.2000000476837","1920 x 1080","1920 x 1080","true","1","10","","","","",""
"null","<p style=""font-size: 80px;"">+ 10 points</p>","null","html-keyboard-response","75","443032","0.0-11.0-2.74","5ee3682ff11a7802de2e11e1","vq1uf7","LM","22","M","{""name"":""Chrome"",""chrome"":true,""version"":""106.0"",""blink"":true,""windows"":true,""osname"":""Windows"",""osversion"":""10"",""a"":true}","9:13:58","1","3","Test_4","74","j","1","1487.0999999046326","1920 x 1080","1920 x 1080","true","1","10","","","","",""
"null","<p style=""font-size: 80px;"">+ 0 points</p>","null","html-keyboard-response","76","445876","0.0-11.0-2.75","5ee3682ff11a7802de2e11e1","vq1uf7","LM","22","M","{""name"":""Chrome"",""chrome"":true,""version"":""106.0"",""blink"":true,""windows"":true,""osname"":""Windows"",""osversion"":""10"",""a"":true}","9:13:58","1","3","Test_2","70","j","0","829.0999999046326","1920 x 1080","1920 x 1080","true","1","0","","","","",""
"null","<p style=""font-size: 80px;"">+ 0 points</p>","null","html-keyboard-response","77","448829","0.0-11.0-2.76","5ee3682ff11a7802de2e11e1","vq1uf7","LM","22","M","{""name"":""Chrome"",""chrome"":true,""version"":""106.0"",""blink"":true,""windows"":true,""osname"":""Windows"",""osversion"":""10"",""a"":true}","9:13:58","1","3","Test_1","74","f","0","934.2000000476837","1920 x 1080","1920 x 1080","true","1","0","","","","",""
"null","<p style=""font-size: 80px;"">+ 10 points</p>","null","html-keyboard-response","78","451456","0.0-11.0-2.77","5ee3682ff11a7802de2e11e1","vq1uf7","LM","22","M","{""name"":""Chrome"",""chrome"":true,""version"":""106.0"",""blink"":true,""windows"":true,""osname"":""Windows"",""osversion"":""10"",""a"":true}","9:13:58","1","3","Test_3","70","f","1","608","1920 x 1080","1920 x 1080","true","1","10","","","","",""
"null","<p style=""font-size: 80px;"">+ 10 points</p>","null","html-keyboard-response","79","455969","0.0-11.0-2.78","5ee3682ff11a7802de2e11e1","vq1uf7","LM","22","M","{""name"":""Chrome"",""chrome"":true,""version"":""106.0"",""blink"":true,""windows"":true,""osname"":""Windows"",""osversion"":""10"",""a"":true}","9:13:58","1","3","Test_3","70","f","1","2495.100000143051","1920 x 1080","1920 x 1080","true","1","10","","","","",""
"null","<p style=""font-size: 80px;"">+ 10 points</p>","null","html-keyboard-response","80","458802","0.0-11.0-2.79","5ee3682ff11a7802de2e11e1","vq1uf7","LM","22","M","{""name"":""Chrome"",""chrome"":true,""version"":""106.0"",""blink"":true,""windows"":true,""osname"":""Windows"",""osversion"":""10"",""a"":true}","9:13:58","1","3","Test_2","74","j","1","805.9000000953674","1920 x 1080","1920 x 1080","true","1","10","","","","",""
"null","<p style=""font-size: 80px;"">+ 10 points</p>","null","html-keyboard-response","81","461836","0.0-11.0-2.80","5ee3682ff11a7802de2e11e1","vq1uf7","LM","22","M","{""name"":""Chrome"",""chrome"":true,""version"":""106.0"",""blink"":true,""windows"":true,""osname"":""Windows"",""osversion"":""10"",""a"":true}","9:13:58","1","3","Test_4","74","j","1","1017.2000000476837","1920 x 1080","1920 x 1080","true","1","10","","","","",""
"null","<p style=""font-size: 80px;"">+ 10 points</p>","null","html-keyboard-response","82","465485","0.0-11.0-2.81","5ee3682ff11a7802de2e11e1","vq1uf7","LM","22","M","{""name"":""Chrome"",""chrome"":true,""version"":""106.0"",""blink"":true,""windows"":true,""osname"":""Windows"",""osversion"":""10"",""a"":true}","9:13:58","1","3","Test_1","70","f","1","1635.6000001430511","1920 x 1080","1920 x 1080","true","1","10","","","","",""
"null","<p style=""font-size: 80px;"">+ 10 points</p>","null","html-keyboard-response","83","468934","0.0-11.0-2.82","5ee3682ff11a7802de2e11e1","vq1uf7","LM","22","M","{""name"":""Chrome"",""chrome"":true,""version"":""106.0"",""blink"":true,""windows"":true,""osname"":""Windows"",""osversion"":""10"",""a"":true}","9:13:58","1","3","Test_4","74","j","1","1426.3000001907349","1920 x 1080","1920 x 1080","true","1","10","","","","",""
"null","<p style=""font-size: 80px;"">+ 0 points</p>","null","html-keyboard-response","84","471734","0.0-11.0-2.83","5ee3682ff11a7802de2e11e1","vq1uf7","LM","22","M","{""name"":""Chrome"",""chrome"":true,""version"":""106.0"",""blink"":true,""windows"":true,""osname"":""Windows"",""osversion"":""10"",""a"":true}","9:13:58","1","4","Test_4","74","f","0","775.7000000476837","1920 x 1080","1920 x 1080","true","1","0","","","","",""
"null","<p style=""font-size: 80px;"">+ 10 points</p>","null","html-keyboard-response","85","476112","0.0-11.0-2.84","5ee3682ff11a7802de2e11e1","vq1uf7","LM","22","M","{""name"":""Chrome"",""chrome"":true,""version"":""106.0"",""blink"":true,""windows"":true,""osname"":""Windows"",""osversion"":""10"",""a"":true}","9:13:58","1","4","Test_1","74","j","1","2348.7000000476837","1920 x 1080","1920 x 1080","true","1","10","","","","",""
"null","<p style=""font-size: 80px;"">+ 10 points</p>","null","html-keyboard-response","86","479249","0.0-11.0-2.85","5ee3682ff11a7802de2e11e1","vq1uf7","LM","22","M","{""name"":""Chrome"",""chrome"":true,""version"":""106.0"",""blink"":true,""windows"":true,""osname"":""Windows"",""osversion"":""10"",""a"":true}","9:13:58","1","4","Test_2","70","f","1","1120.6000001430511","1920 x 1080","1920 x 1080","true","1","10","","","","",""
"null","<p style=""font-size: 80px;"">+ 10 points</p>","null","html-keyboard-response","87","481978","0.0-11.0-2.86","5ee3682ff11a7802de2e11e1","vq1uf7","LM","22","M","{""name"":""Chrome"",""chrome"":true,""version"":""106.0"",""blink"":true,""windows"":true,""osname"":""Windows"",""osversion"":""10"",""a"":true}","9:13:58","1","4","Test_3","74","j","1","696","1920 x 1080","1920 x 1080","true","1","10","","","","",""
"null","<p style=""font-size: 80px;"">+ 10 points</p>","null","html-keyboard-response","88","484724","0.0-11.0-2.87","5ee3682ff11a7802de2e11e1","vq1uf7","LM","22","M","{""name"":""Chrome"",""chrome"":true,""version"":""106.0"",""blink"":true,""windows"":true,""osname"":""Windows"",""osversion"":""10"",""a"":true}","9:13:58","1","4","Test_3","74","j","1","720","1920 x 1080","1920 x 1080","true","1","10","","","","",""
"null","<p style=""font-size: 80px;"">+ 10 points</p>","null","html-keyboard-response","89","487306","0.0-11.0-2.88","5ee3682ff11a7802de2e11e1","vq1uf7","LM","22","M","{""name"":""Chrome"",""chrome"":true,""version"":""106.0"",""blink"":true,""windows"":true,""osname"":""Windows"",""osversion"":""10"",""a"":true}","9:13:58","1","4","Test_2","70","f","1","563","1920 x 1080","1920 x 1080","true","1","10","","","","",""
"null","<p style=""font-size: 80px;"">+ 10 points</p>","null","html-keyboard-response","90","490021","0.0-11.0-2.89","5ee3682ff11a7802de2e11e1","vq1uf7","LM","22","M","{""name"":""Chrome"",""chrome"":true,""version"":""106.0"",""blink"":true,""windows"":true,""osname"":""Windows"",""osversion"":""10"",""a"":true}","9:13:58","1","4","Test_4","70","f","1","697.7999999523163","1920 x 1080","1920 x 1080","true","1","10","","","","",""
"null","<p style=""font-size: 80px;"">+ 10 points</p>","null","html-keyboard-response","91","492732","0.0-11.0-2.90","5ee3682ff11a7802de2e11e1","vq1uf7","LM","22","M","{""name"":""Chrome"",""chrome"":true,""version"":""106.0"",""blink"":true,""windows"":true,""osname"":""Windows"",""osversion"":""10"",""a"":true}","9:13:58","1","4","Test_2","70","f","1","687.4000000953674","1920 x 1080","1920 x 1080","true","1","10","","","","",""
"null","<p style=""font-size: 80px;"">+ 10 points</p>","null","html-keyboard-response","92","495409","0.0-11.0-2.91","5ee3682ff11a7802de2e11e1","vq1uf7","LM","22","M","{""name"":""Chrome"",""chrome"":true,""version"":""106.0"",""blink"":true,""windows"":true,""osname"":""Windows"",""osversion"":""10"",""a"":true}","9:13:58","1","4","Test_4","70","f","1","651.2000000476837","1920 x 1080","1920 x 1080","true","1","10","","","","",""
"null","<p style=""font-size: 80px;"">+ 10 points</p>","null","html-keyboard-response","93","498237","0.0-11.0-2.92","5ee3682ff11a7802de2e11e1","vq1uf7","LM","22","M","{""name"":""Chrome"",""chrome"":true,""version"":""106.0"",""blink"":true,""windows"":true,""osname"":""Windows"",""osversion"":""10"",""a"":true}","9:13:58","1","4","Test_1","74","j","1","814.0999999046326","1920 x 1080","1920 x 1080","true","1","10","","","","",""
"null","<p style=""font-size: 80px;"">+ 10 points</p>","null","html-keyboard-response","94","501655","0.0-11.0-2.93","5ee3682ff11a7802de2e11e1","vq1uf7","LM","22","M","{""name"":""Chrome"",""chrome"":true,""version"":""106.0"",""blink"":true,""windows"":true,""osname"":""Windows"",""osversion"":""10"",""a"":true}","9:13:58","1","4","Test_1","74","j","1","1403.2999999523163","1920 x 1080","1920 x 1080","true","1","10","","","","",""
"null","<p style=""font-size: 80px;"">+ 10 points</p>","null","html-keyboard-response","95","504547","0.0-11.0-2.94","5ee3682ff11a7802de2e11e1","vq1uf7","LM","22","M","{""name"":""Chrome"",""chrome"":true,""version"":""106.0"",""blink"":true,""windows"":true,""osname"":""Windows"",""osversion"":""10"",""a"":true}","9:13:58","1","4","Test_4","70","f","1","870.7000000476837","1920 x 1080","1920 x 1080","true","1","10","","","","",""
"null","<p style=""font-size: 80px;"">+ 10 points</p>","null","html-keyboard-response","96","507079","0.0-11.0-2.95","5ee3682ff11a7802de2e11e1","vq1uf7","LM","22","M","{""name"":""Chrome"",""chrome"":true,""version"":""106.0"",""blink"":true,""windows"":true,""osname"":""Windows"",""osversion"":""10"",""a"":true}","9:13:58","1","4","Test_2","70","f","1","510.40000009536743","1920 x 1080","1920 x 1080","true","1","10","","","","",""
"null","<p style=""font-size: 80px;"">+ 10 points</p>","null","html-keyboard-response","97","509725","0.0-11.0-2.96","5ee3682ff11a7802de2e11e1","vq1uf7","LM","22","M","{""name"":""Chrome"",""chrome"":true,""version"":""106.0"",""blink"":true,""windows"":true,""osname"":""Windows"",""osversion"":""10"",""a"":true}","9:13:58","1","4","Test_1","74","j","1","624.5","1920 x 1080","1920 x 1080","true","1","10","","","","",""
"null","<p style=""font-size: 80px;"">+ 10 points</p>","null","html-keyboard-response","98","512301","0.0-11.0-2.97","5ee3682ff11a7802de2e11e1","vq1uf7","LM","22","M","{""name"":""Chrome"",""chrome"":true,""version"":""106.0"",""blink"":true,""windows"":true,""osname"":""Windows"",""osversion"":""10"",""a"":true}","9:13:58","1","4","Test_3","74","j","1","552","1920 x 1080","1920 x 1080","true","1","10","","","","",""
"null","<p style=""font-size: 80px;"">+ 0 points</p>","null","html-keyboard-response","99","514910","0.0-11.0-2.98","5ee3682ff11a7802de2e11e1","vq1uf7","LM","22","M","{""name"":""Chrome"",""chrome"":true,""version"":""106.0"",""blink"":true,""windows"":true,""osname"":""Windows"",""osversion"":""10"",""a"":true}","9:13:58","1","3","Test_4","70","j","0","588","1920 x 1080","1920 x 1080","true","1","0","","","","",""
"null","<p style=""font-size: 80px;"">+ 10 points</p>","null","html-keyboard-response","100","518400","0.0-11.0-2.99","5ee3682ff11a7802de2e11e1","vq1uf7","LM","22","M","{""name"":""Chrome"",""chrome"":true,""version"":""106.0"",""blink"":true,""windows"":true,""osname"":""Windows"",""osversion"":""10"",""a"":true}","9:13:58","1","3","Test_1","70","f","1","1476.2000000476837","1920 x 1080","1920 x 1080","true","1","10","","","","",""
"null","<p style=""font-size: 80px;"">+ 0 points</p>","null","html-keyboard-response","101","521602","0.0-11.0-2.100","5ee3682ff11a7802de2e11e1","vq1uf7","LM","22","M","{""name"":""Chrome"",""chrome"":true,""version"":""106.0"",""blink"":true,""windows"":true,""osname"":""Windows"",""osversion"":""10"",""a"":true}","9:13:58","1","3","Test_2","70","j","0","1173.7000000476837","1920 x 1080","1920 x 1080","true","1","0","","","","",""
"null","<p style=""font-size: 80px;"">+ 10 points</p>","null","html-keyboard-response","102","524526","0.0-11.0-2.101","5ee3682ff11a7802de2e11e1","vq1uf7","LM","22","M","{""name"":""Chrome"",""chrome"":true,""version"":""106.0"",""blink"":true,""windows"":true,""osname"":""Windows"",""osversion"":""10"",""a"":true}","9:13:58","1","3","Test_3","70","f","1","917.7999999523163","1920 x 1080","1920 x 1080","true","1","10","","","","",""
"null","<p style=""font-size: 80px;"">+ 10 points</p>","null","html-keyboard-response","103","527480","0.0-11.0-2.102","5ee3682ff11a7802de2e11e1","vq1uf7","LM","22","M","{""name"":""Chrome"",""chrome"":true,""version"":""106.0"",""blink"":true,""windows"":true,""osname"":""Windows"",""osversion"":""10"",""a"":true}","9:13:58","1","3","Test_1","70","f","1","934.4000000953674","1920 x 1080","1920 x 1080","true","1","10","","","","",""
"null","<p style=""font-size: 80px;"">+ 10 points</p>","null","html-keyboard-response","104","530857","0.0-11.0-2.103","5ee3682ff11a7802de2e11e1","vq1uf7","LM","22","M","{""name"":""Chrome"",""chrome"":true,""version"":""106.0"",""blink"":true,""windows"":true,""osname"":""Windows"",""osversion"":""10"",""a"":true}","9:13:58","1","3","Test_3","70","f","1","1362.5999999046326","1920 x 1080","1920 x 1080","true","1","10","","","","",""
"null","<p style=""font-size: 80px;"">+ 10 points</p>","null","html-keyboard-response","105","533674","0.0-11.0-2.104","5ee3682ff11a7802de2e11e1","vq1uf7","LM","22","M","{""name"":""Chrome"",""chrome"":true,""version"":""106.0"",""blink"":true,""windows"":true,""osname"":""Windows"",""osversion"":""10"",""a"":true}","9:13:58","1","3","Test_4","74","j","1","787.7999999523163","1920 x 1080","1920 x 1080","true","1","10","","","","",""
"null","<p style=""font-size: 80px;"">+ 10 points</p>","null","html-keyboard-response","106","536469","0.0-11.0-2.105","5ee3682ff11a7802de2e11e1","vq1uf7","LM","22","M","{""name"":""Chrome"",""chrome"":true,""version"":""106.0"",""blink"":true,""windows"":true,""osname"":""Windows"",""osversion"":""10"",""a"":true}","9:13:58","1","3","Test_2","74","j","1","777.9000000953674","1920 x 1080","1920 x 1080","true","1","10","","","","",""
"null","<p style=""font-size: 80px;"">+ 10 points</p>","null","html-keyboard-response","107","539225","0.0-11.0-2.106","5ee3682ff11a7802de2e11e1","vq1uf7","LM","22","M","{""name"":""Chrome"",""chrome"":true,""version"":""106.0"",""blink"":true,""windows"":true,""osname"":""Windows"",""osversion"":""10"",""a"":true}","9:13:58","1","3","Test_2","74","j","1","729.5","1920 x 1080","1920 x 1080","true","1","10","","","","",""
"null","<p style=""font-size: 80px;"">+ 10 points</p>","null","html-keyboard-response","108","542163","0.0-11.0-2.107","5ee3682ff11a7802de2e11e1","vq1uf7","LM","22","M","{""name"":""Chrome"",""chrome"":true,""version"":""106.0"",""blink"":true,""windows"":true,""osname"":""Windows"",""osversion"":""10"",""a"":true}","9:13:58","1","3","Test_4","74","j","1","925.2999999523163","1920 x 1080","1920 x 1080","true","1","10","","","","",""
"null","<p style=""font-size: 80px;"">+ 10 points</p>","null","html-keyboard-response","109","545394","0.0-11.0-2.108","5ee3682ff11a7802de2e11e1","vq1uf7","LM","22","M","{""name"":""Chrome"",""chrome"":true,""version"":""106.0"",""blink"":true,""windows"":true,""osname"":""Windows"",""osversion"":""10"",""a"":true}","9:13:58","1","3","Test_1","70","f","1","1208","1920 x 1080","1920 x 1080","true","1","10","","","","",""
"null","<p style=""font-size: 80px;"">+ 0 points</p>","null","html-keyboard-response","110","673658","0.0-11.0-2.109","5ee3682ff11a7802de2e11e1","vq1uf7","LM","22","M","{""name"":""Chrome"",""chrome"":true,""version"":""106.0"",""blink"":true,""windows"":true,""osname"":""Windows"",""osversion"":""10"",""a"":true}","9:13:58","1","3","Test_4","70","j","0","815.7000000476837","1920 x 1080","1920 x 1080","true","1","0","","","","",""
"null","<p style=""font-size: 80px;"">+ 10 points</p>","null","html-keyboard-response","111","676216","0.0-11.0-2.110","5ee3682ff11a7802de2e11e1","vq1uf7","LM","22","M","{""name"":""Chrome"",""chrome"":true,""version"":""106.0"",""blink"":true,""windows"":true,""osname"":""Windows"",""osversion"":""10"",""a"":true}","9:13:58","1","3","Test_2","74","j","1","541.6000001430511","1920 x 1080","1920 x 1080","true","1","10","","","","",""
"null","<p style=""font-size: 80px;"">+ 10 points</p>","null","html-keyboard-response","112","679214","0.0-11.0-2.111","5ee3682ff11a7802de2e11e1","vq1uf7","LM","22","M","{""name"":""Chrome"",""chrome"":true,""version"":""106.0"",""blink"":true,""windows"":true,""osname"":""Windows"",""osversion"":""10"",""a"":true}","9:13:58","1","3","Test_3","70","f","1","972.7000000476837","1920 x 1080","1920 x 1080","true","1","10","","","","",""
"null","<p style=""font-size: 80px;"">+ 10 points</p>","null","html-keyboard-response","113","681917","0.0-11.0-2.112","5ee3682ff11a7802de2e11e1","vq1uf7","LM","22","M","{""name"":""Chrome"",""chrome"":true,""version"":""106.0"",""blink"":true,""windows"":true,""osname"":""Windows"",""osversion"":""10"",""a"":true}","9:13:58","1","3","Test_1","70","f","1","691.7999999523163","1920 x 1080","1920 x 1080","true","1","10","","","","",""
"null","<p style=""font-size: 80px;"">+ 0 points</p>","null","html-keyboard-response","114","684631","0.0-11.0-2.113","5ee3682ff11a7802de2e11e1","vq1uf7","LM","22","M","{""name"":""Chrome"",""chrome"":true,""version"":""106.0"",""blink"":true,""windows"":true,""osname"":""Windows"",""osversion"":""10"",""a"":true}","9:13:58","1","4","Test_3","70","j","0","684.7999999523163","1920 x 1080","1920 x 1080","true","1","0","","","","",""
"null","<p style=""font-size: 80px;"">+ 10 points</p>","null","html-keyboard-response","115","687358","0.0-11.0-2.114","5ee3682ff11a7802de2e11e1","vq1uf7","LM","22","M","{""name"":""Chrome"",""chrome"":true,""version"":""106.0"",""blink"":true,""windows"":true,""osname"":""Windows"",""osversion"":""10"",""a"":true}","9:13:58","1","4","Test_2","70","f","1","706.9000000953674","1920 x 1080","1920 x 1080","true","1","10","","","","",""
"null","<p style=""font-size: 80px;"">+ 0 points</p>","null","html-keyboard-response","116","690481","0.0-11.0-2.115","5ee3682ff11a7802de2e11e1","vq1uf7","LM","22","M","{""name"":""Chrome"",""chrome"":true,""version"":""106.0"",""blink"":true,""windows"":true,""osname"":""Windows"",""osversion"":""10"",""a"":true}","9:13:58","1","4","Test_4","74","f","0","1105","1920 x 1080","1920 x 1080","true","1","0","","","","",""
"null","<p style=""font-size: 80px;"">+ 10 points</p>","null","html-keyboard-response","117","693091","0.0-11.0-2.116","5ee3682ff11a7802de2e11e1","vq1uf7","LM","22","M","{""name"":""Chrome"",""chrome"":true,""version"":""106.0"",""blink"":true,""windows"":true,""osname"":""Windows"",""osversion"":""10"",""a"":true}","9:13:58","1","4","Test_1","74","j","1","589.1000001430511","1920 x 1080","1920 x 1080","true","1","10","","","","",""
"null","<p style=""font-size: 80px;"">+ 10 points</p>","null","html-keyboard-response","118","695669","0.0-11.0-2.117","5ee3682ff11a7802de2e11e1","vq1uf7","LM","22","M","{""name"":""Chrome"",""chrome"":true,""version"":""106.0"",""blink"":true,""windows"":true,""osname"":""Windows"",""osversion"":""10"",""a"":true}","9:13:58","1","4","Test_3","74","j","1","560.6999998092651","1920 x 1080","1920 x 1080","true","1","10","","","","",""
"null","<p style=""font-size: 80px;"">+ 10 points</p>","null","html-keyboard-response","119","698346","0.0-11.0-2.118","5ee3682ff11a7802de2e11e1","vq1uf7","LM","22","M","{""name"":""Chrome"",""chrome"":true,""version"":""106.0"",""blink"":true,""windows"":true,""osname"":""Windows"",""osversion"":""10"",""a"":true}","9:13:58","1","4","Test_4","70","f","1","658.6000001430511","1920 x 1080","1920 x 1080","true","1","10","","","","",""
"null","<p style=""font-size: 80px;"">+ 10 points</p>","null","html-keyboard-response","120","700932","0.0-11.0-2.119","5ee3682ff11a7802de2e11e1","vq1uf7","LM","22","M","{""name"":""Chrome"",""chrome"":true,""version"":""106.0"",""blink"":true,""windows"":true,""osname"":""Windows"",""osversion"":""10"",""a"":true}","9:13:58","1","4","Test_3","74","j","1","568","1920 x 1080","1920 x 1080","true","1","10","","","","",""
"null","<p style=""font-size: 80px;"">+ 10 points</p>","null","html-keyboard-response","121","704072","0.0-11.0-2.120","5ee3682ff11a7802de2e11e1","vq1uf7","LM","22","M","{""name"":""Chrome"",""chrome"":true,""version"":""106.0"",""blink"":true,""windows"":true,""osname"":""Windows"",""osversion"":""10"",""a"":true}","9:13:58","1","4","Test_2","70","f","1","1118.3999998569489","1920 x 1080","1920 x 1080","true","1","10","","","","",""
"null","<p style=""font-size: 80px;"">+ 10 points</p>","null","html-keyboard-response","122","706740","0.0-11.0-2.121","5ee3682ff11a7802de2e11e1","vq1uf7","LM","22","M","{""name"":""Chrome"",""chrome"":true,""version"":""106.0"",""blink"":true,""windows"":true,""osname"":""Windows"",""osversion"":""10"",""a"":true}","9:13:58","1","4","Test_3","74","j","1","646","1920 x 1080","1920 x 1080","true","1","10","","","","",""
"null","<p style=""font-size: 80px;"">+ 10 points</p>","null","html-keyboard-response","123","709440","0.0-11.0-2.122","5ee3682ff11a7802de2e11e1","vq1uf7","LM","22","M","{""name"":""Chrome"",""chrome"":true,""version"":""106.0"",""blink"":true,""windows"":true,""osname"":""Windows"",""osversion"":""10"",""a"":true}","9:13:58","1","4","Test_1","74","j","1","669.0999999046326","1920 x 1080","1920 x 1080","true","1","10","","","","",""
"null","<p style=""font-size: 80px;"">+ 10 points</p>","null","html-keyboard-response","124","712095","0.0-11.0-2.123","5ee3682ff11a7802de2e11e1","vq1uf7","LM","22","M","{""name"":""Chrome"",""chrome"":true,""version"":""106.0"",""blink"":true,""windows"":true,""osname"":""Windows"",""osversion"":""10"",""a"":true}","9:13:58","1","4","Test_2","70","f","1","639.8000001907349","1920 x 1080","1920 x 1080","true","1","10","","","","",""
"null","<p style=""font-size: 80px;"">+ 10 points</p>","null","html-keyboard-response","125","714829","0.0-11.0-2.124","5ee3682ff11a7802de2e11e1","vq1uf7","LM","22","M","{""name"":""Chrome"",""chrome"":true,""version"":""106.0"",""blink"":true,""windows"":true,""osname"":""Windows"",""osversion"":""10"",""a"":true}","9:13:58","1","4","Test_4","70","f","1","716.0999999046326","1920 x 1080","1920 x 1080","true","1","10","","","","",""
"null","<p style=""font-size: 80px;"">+ 10 points</p>","null","html-keyboard-response","126","717448","0.0-11.0-2.125","5ee3682ff11a7802de2e11e1","vq1uf7","LM","22","M","{""name"":""Chrome"",""chrome"":true,""version"":""106.0"",""blink"":true,""windows"":true,""osname"":""Windows"",""osversion"":""10"",""a"":true}","9:13:58","1","4","Test_4","70","f","1","597.5","1920 x 1080","1920 x 1080","true","1","10","","","","",""
"null","<p style=""font-size: 80px;"">+ 10 points</p>","null","html-keyboard-response","127","720072","0.0-11.0-2.126","5ee3682ff11a7802de2e11e1","vq1uf7","LM","22","M","{""name"":""Chrome"",""chrome"":true,""version"":""106.0"",""blink"":true,""windows"":true,""osname"":""Windows"",""osversion"":""10"",""a"":true}","9:13:58","1","4","Test_2","70","f","1","598.2000000476837","1920 x 1080","1920 x 1080","true","1","10","","","","",""
"null","<p style=""font-size: 80px;"">+ 10 points</p>","null","html-keyboard-response","128","722686","0.0-11.0-2.127","5ee3682ff11a7802de2e11e1","vq1uf7","LM","22","M","{""name"":""Chrome"",""chrome"":true,""version"":""106.0"",""blink"":true,""windows"":true,""osname"":""Windows"",""osversion"":""10"",""a"":true}","9:13:58","1","4","Test_1","74","j","1","585.3000001907349","1920 x 1080","1920 x 1080","true","1","10","","","","",""
"null","<p style=""font-size: 80px;"">+ 0 points</p>","null","html-keyboard-response","129","725464","0.0-11.0-2.128","5ee3682ff11a7802de2e11e1","vq1uf7","LM","22","M","{""name"":""Chrome"",""chrome"":true,""version"":""106.0"",""blink"":true,""windows"":true,""osname"":""Windows"",""osversion"":""10"",""a"":true}","9:13:58","1","3","Test_3","74","f","0","751","1920 x 1080","1920 x 1080","true","1","0","","","","",""
"null","<p style=""font-size: 80px;"">+ 10 points</p>","null","html-keyboard-response","130","728244","0.0-11.0-2.129","5ee3682ff11a7802de2e11e1","vq1uf7","LM","22","M","{""name"":""Chrome"",""chrome"":true,""version"":""106.0"",""blink"":true,""windows"":true,""osname"":""Windows"",""osversion"":""10"",""a"":true}","9:13:58","1","3","Test_1","70","f","1","760.2000000476837","1920 x 1080","1920 x 1080","true","1","10","","","","",""
"null","<p style=""font-size: 80px;"">+ 10 points</p>","null","html-keyboard-response","131","731198","0.0-11.0-2.130","5ee3682ff11a7802de2e11e1","vq1uf7","LM","22","M","{""name"":""Chrome"",""chrome"":true,""version"":""106.0"",""blink"":true,""windows"":true,""osname"":""Windows"",""osversion"":""10"",""a"":true}","9:13:58","1","3","Test_2","74","j","1","932.9000000953674","1920 x 1080","1920 x 1080","true","1","10","","","","",""
"null","<p style=""font-size: 80px;"">+ 10 points</p>","null","html-keyboard-response","132","734331","0.0-11.0-2.131","5ee3682ff11a7802de2e11e1","vq1uf7","LM","22","M","{""name"":""Chrome"",""chrome"":true,""version"":""106.0"",""blink"":true,""windows"":true,""osname"":""Windows"",""osversion"":""10"",""a"":true}","9:13:58","1","3","Test_2","74","j","1","1122.1000001430511","1920 x 1080","1920 x 1080","true","1","10","","","","",""
"null","<p style=""font-size: 80px;"">+ 10 points</p>","null","html-keyboard-response","133","737074","0.0-11.0-2.132","5ee3682ff11a7802de2e11e1","vq1uf7","LM","22","M","{""name"":""Chrome"",""chrome"":true,""version"":""106.0"",""blink"":true,""windows"":true,""osname"":""Windows"",""osversion"":""10"",""a"":true}","9:13:58","1","3","Test_2","74","j","1","730.9000000953674","1920 x 1080","1920 x 1080","true","1","10","","","","",""
"null","<p style=""font-size: 80px;"">+ 10 points</p>","null","html-keyboard-response","134","739684","0.0-11.0-2.133","5ee3682ff11a7802de2e11e1","vq1uf7","LM","22","M","{""name"":""Chrome"",""chrome"":true,""version"":""106.0"",""blink"":true,""windows"":true,""osname"":""Windows"",""osversion"":""10"",""a"":true}","9:13:58","1","3","Test_2","74","j","1","586.7000000476837","1920 x 1080","1920 x 1080","true","1","10","","","","",""
"null","<p style=""font-size: 80px;"">+ 10 points</p>","null","html-keyboard-response","135","742996","0.0-11.0-2.134","5ee3682ff11a7802de2e11e1","vq1uf7","LM","22","M","{""name"":""Chrome"",""chrome"":true,""version"":""106.0"",""blink"":true,""windows"":true,""osname"":""Windows"",""osversion"":""10"",""a"":true}","9:13:58","1","3","Test_4","74","j","1","1287.9000000953674","1920 x 1080","1920 x 1080","true","1","10","","","","",""
"null","<p style=""font-size: 80px;"">+ 10 points</p>","null","html-keyboard-response","136","746786","0.0-11.0-2.135","5ee3682ff11a7802de2e11e1","vq1uf7","LM","22","M","{""name"":""Chrome"",""chrome"":true,""version"":""106.0"",""blink"":true,""windows"":true,""osname"":""Windows"",""osversion"":""10"",""a"":true}","9:13:58","1","3","Test_1","70","f","1","1775.2999999523163","1920 x 1080","1920 x 1080","true","1","10","","","","",""
"null","<p style=""font-size: 80px;"">+ 10 points</p>","null","html-keyboard-response","137","749893","0.0-11.0-2.136","5ee3682ff11a7802de2e11e1","vq1uf7","LM","22","M","{""name"":""Chrome"",""chrome"":true,""version"":""106.0"",""blink"":true,""windows"":true,""osname"":""Windows"",""osversion"":""10"",""a"":true}","9:13:58","1","3","Test_1","70","f","1","1097.4000000953674","1920 x 1080","1920 x 1080","true","1","10","","","","",""
"null","<p style=""font-size: 80px;"">+ 10 points</p>","null","html-keyboard-response","138","752799","0.0-11.0-2.137","5ee3682ff11a7802de2e11e1","vq1uf7","LM","22","M","{""name"":""Chrome"",""chrome"":true,""version"":""106.0"",""blink"":true,""windows"":true,""osname"":""Windows"",""osversion"":""10"",""a"":true}","9:13:58","1","3","Test_1","70","f","1","890.7999999523163","1920 x 1080","1920 x 1080","true","1","10","","","","",""
"null","<p style=""font-size: 80px;"">+ 10 points</p>","null","html-keyboard-response","139","755682","0.0-11.0-2.138","5ee3682ff11a7802de2e11e1","vq1uf7","LM","22","M","{""name"":""Chrome"",""chrome"":true,""version"":""106.0"",""blink"":true,""windows"":true,""osname"":""Windows"",""osversion"":""10"",""a"":true}","9:13:58","1","3","Test_3","70","f","1","867","1920 x 1080","1920 x 1080","true","1","10","","","","",""
"null","<p style=""font-size: 80px;"">+ 10 points</p>","null","html-keyboard-response","140","758305","0.0-11.0-2.139","5ee3682ff11a7802de2e11e1","vq1uf7","LM","22","M","{""name"":""Chrome"",""chrome"":true,""version"":""106.0"",""blink"":true,""windows"":true,""osname"":""Windows"",""osversion"":""10"",""a"":true}","9:13:58","1","3","Test_3","70","f","1","613","1920 x 1080","1920 x 1080","true","1","10","","","","",""
"null","<p style=""font-size: 80px;"">+ 10 points</p>","null","html-keyboard-response","141","761173","0.0-11.0-2.140","5ee3682ff11a7802de2e11e1","vq1uf7","LM","22","M","{""name"":""Chrome"",""chrome"":true,""version"":""106.0"",""blink"":true,""windows"":true,""osname"":""Windows"",""osversion"":""10"",""a"":true}","9:13:58","1","3","Test_4","74","j","1","842.3999998569489","1920 x 1080","1920 x 1080","true","1","10","","","","",""
"null","<p style=""font-size: 80px;"">+ 10 points</p>","null","html-keyboard-response","142","763896","0.0-11.0-2.141","5ee3682ff11a7802de2e11e1","vq1uf7","LM","22","M","{""name"":""Chrome"",""chrome"":true,""version"":""106.0"",""blink"":true,""windows"":true,""osname"":""Windows"",""osversion"":""10"",""a"":true}","9:13:58","1","3","Test_1","70","f","1","691.8999998569489","1920 x 1080","1920 x 1080","true","1","10","","","","",""
"null","<p style=""font-size: 80px;"">+ 10 points</p>","null","html-keyboard-response","143","766503","0.0-11.0-2.142","5ee3682ff11a7802de2e11e1","vq1uf7","LM","22","M","{""name"":""Chrome"",""chrome"":true,""version"":""106.0"",""blink"":true,""windows"":true,""osname"":""Windows"",""osversion"":""10"",""a"":true}","9:13:58","1","3","Test_2","74","j","1","588.2999999523163","1920 x 1080","1920 x 1080","true","1","10","","","","",""
"null","<p style=""font-size: 80px;"">+ 10 points</p>","null","html-keyboard-response","144","768935","0.0-11.0-2.143","5ee3682ff11a7802de2e11e1","vq1uf7","LM","22","M","{""name"":""Chrome"",""chrome"":true,""version"":""106.0"",""blink"":true,""windows"":true,""osname"":""Windows"",""osversion"":""10"",""a"":true}","9:13:58","1","3","Test_3","70","f","1","404.69999980926514","1920 x 1080","1920 x 1080","true","1","10","","","","",""
"null","<p style=""font-size: 80px;"">+ 10 points</p>","null","html-keyboard-response","145","771774","0.0-11.0-2.144","5ee3682ff11a7802de2e11e1","vq1uf7","LM","22","M","{""name"":""Chrome"",""chrome"":true,""version"":""106.0"",""blink"":true,""windows"":true,""osname"":""Windows"",""osversion"":""10"",""a"":true}","9:13:58","1","3","Test_4","74","j","1","816.1000001430511","1920 x 1080","1920 x 1080","true","1","10","","","","",""
"null","<p style=""font-size: 80px;"">+ 10 points</p>","null","html-keyboard-response","146","774352","0.0-11.0-2.145","5ee3682ff11a7802de2e11e1","vq1uf7","LM","22","M","{""name"":""Chrome"",""chrome"":true,""version"":""106.0"",""blink"":true,""windows"":true,""osname"":""Windows"",""osversion"":""10"",""a"":true}","9:13:58","1","3","Test_1","70","f","1","566.3999998569489","1920 x 1080","1920 x 1080","true","1","10","","","","",""
"null","<p style=""font-size: 80px;"">+ 10 points</p>","null","html-keyboard-response","147","776951","0.0-11.0-2.146","5ee3682ff11a7802de2e11e1","vq1uf7","LM","22","M","{""name"":""Chrome"",""chrome"":true,""version"":""106.0"",""blink"":true,""windows"":true,""osname"":""Windows"",""osversion"":""10"",""a"":true}","9:13:58","1","3","Test_3","70","f","1","578.9000000953674","1920 x 1080","1920 x 1080","true","1","10","","","","",""
"null","<p style=""font-size: 80px;"">+ 10 points</p>","null","html-keyboard-response","148","779507","0.0-11.0-2.147","5ee3682ff11a7802de2e11e1","vq1uf7","LM","22","M","{""name"":""Chrome"",""chrome"":true,""version"":""106.0"",""blink"":true,""windows"":true,""osname"":""Windows"",""osversion"":""10"",""a"":true}","9:13:58","1","3","Test_4","74","j","1","537.4000000953674","1920 x 1080","1920 x 1080","true","1","10","","","","",""
"null","<p style=""font-size: 80px;"">+ 0 points</p>","null","html-keyboard-response","149","782212","0.0-11.0-2.148","5ee3682ff11a7802de2e11e1","vq1uf7","LM","22","M","{""name"":""Chrome"",""chrome"":true,""version"":""106.0"",""blink"":true,""windows"":true,""osname"":""Windows"",""osversion"":""10"",""a"":true}","9:13:58","1","3","Test_2","70","j","0","675.4000000953674","1920 x 1080","1920 x 1080","true","1","0","","","","",""
"null","<p style=""font-size: 80px;"">+ 10 points</p>","null","html-keyboard-response","150","784732","0.0-11.0-2.149","5ee3682ff11a7802de2e11e1","vq1uf7","LM","22","M","{""name"":""Chrome"",""chrome"":true,""version"":""106.0"",""blink"":true,""windows"":true,""osname"":""Windows"",""osversion"":""10"",""a"":true}","9:13:58","1","3","Test_3","70","f","1","494.09999990463257","1920 x 1080","1920 x 1080","true","1","10","","","","",""
"null","<p style=""font-size: 80px;"">+ 10 points</p>","null","html-keyboard-response","151","787484","0.0-11.0-2.150","5ee3682ff11a7802de2e11e1","vq1uf7","LM","22","M","{""name"":""Chrome"",""chrome"":true,""version"":""106.0"",""blink"":true,""windows"":true,""osname"":""Windows"",""osversion"":""10"",""a"":true}","9:13:58","1","3","Test_4","74","j","1","731.2999999523163","1920 x 1080","1920 x 1080","true","1","10","","","","",""
"null","<p style=""font-size: 80px;"">+ 10 points</p>","null","html-keyboard-response","152","789992","0.0-11.0-2.151","5ee3682ff11a7802de2e11e1","vq1uf7","LM","22","M","{""name"":""Chrome"",""chrome"":true,""version"":""106.0"",""blink"":true,""windows"":true,""osname"":""Windows"",""osversion"":""10"",""a"":true}","9:13:58","1","3","Test_4","74","j","1","478.5","1920 x 1080","1920 x 1080","true","1","10","","","","",""
"null","<p style=""font-size: 80px;"">+ 0 points</p>","null","html-keyboard-response","153","792737","0.0-11.0-2.152","5ee3682ff11a7802de2e11e1","vq1uf7","LM","22","M","{""name"":""Chrome"",""chrome"":true,""version"":""106.0"",""blink"":true,""windows"":true,""osname"":""Windows"",""osversion"":""10"",""a"":true}","9:13:58","1","4","Test_2","74","f","0","712.3000001907349","1920 x 1080","1920 x 1080","true","1","0","","","","",""
"null","<p style=""font-size: 80px;"">+ 10 points</p>","null","html-keyboard-response","154","795322","0.0-11.0-2.153","5ee3682ff11a7802de2e11e1","vq1uf7","LM","22","M","{""name"":""Chrome"",""chrome"":true,""version"":""106.0"",""blink"":true,""windows"":true,""osname"":""Windows"",""osversion"":""10"",""a"":true}","9:13:58","1","4","Test_1","74","j","1","572.5","1920 x 1080","1920 x 1080","true","1","10","","","","",""
"null","<p style=""font-size: 80px;"">+ 10 points</p>","null","html-keyboard-response","155","798744","0.0-11.0-2.154","5ee3682ff11a7802de2e11e1","vq1uf7","LM","22","M","{""name"":""Chrome"",""chrome"":true,""version"":""106.0"",""blink"":true,""windows"":true,""osname"":""Windows"",""osversion"":""10"",""a"":true}","9:13:58","1","4","Test_4","70","f","1","1394.7999999523163","1920 x 1080","1920 x 1080","true","1","10","","","","",""
"null","<p style=""font-size: 80px;"">+ 10 points</p>","null","html-keyboard-response","156","801610","0.0-11.0-2.155","5ee3682ff11a7802de2e11e1","vq1uf7","LM","22","M","{""name"":""Chrome"",""chrome"":true,""version"":""106.0"",""blink"":true,""windows"":true,""osname"":""Windows"",""osversion"":""10"",""a"":true}","9:13:58","1","4","Test_3","74","j","1","848.4000000953674","1920 x 1080","1920 x 1080","true","1","10","","","","",""
"null","<p style=""font-size: 80px;"">+ 10 points</p>","null","html-keyboard-response","157","804226","0.0-11.0-2.156","5ee3682ff11a7802de2e11e1","vq1uf7","LM","22","M","{""name"":""Chrome"",""chrome"":true,""version"":""106.0"",""blink"":true,""windows"":true,""osname"":""Windows"",""osversion"":""10"",""a"":true}","9:13:58","1","4","Test_3","74","j","1","588.9000000953674","1920 x 1080","1920 x 1080","true","1","10","","","","",""
"null","<p style=""font-size: 80px;"">+ 10 points</p>","null","html-keyboard-response","158","807173","0.0-11.0-2.157","5ee3682ff11a7802de2e11e1","vq1uf7","LM","22","M","{""name"":""Chrome"",""chrome"":true,""version"":""106.0"",""blink"":true,""windows"":true,""osname"":""Windows"",""osversion"":""10"",""a"":true}","9:13:58","1","4","Test_1","74","j","1","917.0999999046326","1920 x 1080","1920 x 1080","true","1","10","","","","",""
"null","<p style=""font-size: 80px;"">+ 10 points</p>","null","html-keyboard-response","159","810060","0.0-11.0-2.158","5ee3682ff11a7802de2e11e1","vq1uf7","LM","22","M","{""name"":""Chrome"",""chrome"":true,""version"":""106.0"",""blink"":true,""windows"":true,""osname"":""Windows"",""osversion"":""10"",""a"":true}","9:13:58","1","4","Test_4","70","f","1","877.3999998569489","1920 x 1080","1920 x 1080","true","1","10","","","","",""
"null","<p style=""font-size: 80px;"">+ 10 points</p>","null","html-keyboard-response","160","812785","0.0-11.0-2.159","5ee3682ff11a7802de2e11e1","vq1uf7","LM","22","M","{""name"":""Chrome"",""chrome"":true,""version"":""106.0"",""blink"":true,""windows"":true,""osname"":""Windows"",""osversion"":""10"",""a"":true}","9:13:58","1","4","Test_2","70","f","1","707.2000000476837","1920 x 1080","1920 x 1080","true","1","10","","","","",""
"null","<p style=""font-size: 80px;"">+ 10 points</p>","null","html-keyboard-response","161","815611","0.0-11.0-2.160","5ee3682ff11a7802de2e11e1","vq1uf7","LM","22","M","{""name"":""Chrome"",""chrome"":true,""version"":""106.0"",""blink"":true,""windows"":true,""osname"":""Windows"",""osversion"":""10"",""a"":true}","9:13:58","1","4","Test_4","70","f","1","801.4000000953674","1920 x 1080","1920 x 1080","true","1","10","","","","",""
"null","<p style=""font-size: 80px;"">+ 0 points</p>","null","html-keyboard-response","162","818836","0.0-11.0-2.161","5ee3682ff11a7802de2e11e1","vq1uf7","LM","22","M","{""name"":""Chrome"",""chrome"":true,""version"":""106.0"",""blink"":true,""windows"":true,""osname"":""Windows"",""osversion"":""10"",""a"":true}","9:13:58","1","4","Test_1","70","j","0","1203.7999999523163","1920 x 1080","1920 x 1080","true","1","0","","","","",""
"null","<p style=""font-size: 80px;"">+ 10 points</p>","null","html-keyboard-response","163","821525","0.0-11.0-2.162","5ee3682ff11a7802de2e11e1","vq1uf7","LM","22","M","{""name"":""Chrome"",""chrome"":true,""version"":""106.0"",""blink"":true,""windows"":true,""osname"":""Windows"",""osversion"":""10"",""a"":true}","9:13:58","1","4","Test_1","74","j","1","676.4000000953674","1920 x 1080","1920 x 1080","true","1","10","","","","",""
"null","<p style=""font-size: 80px;"">+ 10 points</p>","null","html-keyboard-response","164","824250","0.0-11.0-2.163","5ee3682ff11a7802de2e11e1","vq1uf7","LM","22","M","{""name"":""Chrome"",""chrome"":true,""version"":""106.0"",""blink"":true,""windows"":true,""osname"":""Windows"",""osversion"":""10"",""a"":true}","9:13:58","1","4","Test_1","74","j","1","700.7999999523163","1920 x 1080","1920 x 1080","true","1","10","","","","",""
"null","<p style=""font-size: 80px;"">+ 0 points</p>","null","html-keyboard-response","165","826682","0.0-11.0-2.164","5ee3682ff11a7802de2e11e1","vq1uf7","LM","22","M","{""name"":""Chrome"",""chrome"":true,""version"":""106.0"",""blink"":true,""windows"":true,""osname"":""Windows"",""osversion"":""10"",""a"":true}","9:13:58","1","4","Test_3","70","j","0","425.2999999523163","1920 x 1080","1920 x 1080","true","1","0","","","","",""
"null","<p style=""font-size: 80px;"">+ 10 points</p>","null","html-keyboard-response","166","829283","0.0-11.0-2.165","5ee3682ff11a7802de2e11e1","vq1uf7","LM","22","M","{""name"":""Chrome"",""chrome"":true,""version"":""106.0"",""blink"":true,""windows"":true,""osname"":""Windows"",""osversion"":""10"",""a"":true}","9:13:58","1","4","Test_3","74","j","1","589.5999999046326","1920 x 1080","1920 x 1080","true","1","10","","","","",""
"null","<p style=""font-size: 80px;"">+ 10 points</p>","null","html-keyboard-response","167","831830","0.0-11.0-2.166","5ee3682ff11a7802de2e11e1","vq1uf7","LM","22","M","{""name"":""Chrome"",""chrome"":true,""version"":""106.0"",""blink"":true,""windows"":true,""osname"":""Windows"",""osversion"":""10"",""a"":true}","9:13:58","1","4","Test_2","70","f","1","526.2000000476837","1920 x 1080","1920 x 1080","true","1","10","","","","",""
"null","<p style=""font-size: 80px;"">+ 10 points</p>","null","html-keyboard-response","168","834478","0.0-11.0-2.167","5ee3682ff11a7802de2e11e1","vq1uf7","LM","22","M","{""name"":""Chrome"",""chrome"":true,""version"":""106.0"",""blink"":true,""windows"":true,""osname"":""Windows"",""osversion"":""10"",""a"":true}","9:13:58","1","4","Test_2","70","f","1","618.2999999523163","1920 x 1080","1920 x 1080","true","1","10","","","","",""
"null","<p style=""font-size: 80px;"">+ 10 points</p>","null","html-keyboard-response","169","837011","0.0-11.0-2.168","5ee3682ff11a7802de2e11e1","vq1uf7","LM","22","M","{""name"":""Chrome"",""chrome"":true,""version"":""106.0"",""blink"":true,""windows"":true,""osname"":""Windows"",""osversion"":""10"",""a"":true}","9:13:58","1","4","Test_3","74","j","1","522","1920 x 1080","1920 x 1080","true","1","10","","","","",""
"null","<p style=""font-size: 80px;"">+ 10 points</p>","null","html-keyboard-response","170","839658","0.0-11.0-2.169","5ee3682ff11a7802de2e11e1","vq1uf7","LM","22","M","{""name"":""Chrome"",""chrome"":true,""version"":""106.0"",""blink"":true,""windows"":true,""osname"":""Windows"",""osversion"":""10"",""a"":true}","9:13:58","1","4","Test_4","70","f","1","632.8000001907349","1920 x 1080","1920 x 1080","true","1","10","","","","",""
"null","<p style=""font-size: 80px;"">+ 10 points</p>","null","html-keyboard-response","171","842618","0.0-11.0-2.170","5ee3682ff11a7802de2e11e1","vq1uf7","LM","22","M","{""name"":""Chrome"",""chrome"":true,""version"":""106.0"",""blink"":true,""windows"":true,""osname"":""Windows"",""osversion"":""10"",""a"":true}","9:13:58","1","4","Test_4","70","f","1","943.3000001907349","1920 x 1080","1920 x 1080","true","1","10","","","","",""
"null","<p style=""font-size: 80px;"">+ 10 points</p>","null","html-keyboard-response","172","845192","0.0-11.0-2.171","5ee3682ff11a7802de2e11e1","vq1uf7","LM","22","M","{""name"":""Chrome"",""chrome"":true,""version"":""106.0"",""blink"":true,""windows"":true,""osname"":""Windows"",""osversion"":""10"",""a"":true}","9:13:58","1","4","Test_2","70","f","1","556.3000001907349","1920 x 1080","1920 x 1080","true","1","10","","","","",""
"null","<p style=""font-size: 80px;"">+ 0 points</p>","null","html-keyboard-response","173","848283","0.0-11.0-2.172","5ee3682ff11a7802de2e11e1","vq1uf7","LM","22","M","{""name"":""Chrome"",""chrome"":true,""version"":""106.0"",""blink"":true,""windows"":true,""osname"":""Windows"",""osversion"":""10"",""a"":true}","9:13:58","1","3","Test_2","70","j","0","1082.5999999046326","1920 x 1080","1920 x 1080","true","1","0","","","","",""
"null","<p style=""font-size: 80px;"">+ 10 points</p>","null","html-keyboard-response","174","850860","0.0-11.0-2.173","5ee3682ff11a7802de2e11e1","vq1uf7","LM","22","M","{""name"":""Chrome"",""chrome"":true,""version"":""106.0"",""blink"":true,""windows"":true,""osname"":""Windows"",""osversion"":""10"",""a"":true}","9:13:58","1","3","Test_2","74","j","1","553.5","1920 x 1080","1920 x 1080","true","1","10","","","","",""
"null","<p style=""font-size: 80px;"">+ 10 points</p>","null","html-keyboard-response","175","854276","0.0-11.0-2.174","5ee3682ff11a7802de2e11e1","vq1uf7","LM","22","M","{""name"":""Chrome"",""chrome"":true,""version"":""106.0"",""blink"":true,""windows"":true,""osname"":""Windows"",""osversion"":""10"",""a"":true}","9:13:58","1","3","Test_1","70","f","1","1400.1000001430511","1920 x 1080","1920 x 1080","true","1","10","","","","",""
"null","<p style=""font-size: 80px;"">+ 10 points</p>","null","html-keyboard-response","176","857694","0.0-11.0-2.175","5ee3682ff11a7802de2e11e1","vq1uf7","LM","22","M","{""name"":""Chrome"",""chrome"":true,""version"":""106.0"",""blink"":true,""windows"":true,""osname"":""Windows"",""osversion"":""10"",""a"":true}","9:13:58","1","3","Test_2","74","j","1","1390.5","1920 x 1080","1920 x 1080","true","1","10","","","","",""
"null","<p style=""font-size: 80px;"">+ 10 points</p>","null","html-keyboard-response","177","860358","0.0-11.0-2.176","5ee3682ff11a7802de2e11e1","vq1uf7","LM","22","M","{""name"":""Chrome"",""chrome"":true,""version"":""106.0"",""blink"":true,""windows"":true,""osname"":""Windows"",""osversion"":""10"",""a"":true}","9:13:58","1","3","Test_3","70","f","1","637.1000001430511","1920 x 1080","1920 x 1080","true","1","10","","","","",""
"null","<p style=""font-size: 80px;"">+ 10 points</p>","null","html-keyboard-response","178","863425","0.0-11.0-2.177","5ee3682ff11a7802de2e11e1","vq1uf7","LM","22","M","{""name"":""Chrome"",""chrome"":true,""version"":""106.0"",""blink"":true,""windows"":true,""osname"":""Windows"",""osversion"":""10"",""a"":true}","9:13:58","1","3","Test_4","74","j","1","1045.6000001430511","1920 x 1080","1920 x 1080","true","1","10","","","","",""
"null","<p style=""font-size: 80px;"">+ 10 points</p>","null","html-keyboard-response","179","866762","0.0-11.0-2.178","5ee3682ff11a7802de2e11e1","vq1uf7","LM","22","M","{""name"":""Chrome"",""chrome"":true,""version"":""106.0"",""blink"":true,""windows"":true,""osname"":""Windows"",""osversion"":""10"",""a"":true}","9:13:58","1","3","Test_4","74","j","1","1321.7999999523163","1920 x 1080","1920 x 1080","true","1","10","","","","",""
"null","<p style=""font-size: 80px;"">+ 10 points</p>","null","html-keyboard-response","180","869266","0.0-11.0-2.179","5ee3682ff11a7802de2e11e1","vq1uf7","LM","22","M","{""name"":""Chrome"",""chrome"":true,""version"":""106.0"",""blink"":true,""windows"":true,""osname"":""Windows"",""osversion"":""10"",""a"":true}","9:13:58","1","3","Test_3","70","f","1","480.09999990463257","1920 x 1080","1920 x 1080","true","1","10","","","","",""
"null","<p style=""font-size: 80px;"">+ 10 points</p>","null","html-keyboard-response","181","873071","0.0-11.0-2.180","5ee3682ff11a7802de2e11e1","vq1uf7","LM","22","M","{""name"":""Chrome"",""chrome"":true,""version"":""106.0"",""blink"":true,""windows"":true,""osname"":""Windows"",""osversion"":""10"",""a"":true}","9:13:58","1","3","Test_1","70","f","1","1783.2999999523163","1920 x 1080","1920 x 1080","true","1","10","","","","",""
"null","<p style=""font-size: 80px;"">+ 10 points</p>","null","html-keyboard-response","182","875582","0.0-11.0-2.181","5ee3682ff11a7802de2e11e1","vq1uf7","LM","22","M","{""name"":""Chrome"",""chrome"":true,""version"":""106.0"",""blink"":true,""windows"":true,""osname"":""Windows"",""osversion"":""10"",""a"":true}","9:13:58","1","3","Test_1","70","f","1","499","1920 x 1080","1920 x 1080","true","1","10","","","","",""
"null","<p style=""font-size: 80px;"">+ 10 points</p>","null","html-keyboard-response","183","878063","0.0-11.0-2.182","5ee3682ff11a7802de2e11e1","vq1uf7","LM","22","M","{""name"":""Chrome"",""chrome"":true,""version"":""106.0"",""blink"":true,""windows"":true,""osname"":""Windows"",""osversion"":""10"",""a"":true}","9:13:58","1","3","Test_1","70","f","1","455.90000009536743","1920 x 1080","1920 x 1080","true","1","10","","","","",""
"null","<p style=""font-size: 80px;"">+ 10 points</p>","null","html-keyboard-response","184","881108","0.0-11.0-2.183","5ee3682ff11a7802de2e11e1","vq1uf7","LM","22","M","{""name"":""Chrome"",""chrome"":true,""version"":""106.0"",""blink"":true,""windows"":true,""osname"":""Windows"",""osversion"":""10"",""a"":true}","9:13:58","1","3","Test_4","74","j","1","1026.1999998092651","1920 x 1080","1920 x 1080","true","1","10","","","","",""
"null","<p style=""font-size: 80px;"">+ 10 points</p>","null","html-keyboard-response","185","883908","0.0-11.0-2.184","5ee3682ff11a7802de2e11e1","vq1uf7","LM","22","M","{""name"":""Chrome"",""chrome"":true,""version"":""106.0"",""blink"":true,""windows"":true,""osname"":""Windows"",""osversion"":""10"",""a"":true}","9:13:58","1","3","Test_4","74","j","1","778.6000001430511","1920 x 1080","1920 x 1080","true","1","10","","","","",""
"null","<p style=""font-size: 80px;"">+ 10 points</p>","null","html-keyboard-response","186","886449","0.0-11.0-2.185","5ee3682ff11a7802de2e11e1","vq1uf7","LM","22","M","{""name"":""Chrome"",""chrome"":true,""version"":""106.0"",""blink"":true,""windows"":true,""osname"":""Windows"",""osversion"":""10"",""a"":true}","9:13:58","1","3","Test_3","70","f","1","517.1999998092651","1920 x 1080","1920 x 1080","true","1","10","","","","",""
"null","<p style=""font-size: 80px;"">+ 10 points</p>","null","html-keyboard-response","187","889320","0.0-11.0-2.186","5ee3682ff11a7802de2e11e1","vq1uf7","LM","22","M","{""name"":""Chrome"",""chrome"":true,""version"":""106.0"",""blink"":true,""windows"":true,""osname"":""Windows"",""osversion"":""10"",""a"":true}","9:13:58","1","3","Test_4","74","j","1","846.5999999046326","1920 x 1080","1920 x 1080","true","1","10","","","","",""
"null","<p style=""font-size: 80px;"">+ 10 points</p>","null","html-keyboard-response","188","892734","0.0-11.0-2.187","5ee3682ff11a7802de2e11e1","vq1uf7","LM","22","M","{""name"":""Chrome"",""chrome"":true,""version"":""106.0"",""blink"":true,""windows"":true,""osname"":""Windows"",""osversion"":""10"",""a"":true}","9:13:58","1","3","Test_3","70","f","1","1391.2999999523163","1920 x 1080","1920 x 1080","true","1","10","","","","",""
