"rt","stimulus","key_press","trial_type","trial_index","time_elapsed","internal_node_id","Prolific_ID","random_ID","initials","age","gender","pc_info","start_time","Phase","Rule","Stimulus","Response","CorrResp","Accuracy","ResponseTime","screen_resolution","window_resolution","focus","relevant","Points","responses","question_order","rev_check","butterfly_check","passed_practice"
"null","<p style=""font-size: 80px;"">+ 0 points</p>","null","html-keyboard-response","1","71276","0.0-7.0-2.0","5e5beb1ed9d6813cae521b50","ymw0qx","RS","40","F","{""name"":""Chrome"",""chrome"":true,""version"":""106.0"",""blink"":true,""mac"":true,""osname"":""macOS"",""osversion"":""10.15.7"",""a"":true}","9:22:31","0","1","Practice_4","70","j","0","1297.699999988079","1440 x 900","1440 x 900","true","1","0","","","","",""
"null","<p style=""font-size: 80px;"">+ 10 points</p>","null","html-keyboard-response","2","74020","0.0-7.0-2.1","5e5beb1ed9d6813cae521b50","ymw0qx","RS","40","F","{""name"":""Chrome"",""chrome"":true,""version"":""106.0"",""blink"":true,""mac"":true,""osname"":""macOS"",""osversion"":""10.15.7"",""a"":true}","9:22:31","0","1","Practice_4","74","j","1","734.8999999761581","1440 x 900","1440 x 900","true","1","10","","","","",""
"null","<p style=""font-size: 80px;"">+ 10 points</p>","null","html-keyboard-response","3","77515","0.0-7.0-2.2","5e5beb1ed9d6813cae521b50","ymw0qx","RS","40","F","{""name"":""Chrome"",""chrome"":true,""version"":""106.0"",""blink"":true,""mac"":true,""osname"":""macOS"",""osversion"":""10.15.7"",""a"":true}","9:22:31","0","1","Practice_2","74","j","1","1485.4000000357628","1440 x 900","1440 x 900","true","1","10","","","","",""
"null","<p style=""font-size: 80px;"">+ 10 points</p>","null","html-keyboard-response","4","81168","0.0-7.0-2.3","5e5beb1ed9d6813cae521b50","ymw0qx","RS","40","F","{""name"":""Chrome"",""chrome"":true,""version"":""106.0"",""blink"":true,""mac"":true,""osname"":""macOS"",""osversion"":""10.15.7"",""a"":true}","9:22:31","0","1","Practice_3","70","f","1","1641.0999999642372","1440 x 900","1440 x 900","true","1","10","","","","",""
"null","<p style=""font-size: 80px;"">+ 10 points</p>","null","html-keyboard-response","5","84754","0.0-7.0-2.4","5e5beb1ed9d6813cae521b50","ymw0qx","RS","40","F","{""name"":""Chrome"",""chrome"":true,""version"":""106.0"",""blink"":true,""mac"":true,""osname"":""macOS"",""osversion"":""10.15.7"",""a"":true}","9:22:31","0","1","Practice_1","70","f","1","1576.699999988079","1440 x 900","1440 x 900","true","1","10","","","","",""
"null","<p style=""font-size: 80px;"">+ 10 points</p>","null","html-keyboard-response","6","87709","0.0-7.0-2.5","5e5beb1ed9d6813cae521b50","ymw0qx","RS","40","F","{""name"":""Chrome"",""chrome"":true,""version"":""106.0"",""blink"":true,""mac"":true,""osname"":""macOS"",""osversion"":""10.15.7"",""a"":true}","9:22:31","0","1","Practice_4","74","j","1","946.5999999642372","1440 x 900","1440 x 900","true","1","10","","","","",""
"null","<p style=""font-size: 80px;"">+ 10 points</p>","null","html-keyboard-response","7","90619","0.0-7.0-2.6","5e5beb1ed9d6813cae521b50","ymw0qx","RS","40","F","{""name"":""Chrome"",""chrome"":true,""version"":""106.0"",""blink"":true,""mac"":true,""osname"":""macOS"",""osversion"":""10.15.7"",""a"":true}","9:22:31","0","1","Practice_3","70","f","1","896.8000000119209","1440 x 900","1440 x 900","true","1","10","","","","",""
"null","<p style=""font-size: 80px;"">+ 10 points</p>","null","html-keyboard-response","8","93401","0.0-7.0-2.7","5e5beb1ed9d6813cae521b50","ymw0qx","RS","40","F","{""name"":""Chrome"",""chrome"":true,""version"":""106.0"",""blink"":true,""mac"":true,""osname"":""macOS"",""osversion"":""10.15.7"",""a"":true}","9:22:31","0","1","Practice_1","70","f","1","773.3999999761581","1440 x 900","1440 x 900","true","1","10","","","","",""
"null","<p style=""font-size: 80px;"">+ 10 points</p>","null","html-keyboard-response","9","96548","0.0-7.0-2.8","5e5beb1ed9d6813cae521b50","ymw0qx","RS","40","F","{""name"":""Chrome"",""chrome"":true,""version"":""106.0"",""blink"":true,""mac"":true,""osname"":""macOS"",""osversion"":""10.15.7"",""a"":true}","9:22:31","0","1","Practice_2","74","j","1","1137","1440 x 900","1440 x 900","true","1","10","","","","",""
"null","<p style=""font-size: 80px;"">+ 10 points</p>","null","html-keyboard-response","10","99405","0.0-7.0-2.9","5e5beb1ed9d6813cae521b50","ymw0qx","RS","40","F","{""name"":""Chrome"",""chrome"":true,""version"":""106.0"",""blink"":true,""mac"":true,""osname"":""macOS"",""osversion"":""10.15.7"",""a"":true}","9:22:31","0","1","Practice_3","70","f","1","780.8999999761581","1440 x 900","1440 x 900","true","1","10","","","","",""
"null","<p style=""font-size: 80px;"">+ 10 points</p>","null","html-keyboard-response","11","102180","0.0-7.0-2.10","5e5beb1ed9d6813cae521b50","ymw0qx","RS","40","F","{""name"":""Chrome"",""chrome"":true,""version"":""106.0"",""blink"":true,""mac"":true,""osname"":""macOS"",""osversion"":""10.15.7"",""a"":true}","9:22:31","0","1","Practice_4","74","j","1","768.2999999523163","1440 x 900","1440 x 900","true","1","10","","","","",""
"null","<p style=""font-size: 80px;"">+ 10 points</p>","null","html-keyboard-response","12","104746","0.0-7.0-2.11","5e5beb1ed9d6813cae521b50","ymw0qx","RS","40","F","{""name"":""Chrome"",""chrome"":true,""version"":""106.0"",""blink"":true,""mac"":true,""osname"":""macOS"",""osversion"":""10.15.7"",""a"":true}","9:22:31","0","1","Practice_3","70","f","1","557.7999999523163","1440 x 900","1440 x 900","true","1","10","","","","",""
"null","<p style=""font-size: 80px;"">+ 10 points</p>","null","html-keyboard-response","13","107333","0.0-7.0-2.12","5e5beb1ed9d6813cae521b50","ymw0qx","RS","40","F","{""name"":""Chrome"",""chrome"":true,""version"":""106.0"",""blink"":true,""mac"":true,""osname"":""macOS"",""osversion"":""10.15.7"",""a"":true}","9:22:31","0","1","Practice_3","70","f","1","577.5999999642372","1440 x 900","1440 x 900","true","1","10","","","","",""
"null","<p style=""font-size: 80px;"">+ 10 points</p>","null","html-keyboard-response","14","109989","0.0-7.0-2.13","5e5beb1ed9d6813cae521b50","ymw0qx","RS","40","F","{""name"":""Chrome"",""chrome"":true,""version"":""106.0"",""blink"":true,""mac"":true,""osname"":""macOS"",""osversion"":""10.15.7"",""a"":true}","9:22:31","0","1","Practice_2","74","j","1","648.7999999523163","1440 x 900","1440 x 900","true","1","10","","","","",""
"null","<p style=""font-size: 80px;"">+ 10 points</p>","null","html-keyboard-response","15","112586","0.0-7.0-2.14","5e5beb1ed9d6813cae521b50","ymw0qx","RS","40","F","{""name"":""Chrome"",""chrome"":true,""version"":""106.0"",""blink"":true,""mac"":true,""osname"":""macOS"",""osversion"":""10.15.7"",""a"":true}","9:22:31","0","1","Practice_2","74","j","1","591.6999999880791","1440 x 900","1440 x 900","true","1","10","","","","",""
"null","<p style=""font-size: 80px;"">+ 10 points</p>","null","html-keyboard-response","16","115140","0.0-7.0-2.15","5e5beb1ed9d6813cae521b50","ymw0qx","RS","40","F","{""name"":""Chrome"",""chrome"":true,""version"":""106.0"",""blink"":true,""mac"":true,""osname"":""macOS"",""osversion"":""10.15.7"",""a"":true}","9:22:31","0","1","Practice_1","70","f","1","545.5","1440 x 900","1440 x 900","true","1","10","","","","",""
"null","<p style=""font-size: 80px;"">+ 10 points</p>","null","html-keyboard-response","17","117684","0.0-7.0-2.16","5e5beb1ed9d6813cae521b50","ymw0qx","RS","40","F","{""name"":""Chrome"",""chrome"":true,""version"":""106.0"",""blink"":true,""mac"":true,""osname"":""macOS"",""osversion"":""10.15.7"",""a"":true}","9:22:31","0","1","Practice_2","74","j","1","535","1440 x 900","1440 x 900","true","1","10","","","","",""
"null","<p style=""font-size: 80px;"">+ 10 points</p>","null","html-keyboard-response","18","120431","0.0-7.0-2.17","5e5beb1ed9d6813cae521b50","ymw0qx","RS","40","F","{""name"":""Chrome"",""chrome"":true,""version"":""106.0"",""blink"":true,""mac"":true,""osname"":""macOS"",""osversion"":""10.15.7"",""a"":true}","9:22:31","0","1","Practice_4","74","j","1","714.6000000238419","1440 x 900","1440 x 900","true","1","10","","","","",""
"null","<p style=""font-size: 80px;"">+ 10 points</p>","null","html-keyboard-response","19","123182","0.0-7.0-2.18","5e5beb1ed9d6813cae521b50","ymw0qx","RS","40","F","{""name"":""Chrome"",""chrome"":true,""version"":""106.0"",""blink"":true,""mac"":true,""osname"":""macOS"",""osversion"":""10.15.7"",""a"":true}","9:22:31","0","1","Practice_1","70","f","1","744.5","1440 x 900","1440 x 900","true","1","10","","","","",""
"null","<p style=""font-size: 80px;"">+ 10 points</p>","null","html-keyboard-response","20","125806","0.0-7.0-2.19","5e5beb1ed9d6813cae521b50","ymw0qx","RS","40","F","{""name"":""Chrome"",""chrome"":true,""version"":""106.0"",""blink"":true,""mac"":true,""osname"":""macOS"",""osversion"":""10.15.7"",""a"":true}","9:22:31","0","1","Practice_1","70","f","1","617.6000000238419","1440 x 900","1440 x 900","true","1","10","","","","",""
"null","<p style=""font-size: 80px;"">+ 0 points</p>","null","html-keyboard-response","21","128341","0.0-7.0-2.20","5e5beb1ed9d6813cae521b50","ymw0qx","RS","40","F","{""name"":""Chrome"",""chrome"":true,""version"":""106.0"",""blink"":true,""mac"":true,""osname"":""macOS"",""osversion"":""10.15.7"",""a"":true}","9:22:31","0","2","Practice_3","70","j","0","525.5999999642372","1440 x 900","1440 x 900","true","1","0","","","","",""
"null","<p style=""font-size: 80px;"">+ 0 points</p>","null","html-keyboard-response","22","131158","0.0-7.0-2.21","5e5beb1ed9d6813cae521b50","ymw0qx","RS","40","F","{""name"":""Chrome"",""chrome"":true,""version"":""106.0"",""blink"":true,""mac"":true,""osname"":""macOS"",""osversion"":""10.15.7"",""a"":true}","9:22:31","0","2","Practice_4","74","f","0","805.3999999761581","1440 x 900","1440 x 900","true","1","0","","","","",""
"null","<p style=""font-size: 80px;"">+ 10 points</p>","null","html-keyboard-response","23","134214","0.0-7.0-2.22","5e5beb1ed9d6813cae521b50","ymw0qx","RS","40","F","{""name"":""Chrome"",""chrome"":true,""version"":""106.0"",""blink"":true,""mac"":true,""osname"":""macOS"",""osversion"":""10.15.7"",""a"":true}","9:22:31","0","2","Practice_1","74","j","1","1049.0999999642372","1440 x 900","1440 x 900","true","1","10","","","","",""
"null","<p style=""font-size: 80px;"">+ 10 points</p>","null","html-keyboard-response","24","137734","0.0-7.0-2.23","5e5beb1ed9d6813cae521b50","ymw0qx","RS","40","F","{""name"":""Chrome"",""chrome"":true,""version"":""106.0"",""blink"":true,""mac"":true,""osname"":""macOS"",""osversion"":""10.15.7"",""a"":true}","9:22:31","0","2","Practice_2","70","f","1","1510.300000011921","1440 x 900","1440 x 900","true","1","10","","","","",""
"null","<p style=""font-size: 80px;"">+ 10 points</p>","null","html-keyboard-response","25","141220","0.0-7.0-2.24","5e5beb1ed9d6813cae521b50","ymw0qx","RS","40","F","{""name"":""Chrome"",""chrome"":true,""version"":""106.0"",""blink"":true,""mac"":true,""osname"":""macOS"",""osversion"":""10.15.7"",""a"":true}","9:22:31","0","2","Practice_2","70","f","1","1474.7999999523163","1440 x 900","1440 x 900","true","1","10","","","","",""
"null","<p style=""font-size: 80px;"">+ 10 points</p>","null","html-keyboard-response","26","144918","0.0-7.0-2.25","5e5beb1ed9d6813cae521b50","ymw0qx","RS","40","F","{""name"":""Chrome"",""chrome"":true,""version"":""106.0"",""blink"":true,""mac"":true,""osname"":""macOS"",""osversion"":""10.15.7"",""a"":true}","9:22:31","0","2","Practice_1","74","j","1","1689.9000000357628","1440 x 900","1440 x 900","true","1","10","","","","",""
"null","<p style=""font-size: 80px;"">+ 10 points</p>","null","html-keyboard-response","27","148917","0.0-7.0-2.26","5e5beb1ed9d6813cae521b50","ymw0qx","RS","40","F","{""name"":""Chrome"",""chrome"":true,""version"":""106.0"",""blink"":true,""mac"":true,""osname"":""macOS"",""osversion"":""10.15.7"",""a"":true}","9:22:31","0","2","Practice_1","74","j","1","1991.5","1440 x 900","1440 x 900","true","1","10","","","","",""
"null","<p style=""font-size: 80px;"">+ 10 points</p>","null","html-keyboard-response","28","151783","0.0-7.0-2.27","5e5beb1ed9d6813cae521b50","ymw0qx","RS","40","F","{""name"":""Chrome"",""chrome"":true,""version"":""106.0"",""blink"":true,""mac"":true,""osname"":""macOS"",""osversion"":""10.15.7"",""a"":true}","9:22:31","0","2","Practice_2","70","f","1","856.0999999642372","1440 x 900","1440 x 900","true","1","10","","","","",""
"null","<p style=""font-size: 80px;"">+ 10 points</p>","null","html-keyboard-response","29","154743","0.0-7.0-2.28","5e5beb1ed9d6813cae521b50","ymw0qx","RS","40","F","{""name"":""Chrome"",""chrome"":true,""version"":""106.0"",""blink"":true,""mac"":true,""osname"":""macOS"",""osversion"":""10.15.7"",""a"":true}","9:22:31","0","2","Practice_1","74","j","1","947","1440 x 900","1440 x 900","true","1","10","","","","",""
"null","<p style=""font-size: 80px;"">+ 10 points</p>","null","html-keyboard-response","30","158187","0.0-7.0-2.29","5e5beb1ed9d6813cae521b50","ymw0qx","RS","40","F","{""name"":""Chrome"",""chrome"":true,""version"":""106.0"",""blink"":true,""mac"":true,""osname"":""macOS"",""osversion"":""10.15.7"",""a"":true}","9:22:31","0","2","Practice_4","70","f","1","1432.6000000238419","1440 x 900","1440 x 900","true","1","10","","","","",""
"null","<p style=""font-size: 80px;"">+ 10 points</p>","null","html-keyboard-response","31","160961","0.0-7.0-2.30","5e5beb1ed9d6813cae521b50","ymw0qx","RS","40","F","{""name"":""Chrome"",""chrome"":true,""version"":""106.0"",""blink"":true,""mac"":true,""osname"":""macOS"",""osversion"":""10.15.7"",""a"":true}","9:22:31","0","2","Practice_4","70","f","1","765.0999999642372","1440 x 900","1440 x 900","true","1","10","","","","",""
"null","<p style=""font-size: 80px;"">+ 10 points</p>","null","html-keyboard-response","32","164345","0.0-7.0-2.31","5e5beb1ed9d6813cae521b50","ymw0qx","RS","40","F","{""name"":""Chrome"",""chrome"":true,""version"":""106.0"",""blink"":true,""mac"":true,""osname"":""macOS"",""osversion"":""10.15.7"",""a"":true}","9:22:31","0","2","Practice_3","74","j","1","1377.300000011921","1440 x 900","1440 x 900","true","1","10","","","","",""
"null","<p style=""font-size: 80px;"">+ 10 points</p>","null","html-keyboard-response","33","167282","0.0-7.0-2.32","5e5beb1ed9d6813cae521b50","ymw0qx","RS","40","F","{""name"":""Chrome"",""chrome"":true,""version"":""106.0"",""blink"":true,""mac"":true,""osname"":""macOS"",""osversion"":""10.15.7"",""a"":true}","9:22:31","0","2","Practice_4","70","f","1","929","1440 x 900","1440 x 900","true","1","10","","","","",""
"null","<p style=""font-size: 80px;"">+ 10 points</p>","null","html-keyboard-response","34","170430","0.0-7.0-2.33","5e5beb1ed9d6813cae521b50","ymw0qx","RS","40","F","{""name"":""Chrome"",""chrome"":true,""version"":""106.0"",""blink"":true,""mac"":true,""osname"":""macOS"",""osversion"":""10.15.7"",""a"":true}","9:22:31","0","2","Practice_3","74","j","1","1141.6000000238419","1440 x 900","1440 x 900","true","1","10","","","","",""
"null","<p style=""font-size: 80px;"">+ 10 points</p>","null","html-keyboard-response","35","174209","0.0-7.0-2.34","5e5beb1ed9d6813cae521b50","ymw0qx","RS","40","F","{""name"":""Chrome"",""chrome"":true,""version"":""106.0"",""blink"":true,""mac"":true,""osname"":""macOS"",""osversion"":""10.15.7"",""a"":true}","9:22:31","0","2","Practice_1","74","j","1","1771.199999988079","1440 x 900","1440 x 900","true","1","10","","","","",""
"null","<p style=""font-size: 80px;"">+ 10 points</p>","null","html-keyboard-response","36","177305","0.0-7.0-2.35","5e5beb1ed9d6813cae521b50","ymw0qx","RS","40","F","{""name"":""Chrome"",""chrome"":true,""version"":""106.0"",""blink"":true,""mac"":true,""osname"":""macOS"",""osversion"":""10.15.7"",""a"":true}","9:22:31","0","2","Practice_3","74","j","1","1086.199999988079","1440 x 900","1440 x 900","true","1","10","","","","",""
"null","<p style=""font-size: 80px;"">+ 10 points</p>","null","html-keyboard-response","37","180613","0.0-7.0-2.36","5e5beb1ed9d6813cae521b50","ymw0qx","RS","40","F","{""name"":""Chrome"",""chrome"":true,""version"":""106.0"",""blink"":true,""mac"":true,""osname"":""macOS"",""osversion"":""10.15.7"",""a"":true}","9:22:31","0","2","Practice_2","70","f","1","1300.5","1440 x 900","1440 x 900","true","1","10","","","","",""
"null","<p style=""font-size: 80px;"">+ 10 points</p>","null","html-keyboard-response","38","183678","0.0-7.0-2.37","5e5beb1ed9d6813cae521b50","ymw0qx","RS","40","F","{""name"":""Chrome"",""chrome"":true,""version"":""106.0"",""blink"":true,""mac"":true,""osname"":""macOS"",""osversion"":""10.15.7"",""a"":true}","9:22:31","0","2","Practice_3","74","j","1","1054.6000000238419","1440 x 900","1440 x 900","true","1","10","","","","",""
"null","<p style=""font-size: 80px;"">+ 10 points</p>","null","html-keyboard-response","39","186727","0.0-7.0-2.38","5e5beb1ed9d6813cae521b50","ymw0qx","RS","40","F","{""name"":""Chrome"",""chrome"":true,""version"":""106.0"",""blink"":true,""mac"":true,""osname"":""macOS"",""osversion"":""10.15.7"",""a"":true}","9:22:31","0","2","Practice_2","70","f","1","1038.300000011921","1440 x 900","1440 x 900","true","1","10","","","","",""
"null","<p style=""font-size: 80px;"">+ 10 points</p>","null","html-keyboard-response","40","189978","0.0-7.0-2.39","5e5beb1ed9d6813cae521b50","ymw0qx","RS","40","F","{""name"":""Chrome"",""chrome"":true,""version"":""106.0"",""blink"":true,""mac"":true,""osname"":""macOS"",""osversion"":""10.15.7"",""a"":true}","9:22:31","0","2","Practice_4","70","f","1","1240.5999999642372","1440 x 900","1440 x 900","true","1","10","","","","",""
"39331.80000001192","","","survey-multi-choice","127","229325","0.0-8.0","5e5beb1ed9d6813cae521b50","ymw0qx","RS","40","F","{""name"":""Chrome"",""chrome"":true,""version"":""106.0"",""blink"":true,""mac"":true,""osname"":""macOS"",""osversion"":""10.15.7"",""a"":true}","9:22:31","","","","","","","","","","","1","","{""Q0"":""The red one"",""Q1"":""1""}","[0,1]","1","The red one","2"
"null","<p style=""font-size: 80px;"">+ 0 points</p>","null","html-keyboard-response","1","240448","0.0-11.0-2.0","5e5beb1ed9d6813cae521b50","ymw0qx","RS","40","F","{""name"":""Chrome"",""chrome"":true,""version"":""106.0"",""blink"":true,""mac"":true,""osname"":""macOS"",""osversion"":""10.15.7"",""a"":true}","9:22:31","1","3","Test_2","70","j","0","924.8999999761581","1440 x 900","1440 x 900","true","1","0","","","","",""
"null","<p style=""font-size: 80px;"">+ 10 points</p>","null","html-keyboard-response","2","243090","0.0-11.0-2.1","5e5beb1ed9d6813cae521b50","ymw0qx","RS","40","F","{""name"":""Chrome"",""chrome"":true,""version"":""106.0"",""blink"":true,""mac"":true,""osname"":""macOS"",""osversion"":""10.15.7"",""a"":true}","9:22:31","1","3","Test_2","74","j","1","630.5","1440 x 900","1440 x 900","true","1","10","","","","",""
"null","<p style=""font-size: 80px;"">+ 10 points</p>","null","html-keyboard-response","3","247256","0.0-11.0-2.2","5e5beb1ed9d6813cae521b50","ymw0qx","RS","40","F","{""name"":""Chrome"",""chrome"":true,""version"":""106.0"",""blink"":true,""mac"":true,""osname"":""macOS"",""osversion"":""10.15.7"",""a"":true}","9:22:31","1","3","Test_4","74","j","1","2154","1440 x 900","1440 x 900","true","1","10","","","","",""
"null","<p style=""font-size: 80px;"">+ 10 points</p>","null","html-keyboard-response","4","250400","0.0-11.0-2.3","5e5beb1ed9d6813cae521b50","ymw0qx","RS","40","F","{""name"":""Chrome"",""chrome"":true,""version"":""106.0"",""blink"":true,""mac"":true,""osname"":""macOS"",""osversion"":""10.15.7"",""a"":true}","9:22:31","1","3","Test_2","74","j","1","1134.3999999761581","1440 x 900","1440 x 900","true","1","10","","","","",""
"null","<p style=""font-size: 80px;"">+ 10 points</p>","null","html-keyboard-response","5","253141","0.0-11.0-2.4","5e5beb1ed9d6813cae521b50","ymw0qx","RS","40","F","{""name"":""Chrome"",""chrome"":true,""version"":""106.0"",""blink"":true,""mac"":true,""osname"":""macOS"",""osversion"":""10.15.7"",""a"":true}","9:22:31","1","3","Test_1","70","f","1","731.5","1440 x 900","1440 x 900","true","1","10","","","","",""
"null","<p style=""font-size: 80px;"">+ 10 points</p>","null","html-keyboard-response","6","255988","0.0-11.0-2.5","5e5beb1ed9d6813cae521b50","ymw0qx","RS","40","F","{""name"":""Chrome"",""chrome"":true,""version"":""106.0"",""blink"":true,""mac"":true,""osname"":""macOS"",""osversion"":""10.15.7"",""a"":true}","9:22:31","1","3","Test_3","70","f","1","834.9000000357628","1440 x 900","1440 x 900","true","1","10","","","","",""
"null","<p style=""font-size: 80px;"">+ 10 points</p>","null","html-keyboard-response","7","258600","0.0-11.0-2.6","5e5beb1ed9d6813cae521b50","ymw0qx","RS","40","F","{""name"":""Chrome"",""chrome"":true,""version"":""106.0"",""blink"":true,""mac"":true,""osname"":""macOS"",""osversion"":""10.15.7"",""a"":true}","9:22:31","1","3","Test_1","70","f","1","603","1440 x 900","1440 x 900","true","1","10","","","","",""
"null","<p style=""font-size: 80px;"">+ 10 points</p>","null","html-keyboard-response","8","261729","0.0-11.0-2.7","5e5beb1ed9d6813cae521b50","ymw0qx","RS","40","F","{""name"":""Chrome"",""chrome"":true,""version"":""106.0"",""blink"":true,""mac"":true,""osname"":""macOS"",""osversion"":""10.15.7"",""a"":true}","9:22:31","1","3","Test_1","70","f","1","1118.300000011921","1440 x 900","1440 x 900","true","1","10","","","","",""
"null","<p style=""font-size: 80px;"">+ 10 points</p>","null","html-keyboard-response","9","266089","0.0-11.0-2.8","5e5beb1ed9d6813cae521b50","ymw0qx","RS","40","F","{""name"":""Chrome"",""chrome"":true,""version"":""106.0"",""blink"":true,""mac"":true,""osname"":""macOS"",""osversion"":""10.15.7"",""a"":true}","9:22:31","1","3","Test_1","70","f","1","2354.199999988079","1440 x 900","1440 x 900","true","1","10","","","","",""
"null","<p style=""font-size: 80px;"">+ 10 points</p>","null","html-keyboard-response","10","268889","0.0-11.0-2.9","5e5beb1ed9d6813cae521b50","ymw0qx","RS","40","F","{""name"":""Chrome"",""chrome"":true,""version"":""106.0"",""blink"":true,""mac"":true,""osname"":""macOS"",""osversion"":""10.15.7"",""a"":true}","9:22:31","1","3","Test_4","74","j","1","792.5","1440 x 900","1440 x 900","true","1","10","","","","",""
"null","<p style=""font-size: 80px;"">+ 10 points</p>","null","html-keyboard-response","11","271544","0.0-11.0-2.10","5e5beb1ed9d6813cae521b50","ymw0qx","RS","40","F","{""name"":""Chrome"",""chrome"":true,""version"":""106.0"",""blink"":true,""mac"":true,""osname"":""macOS"",""osversion"":""10.15.7"",""a"":true}","9:22:31","1","3","Test_3","70","f","1","643.5","1440 x 900","1440 x 900","true","1","10","","","","",""
"null","<p style=""font-size: 80px;"">+ 10 points</p>","null","html-keyboard-response","12","275404","0.0-11.0-2.11","5e5beb1ed9d6813cae521b50","ymw0qx","RS","40","F","{""name"":""Chrome"",""chrome"":true,""version"":""106.0"",""blink"":true,""mac"":true,""osname"":""macOS"",""osversion"":""10.15.7"",""a"":true}","9:22:31","1","3","Test_3","70","f","1","1847.5","1440 x 900","1440 x 900","true","1","10","","","","",""
"null","<p style=""font-size: 80px;"">+ 10 points</p>","null","html-keyboard-response","13","278153","0.0-11.0-2.12","5e5beb1ed9d6813cae521b50","ymw0qx","RS","40","F","{""name"":""Chrome"",""chrome"":true,""version"":""106.0"",""blink"":true,""mac"":true,""osname"":""macOS"",""osversion"":""10.15.7"",""a"":true}","9:22:31","1","3","Test_2","74","j","1","735.8000000119209","1440 x 900","1440 x 900","true","1","10","","","","",""
"null","<p style=""font-size: 80px;"">+ 10 points</p>","null","html-keyboard-response","14","281100","0.0-11.0-2.13","5e5beb1ed9d6813cae521b50","ymw0qx","RS","40","F","{""name"":""Chrome"",""chrome"":true,""version"":""106.0"",""blink"":true,""mac"":true,""osname"":""macOS"",""osversion"":""10.15.7"",""a"":true}","9:22:31","1","3","Test_1","70","f","1","937.2000000476837","1440 x 900","1440 x 900","true","1","10","","","","",""
"null","<p style=""font-size: 80px;"">+ 10 points</p>","null","html-keyboard-response","15","283780","0.0-11.0-2.14","5e5beb1ed9d6813cae521b50","ymw0qx","RS","40","F","{""name"":""Chrome"",""chrome"":true,""version"":""106.0"",""blink"":true,""mac"":true,""osname"":""macOS"",""osversion"":""10.15.7"",""a"":true}","9:22:31","1","3","Test_3","70","f","1","669.3999999761581","1440 x 900","1440 x 900","true","1","10","","","","",""
"null","<p style=""font-size: 80px;"">+ 10 points</p>","null","html-keyboard-response","16","286570","0.0-11.0-2.15","5e5beb1ed9d6813cae521b50","ymw0qx","RS","40","F","{""name"":""Chrome"",""chrome"":true,""version"":""106.0"",""blink"":true,""mac"":true,""osname"":""macOS"",""osversion"":""10.15.7"",""a"":true}","9:22:31","1","3","Test_4","74","j","1","781.9000000357628","1440 x 900","1440 x 900","true","1","10","","","","",""
"null","<p style=""font-size: 80px;"">+ 10 points</p>","null","html-keyboard-response","17","289130","0.0-11.0-2.16","5e5beb1ed9d6813cae521b50","ymw0qx","RS","40","F","{""name"":""Chrome"",""chrome"":true,""version"":""106.0"",""blink"":true,""mac"":true,""osname"":""macOS"",""osversion"":""10.15.7"",""a"":true}","9:22:31","1","3","Test_3","70","f","1","549.3000000119209","1440 x 900","1440 x 900","true","1","10","","","","",""
"null","<p style=""font-size: 80px;"">+ 10 points</p>","null","html-keyboard-response","18","291779","0.0-11.0-2.17","5e5beb1ed9d6813cae521b50","ymw0qx","RS","40","F","{""name"":""Chrome"",""chrome"":true,""version"":""106.0"",""blink"":true,""mac"":true,""osname"":""macOS"",""osversion"":""10.15.7"",""a"":true}","9:22:31","1","3","Test_4","74","j","1","635.0999999642372","1440 x 900","1440 x 900","true","1","10","","","","",""
"null","<p style=""font-size: 80px;"">+ 10 points</p>","null","html-keyboard-response","19","294354","0.0-11.0-2.18","5e5beb1ed9d6813cae521b50","ymw0qx","RS","40","F","{""name"":""Chrome"",""chrome"":true,""version"":""106.0"",""blink"":true,""mac"":true,""osname"":""macOS"",""osversion"":""10.15.7"",""a"":true}","9:22:31","1","3","Test_4","74","j","1","566.1000000238419","1440 x 900","1440 x 900","true","1","10","","","","",""
"null","<p style=""font-size: 80px;"">+ 10 points</p>","null","html-keyboard-response","20","296989","0.0-11.0-2.19","5e5beb1ed9d6813cae521b50","ymw0qx","RS","40","F","{""name"":""Chrome"",""chrome"":true,""version"":""106.0"",""blink"":true,""mac"":true,""osname"":""macOS"",""osversion"":""10.15.7"",""a"":true}","9:22:31","1","3","Test_2","74","j","1","623.6999999880791","1440 x 900","1440 x 900","true","1","10","","","","",""
"null","<p style=""font-size: 80px;"">+ 0 points</p>","null","html-keyboard-response","21","300356","0.0-11.0-2.20","5e5beb1ed9d6813cae521b50","ymw0qx","RS","40","F","{""name"":""Chrome"",""chrome"":true,""version"":""106.0"",""blink"":true,""mac"":true,""osname"":""macOS"",""osversion"":""10.15.7"",""a"":true}","9:22:31","1","4","Test_1","70","j","0","1353.3999999761581","1440 x 900","1440 x 900","true","1","0","","","","",""
"null","<p style=""font-size: 80px;"">+ 10 points</p>","null","html-keyboard-response","22","303270","0.0-11.0-2.21","5e5beb1ed9d6813cae521b50","ymw0qx","RS","40","F","{""name"":""Chrome"",""chrome"":true,""version"":""106.0"",""blink"":true,""mac"":true,""osname"":""macOS"",""osversion"":""10.15.7"",""a"":true}","9:22:31","1","4","Test_3","74","j","1","905.1999999880791","1440 x 900","1440 x 900","true","1","10","","","","",""
"null","<p style=""font-size: 80px;"">+ 10 points</p>","null","html-keyboard-response","23","305826","0.0-11.0-2.22","5e5beb1ed9d6813cae521b50","ymw0qx","RS","40","F","{""name"":""Chrome"",""chrome"":true,""version"":""106.0"",""blink"":true,""mac"":true,""osname"":""macOS"",""osversion"":""10.15.7"",""a"":true}","9:22:31","1","4","Test_4","70","f","1","542.8999999761581","1440 x 900","1440 x 900","true","1","10","","","","",""
"null","<p style=""font-size: 80px;"">+ 10 points</p>","null","html-keyboard-response","24","309004","0.0-11.0-2.23","5e5beb1ed9d6813cae521b50","ymw0qx","RS","40","F","{""name"":""Chrome"",""chrome"":true,""version"":""106.0"",""blink"":true,""mac"":true,""osname"":""macOS"",""osversion"":""10.15.7"",""a"":true}","9:22:31","1","4","Test_3","74","j","1","1168.199999988079","1440 x 900","1440 x 900","true","1","10","","","","",""
"null","<p style=""font-size: 80px;"">+ 10 points</p>","null","html-keyboard-response","25","311731","0.0-11.0-2.24","5e5beb1ed9d6813cae521b50","ymw0qx","RS","40","F","{""name"":""Chrome"",""chrome"":true,""version"":""106.0"",""blink"":true,""mac"":true,""osname"":""macOS"",""osversion"":""10.15.7"",""a"":true}","9:22:31","1","4","Test_2","70","f","1","718.2000000476837","1440 x 900","1440 x 900","true","1","10","","","","",""
"null","<p style=""font-size: 80px;"">+ 10 points</p>","null","html-keyboard-response","26","314393","0.0-11.0-2.25","5e5beb1ed9d6813cae521b50","ymw0qx","RS","40","F","{""name"":""Chrome"",""chrome"":true,""version"":""106.0"",""blink"":true,""mac"":true,""osname"":""macOS"",""osversion"":""10.15.7"",""a"":true}","9:22:31","1","4","Test_1","74","j","1","651.1000000238419","1440 x 900","1440 x 900","true","1","10","","","","",""
"null","<p style=""font-size: 80px;"">+ 10 points</p>","null","html-keyboard-response","27","317151","0.0-11.0-2.26","5e5beb1ed9d6813cae521b50","ymw0qx","RS","40","F","{""name"":""Chrome"",""chrome"":true,""version"":""106.0"",""blink"":true,""mac"":true,""osname"":""macOS"",""osversion"":""10.15.7"",""a"":true}","9:22:31","1","4","Test_3","74","j","1","746","1440 x 900","1440 x 900","true","1","10","","","","",""
"null","<p style=""font-size: 80px;"">+ 10 points</p>","null","html-keyboard-response","28","319801","0.0-11.0-2.27","5e5beb1ed9d6813cae521b50","ymw0qx","RS","40","F","{""name"":""Chrome"",""chrome"":true,""version"":""106.0"",""blink"":true,""mac"":true,""osname"":""macOS"",""osversion"":""10.15.7"",""a"":true}","9:22:31","1","4","Test_4","70","f","1","639.7000000476837","1440 x 900","1440 x 900","true","1","10","","","","",""
"null","<p style=""font-size: 80px;"">+ 10 points</p>","null","html-keyboard-response","29","323016","0.0-11.0-2.28","5e5beb1ed9d6813cae521b50","ymw0qx","RS","40","F","{""name"":""Chrome"",""chrome"":true,""version"":""106.0"",""blink"":true,""mac"":true,""osname"":""macOS"",""osversion"":""10.15.7"",""a"":true}","9:22:31","1","4","Test_1","74","j","1","1203.4000000357628","1440 x 900","1440 x 900","true","1","10","","","","",""
"null","<p style=""font-size: 80px;"">+ 10 points</p>","null","html-keyboard-response","30","326158","0.0-11.0-2.29","5e5beb1ed9d6813cae521b50","ymw0qx","RS","40","F","{""name"":""Chrome"",""chrome"":true,""version"":""106.0"",""blink"":true,""mac"":true,""osname"":""macOS"",""osversion"":""10.15.7"",""a"":true}","9:22:31","1","4","Test_4","70","f","1","1128.5","1440 x 900","1440 x 900","true","1","10","","","","",""
"null","<p style=""font-size: 80px;"">+ 10 points</p>","null","html-keyboard-response","31","329212","0.0-11.0-2.30","5e5beb1ed9d6813cae521b50","ymw0qx","RS","40","F","{""name"":""Chrome"",""chrome"":true,""version"":""106.0"",""blink"":true,""mac"":true,""osname"":""macOS"",""osversion"":""10.15.7"",""a"":true}","9:22:31","1","4","Test_2","70","f","1","1044","1440 x 900","1440 x 900","true","1","10","","","","",""
"null","<p style=""font-size: 80px;"">+ 10 points</p>","null","html-keyboard-response","32","331901","0.0-11.0-2.31","5e5beb1ed9d6813cae521b50","ymw0qx","RS","40","F","{""name"":""Chrome"",""chrome"":true,""version"":""106.0"",""blink"":true,""mac"":true,""osname"":""macOS"",""osversion"":""10.15.7"",""a"":true}","9:22:31","1","4","Test_2","70","f","1","675.1999999880791","1440 x 900","1440 x 900","true","1","10","","","","",""
"null","<p style=""font-size: 80px;"">+ 10 points</p>","null","html-keyboard-response","33","335028","0.0-11.0-2.32","5e5beb1ed9d6813cae521b50","ymw0qx","RS","40","F","{""name"":""Chrome"",""chrome"":true,""version"":""106.0"",""blink"":true,""mac"":true,""osname"":""macOS"",""osversion"":""10.15.7"",""a"":true}","9:22:31","1","4","Test_3","74","j","1","1115.300000011921","1440 x 900","1440 x 900","true","1","10","","","","",""
"null","<p style=""font-size: 80px;"">+ 10 points</p>","null","html-keyboard-response","34","337852","0.0-11.0-2.33","5e5beb1ed9d6813cae521b50","ymw0qx","RS","40","F","{""name"":""Chrome"",""chrome"":true,""version"":""106.0"",""blink"":true,""mac"":true,""osname"":""macOS"",""osversion"":""10.15.7"",""a"":true}","9:22:31","1","4","Test_1","74","j","1","814.6000000238419","1440 x 900","1440 x 900","true","1","10","","","","",""
"null","<p style=""font-size: 80px;"">+ 10 points</p>","null","html-keyboard-response","35","340456","0.0-11.0-2.34","5e5beb1ed9d6813cae521b50","ymw0qx","RS","40","F","{""name"":""Chrome"",""chrome"":true,""version"":""106.0"",""blink"":true,""mac"":true,""osname"":""macOS"",""osversion"":""10.15.7"",""a"":true}","9:22:31","1","4","Test_4","70","f","1","592.8000000119209","1440 x 900","1440 x 900","true","1","10","","","","",""
"null","<p style=""font-size: 80px;"">+ 10 points</p>","null","html-keyboard-response","36","343151","0.0-11.0-2.35","5e5beb1ed9d6813cae521b50","ymw0qx","RS","40","F","{""name"":""Chrome"",""chrome"":true,""version"":""106.0"",""blink"":true,""mac"":true,""osname"":""macOS"",""osversion"":""10.15.7"",""a"":true}","9:22:31","1","4","Test_1","74","j","1","684.6999999880791","1440 x 900","1440 x 900","true","1","10","","","","",""
"null","<p style=""font-size: 80px;"">+ 10 points</p>","null","html-keyboard-response","37","346933","0.0-11.0-2.36","5e5beb1ed9d6813cae521b50","ymw0qx","RS","40","F","{""name"":""Chrome"",""chrome"":true,""version"":""106.0"",""blink"":true,""mac"":true,""osname"":""macOS"",""osversion"":""10.15.7"",""a"":true}","9:22:31","1","4","Test_3","74","j","1","1771.8999999761581","1440 x 900","1440 x 900","true","1","10","","","","",""
"null","<p style=""font-size: 80px;"">+ 0 points</p>","null","html-keyboard-response","38","350124","0.0-11.0-2.37","5e5beb1ed9d6813cae521b50","ymw0qx","RS","40","F","{""name"":""Chrome"",""chrome"":true,""version"":""106.0"",""blink"":true,""mac"":true,""osname"":""macOS"",""osversion"":""10.15.7"",""a"":true}","9:22:31","1","4","Test_2","74","f","0","1179.4000000357628","1440 x 900","1440 x 900","true","1","0","","","","",""
"null","<p style=""font-size: 80px;"">+ 10 points</p>","null","html-keyboard-response","39","352842","0.0-11.0-2.38","5e5beb1ed9d6813cae521b50","ymw0qx","RS","40","F","{""name"":""Chrome"",""chrome"":true,""version"":""106.0"",""blink"":true,""mac"":true,""osname"":""macOS"",""osversion"":""10.15.7"",""a"":true}","9:22:31","1","4","Test_2","70","f","1","709.6999999880791","1440 x 900","1440 x 900","true","1","10","","","","",""
"null","<p style=""font-size: 80px;"">+ 10 points</p>","null","html-keyboard-response","40","355751","0.0-11.0-2.39","5e5beb1ed9d6813cae521b50","ymw0qx","RS","40","F","{""name"":""Chrome"",""chrome"":true,""version"":""106.0"",""blink"":true,""mac"":true,""osname"":""macOS"",""osversion"":""10.15.7"",""a"":true}","9:22:31","1","4","Test_4","70","f","1","896.1000000238419","1440 x 900","1440 x 900","true","1","10","","","","",""
"null","<p style=""font-size: 80px;"">+ 0 points</p>","null","html-keyboard-response","41","358800","0.0-11.0-2.40","5e5beb1ed9d6813cae521b50","ymw0qx","RS","40","F","{""name"":""Chrome"",""chrome"":true,""version"":""106.0"",""blink"":true,""mac"":true,""osname"":""macOS"",""osversion"":""10.15.7"",""a"":true}","9:22:31","1","3","Test_4","70","j","0","1037","1440 x 900","1440 x 900","true","1","0","","","","",""
"null","<p style=""font-size: 80px;"">+ 0 points</p>","null","html-keyboard-response","42","361817","0.0-11.0-2.41","5e5beb1ed9d6813cae521b50","ymw0qx","RS","40","F","{""name"":""Chrome"",""chrome"":true,""version"":""106.0"",""blink"":true,""mac"":true,""osname"":""macOS"",""osversion"":""10.15.7"",""a"":true}","9:22:31","1","3","Test_2","70","j","0","1006.3999999761581","1440 x 900","1440 x 900","true","1","0","","","","",""
"null","<p style=""font-size: 80px;"">+ 0 points</p>","null","html-keyboard-response","43","364720","0.0-11.0-2.42","5e5beb1ed9d6813cae521b50","ymw0qx","RS","40","F","{""name"":""Chrome"",""chrome"":true,""version"":""106.0"",""blink"":true,""mac"":true,""osname"":""macOS"",""osversion"":""10.15.7"",""a"":true}","9:22:31","1","3","Test_4","70","j","0","891.6999999880791","1440 x 900","1440 x 900","true","1","0","","","","",""
"null","<p style=""font-size: 80px;"">+ 10 points</p>","null","html-keyboard-response","44","367349","0.0-11.0-2.43","5e5beb1ed9d6813cae521b50","ymw0qx","RS","40","F","{""name"":""Chrome"",""chrome"":true,""version"":""106.0"",""blink"":true,""mac"":true,""osname"":""macOS"",""osversion"":""10.15.7"",""a"":true}","9:22:31","1","3","Test_1","70","f","1","618.9000000357628","1440 x 900","1440 x 900","true","1","10","","","","",""
"null","<p style=""font-size: 80px;"">+ 10 points</p>","null","html-keyboard-response","45","370221","0.0-11.0-2.44","5e5beb1ed9d6813cae521b50","ymw0qx","RS","40","F","{""name"":""Chrome"",""chrome"":true,""version"":""106.0"",""blink"":true,""mac"":true,""osname"":""macOS"",""osversion"":""10.15.7"",""a"":true}","9:22:31","1","3","Test_3","70","f","1","859","1440 x 900","1440 x 900","true","1","10","","","","",""
"null","<p style=""font-size: 80px;"">+ 10 points</p>","null","html-keyboard-response","46","372999","0.0-11.0-2.45","5e5beb1ed9d6813cae521b50","ymw0qx","RS","40","F","{""name"":""Chrome"",""chrome"":true,""version"":""106.0"",""blink"":true,""mac"":true,""osname"":""macOS"",""osversion"":""10.15.7"",""a"":true}","9:22:31","1","3","Test_2","74","j","1","772","1440 x 900","1440 x 900","true","1","10","","","","",""
"null","<p style=""font-size: 80px;"">+ 10 points</p>","null","html-keyboard-response","47","375704","0.0-11.0-2.46","5e5beb1ed9d6813cae521b50","ymw0qx","RS","40","F","{""name"":""Chrome"",""chrome"":true,""version"":""106.0"",""blink"":true,""mac"":true,""osname"":""macOS"",""osversion"":""10.15.7"",""a"":true}","9:22:31","1","3","Test_3","70","f","1","693.5","1440 x 900","1440 x 900","true","1","10","","","","",""
"null","<p style=""font-size: 80px;"">+ 10 points</p>","null","html-keyboard-response","48","378284","0.0-11.0-2.47","5e5beb1ed9d6813cae521b50","ymw0qx","RS","40","F","{""name"":""Chrome"",""chrome"":true,""version"":""106.0"",""blink"":true,""mac"":true,""osname"":""macOS"",""osversion"":""10.15.7"",""a"":true}","9:22:31","1","3","Test_3","70","f","1","568","1440 x 900","1440 x 900","true","1","10","","","","",""
"null","<p style=""font-size: 80px;"">+ 10 points</p>","null","html-keyboard-response","49","380914","0.0-11.0-2.48","5e5beb1ed9d6813cae521b50","ymw0qx","RS","40","F","{""name"":""Chrome"",""chrome"":true,""version"":""106.0"",""blink"":true,""mac"":true,""osname"":""macOS"",""osversion"":""10.15.7"",""a"":true}","9:22:31","1","3","Test_3","70","f","1","617.8999999761581","1440 x 900","1440 x 900","true","1","10","","","","",""
"null","<p style=""font-size: 80px;"">+ 10 points</p>","null","html-keyboard-response","50","383471","0.0-11.0-2.49","5e5beb1ed9d6813cae521b50","ymw0qx","RS","40","F","{""name"":""Chrome"",""chrome"":true,""version"":""106.0"",""blink"":true,""mac"":true,""osname"":""macOS"",""osversion"":""10.15.7"",""a"":true}","9:22:31","1","3","Test_2","74","j","1","549.1000000238419","1440 x 900","1440 x 900","true","1","10","","","","",""
"null","<p style=""font-size: 80px;"">+ 10 points</p>","null","html-keyboard-response","51","386278","0.0-11.0-2.50","5e5beb1ed9d6813cae521b50","ymw0qx","RS","40","F","{""name"":""Chrome"",""chrome"":true,""version"":""106.0"",""blink"":true,""mac"":true,""osname"":""macOS"",""osversion"":""10.15.7"",""a"":true}","9:22:31","1","3","Test_1","70","f","1","793.3999999761581","1440 x 900","1440 x 900","true","1","10","","","","",""
"null","<p style=""font-size: 80px;"">+ 10 points</p>","null","html-keyboard-response","52","389072","0.0-11.0-2.51","5e5beb1ed9d6813cae521b50","ymw0qx","RS","40","F","{""name"":""Chrome"",""chrome"":true,""version"":""106.0"",""blink"":true,""mac"":true,""osname"":""macOS"",""osversion"":""10.15.7"",""a"":true}","9:22:31","1","3","Test_4","74","j","1","785.3999999761581","1440 x 900","1440 x 900","true","1","10","","","","",""
"null","<p style=""font-size: 80px;"">+ 10 points</p>","null","html-keyboard-response","53","391869","0.0-11.0-2.52","5e5beb1ed9d6813cae521b50","ymw0qx","RS","40","F","{""name"":""Chrome"",""chrome"":true,""version"":""106.0"",""blink"":true,""mac"":true,""osname"":""macOS"",""osversion"":""10.15.7"",""a"":true}","9:22:31","1","3","Test_1","70","f","1","791.8999999761581","1440 x 900","1440 x 900","true","1","10","","","","",""
"null","<p style=""font-size: 80px;"">+ 10 points</p>","null","html-keyboard-response","54","394475","0.0-11.0-2.53","5e5beb1ed9d6813cae521b50","ymw0qx","RS","40","F","{""name"":""Chrome"",""chrome"":true,""version"":""106.0"",""blink"":true,""mac"":true,""osname"":""macOS"",""osversion"":""10.15.7"",""a"":true}","9:22:31","1","3","Test_1","70","f","1","593.5","1440 x 900","1440 x 900","true","1","10","","","","",""
"null","<p style=""font-size: 80px;"">+ 10 points</p>","null","html-keyboard-response","55","397124","0.0-11.0-2.54","5e5beb1ed9d6813cae521b50","ymw0qx","RS","40","F","{""name"":""Chrome"",""chrome"":true,""version"":""106.0"",""blink"":true,""mac"":true,""osname"":""macOS"",""osversion"":""10.15.7"",""a"":true}","9:22:31","1","3","Test_2","74","j","1","642.1000000238419","1440 x 900","1440 x 900","true","1","10","","","","",""
"null","<p style=""font-size: 80px;"">+ 0 points</p>","null","html-keyboard-response","56","399977","0.0-11.0-2.55","5e5beb1ed9d6813cae521b50","ymw0qx","RS","40","F","{""name"":""Chrome"",""chrome"":true,""version"":""106.0"",""blink"":true,""mac"":true,""osname"":""macOS"",""osversion"":""10.15.7"",""a"":true}","9:22:31","1","4","Test_3","70","j","0","839","1440 x 900","1440 x 900","true","1","0","","","","",""
"null","<p style=""font-size: 80px;"">+ 10 points</p>","null","html-keyboard-response","57","403244","0.0-11.0-2.56","5e5beb1ed9d6813cae521b50","ymw0qx","RS","40","F","{""name"":""Chrome"",""chrome"":true,""version"":""106.0"",""blink"":true,""mac"":true,""osname"":""macOS"",""osversion"":""10.15.7"",""a"":true}","9:22:31","1","4","Test_4","70","f","1","1258.7000000476837","1440 x 900","1440 x 900","true","1","10","","","","",""
"null","<p style=""font-size: 80px;"">+ 10 points</p>","null","html-keyboard-response","58","406052","0.0-11.0-2.57","5e5beb1ed9d6813cae521b50","ymw0qx","RS","40","F","{""name"":""Chrome"",""chrome"":true,""version"":""106.0"",""blink"":true,""mac"":true,""osname"":""macOS"",""osversion"":""10.15.7"",""a"":true}","9:22:31","1","4","Test_2","70","f","1","797.5","1440 x 900","1440 x 900","true","1","10","","","","",""
"null","<p style=""font-size: 80px;"">+ 0 points</p>","null","html-keyboard-response","59","409914","0.0-11.0-2.58","5e5beb1ed9d6813cae521b50","ymw0qx","RS","40","F","{""name"":""Chrome"",""chrome"":true,""version"":""106.0"",""blink"":true,""mac"":true,""osname"":""macOS"",""osversion"":""10.15.7"",""a"":true}","9:22:31","1","4","Test_1","70","j","0","1854.9000000357628","1440 x 900","1440 x 900","true","1","0","","","","",""
"null","<p style=""font-size: 80px;"">+ 0 points</p>","null","html-keyboard-response","60","412894","0.0-11.0-2.59","5e5beb1ed9d6813cae521b50","ymw0qx","RS","40","F","{""name"":""Chrome"",""chrome"":true,""version"":""106.0"",""blink"":true,""mac"":true,""osname"":""macOS"",""osversion"":""10.15.7"",""a"":true}","9:22:31","1","4","Test_3","70","j","0","969.0999999642372","1440 x 900","1440 x 900","true","1","0","","","","",""
"null","<p style=""font-size: 80px;"">+ 10 points</p>","null","html-keyboard-response","61","416137","0.0-11.0-2.60","5e5beb1ed9d6813cae521b50","ymw0qx","RS","40","F","{""name"":""Chrome"",""chrome"":true,""version"":""106.0"",""blink"":true,""mac"":true,""osname"":""macOS"",""osversion"":""10.15.7"",""a"":true}","9:22:31","1","4","Test_1","74","j","1","1230.699999988079","1440 x 900","1440 x 900","true","1","10","","","","",""
"null","<p style=""font-size: 80px;"">+ 10 points</p>","null","html-keyboard-response","62","419457","0.0-11.0-2.61","5e5beb1ed9d6813cae521b50","ymw0qx","RS","40","F","{""name"":""Chrome"",""chrome"":true,""version"":""106.0"",""blink"":true,""mac"":true,""osname"":""macOS"",""osversion"":""10.15.7"",""a"":true}","9:22:31","1","4","Test_2","70","f","1","1309.1000000238419","1440 x 900","1440 x 900","true","1","10","","","","",""
"null","<p style=""font-size: 80px;"">+ 10 points</p>","null","html-keyboard-response","63","422177","0.0-11.0-2.62","5e5beb1ed9d6813cae521b50","ymw0qx","RS","40","F","{""name"":""Chrome"",""chrome"":true,""version"":""106.0"",""blink"":true,""mac"":true,""osname"":""macOS"",""osversion"":""10.15.7"",""a"":true}","9:22:31","1","4","Test_2","70","f","1","707.8000000119209","1440 x 900","1440 x 900","true","1","10","","","","",""
"null","<p style=""font-size: 80px;"">+ 10 points</p>","null","html-keyboard-response","64","424719","0.0-11.0-2.63","5e5beb1ed9d6813cae521b50","ymw0qx","RS","40","F","{""name"":""Chrome"",""chrome"":true,""version"":""106.0"",""blink"":true,""mac"":true,""osname"":""macOS"",""osversion"":""10.15.7"",""a"":true}","9:22:31","1","4","Test_4","70","f","1","531.6000000238419","1440 x 900","1440 x 900","true","1","10","","","","",""
"null","<p style=""font-size: 80px;"">+ 10 points</p>","null","html-keyboard-response","65","427664","0.0-11.0-2.64","5e5beb1ed9d6813cae521b50","ymw0qx","RS","40","F","{""name"":""Chrome"",""chrome"":true,""version"":""106.0"",""blink"":true,""mac"":true,""osname"":""macOS"",""osversion"":""10.15.7"",""a"":true}","9:22:31","1","4","Test_1","74","j","1","933.8999999761581","1440 x 900","1440 x 900","true","1","10","","","","",""
"null","<p style=""font-size: 80px;"">+ 10 points</p>","null","html-keyboard-response","66","430684","0.0-11.0-2.65","5e5beb1ed9d6813cae521b50","ymw0qx","RS","40","F","{""name"":""Chrome"",""chrome"":true,""version"":""106.0"",""blink"":true,""mac"":true,""osname"":""macOS"",""osversion"":""10.15.7"",""a"":true}","9:22:31","1","4","Test_4","70","f","1","1013","1440 x 900","1440 x 900","true","1","10","","","","",""
"null","<p style=""font-size: 80px;"">+ 10 points</p>","null","html-keyboard-response","67","433355","0.0-11.0-2.66","5e5beb1ed9d6813cae521b50","ymw0qx","RS","40","F","{""name"":""Chrome"",""chrome"":true,""version"":""106.0"",""blink"":true,""mac"":true,""osname"":""macOS"",""osversion"":""10.15.7"",""a"":true}","9:22:31","1","4","Test_4","70","f","1","659.8000000119209","1440 x 900","1440 x 900","true","1","10","","","","",""
"null","<p style=""font-size: 80px;"">+ 10 points</p>","null","html-keyboard-response","68","436354","0.0-11.0-2.67","5e5beb1ed9d6813cae521b50","ymw0qx","RS","40","F","{""name"":""Chrome"",""chrome"":true,""version"":""106.0"",""blink"":true,""mac"":true,""osname"":""macOS"",""osversion"":""10.15.7"",""a"":true}","9:22:31","1","4","Test_2","70","f","1","985","1440 x 900","1440 x 900","true","1","10","","","","",""
"null","<p style=""font-size: 80px;"">+ 0 points</p>","null","html-keyboard-response","69","439210","0.0-11.0-2.68","5e5beb1ed9d6813cae521b50","ymw0qx","RS","40","F","{""name"":""Chrome"",""chrome"":true,""version"":""106.0"",""blink"":true,""mac"":true,""osname"":""macOS"",""osversion"":""10.15.7"",""a"":true}","9:22:31","1","4","Test_3","70","j","0","846.6999999880791","1440 x 900","1440 x 900","true","1","0","","","","",""
"null","<p style=""font-size: 80px;"">+ 10 points</p>","null","html-keyboard-response","70","442210","0.0-11.0-2.69","5e5beb1ed9d6813cae521b50","ymw0qx","RS","40","F","{""name"":""Chrome"",""chrome"":true,""version"":""106.0"",""blink"":true,""mac"":true,""osname"":""macOS"",""osversion"":""10.15.7"",""a"":true}","9:22:31","1","4","Test_4","70","f","1","988.8000000119209","1440 x 900","1440 x 900","true","1","10","","","","",""
"null","<p style=""font-size: 80px;"">+ 10 points</p>","null","html-keyboard-response","71","445490","0.0-11.0-2.70","5e5beb1ed9d6813cae521b50","ymw0qx","RS","40","F","{""name"":""Chrome"",""chrome"":true,""version"":""106.0"",""blink"":true,""mac"":true,""osname"":""macOS"",""osversion"":""10.15.7"",""a"":true}","9:22:31","1","4","Test_2","70","f","1","1271.8999999761581","1440 x 900","1440 x 900","true","1","10","","","","",""
"null","<p style=""font-size: 80px;"">+ 10 points</p>","null","html-keyboard-response","72","449539","0.0-11.0-2.71","5e5beb1ed9d6813cae521b50","ymw0qx","RS","40","F","{""name"":""Chrome"",""chrome"":true,""version"":""106.0"",""blink"":true,""mac"":true,""osname"":""macOS"",""osversion"":""10.15.7"",""a"":true}","9:22:31","1","4","Test_1","74","j","1","2036.5","1440 x 900","1440 x 900","true","1","10","","","","",""
"null","<p style=""font-size: 80px;"">+ 10 points</p>","null","html-keyboard-response","73","452527","0.0-11.0-2.72","5e5beb1ed9d6813cae521b50","ymw0qx","RS","40","F","{""name"":""Chrome"",""chrome"":true,""version"":""106.0"",""blink"":true,""mac"":true,""osname"":""macOS"",""osversion"":""10.15.7"",""a"":true}","9:22:31","1","4","Test_3","74","j","1","980.2999999523163","1440 x 900","1440 x 900","true","1","10","","","","",""
"null","<p style=""font-size: 80px;"">+ 10 points</p>","null","html-keyboard-response","74","455767","0.0-11.0-2.73","5e5beb1ed9d6813cae521b50","ymw0qx","RS","40","F","{""name"":""Chrome"",""chrome"":true,""version"":""106.0"",""blink"":true,""mac"":true,""osname"":""macOS"",""osversion"":""10.15.7"",""a"":true}","9:22:31","1","4","Test_1","74","j","1","1228.7999999523163","1440 x 900","1440 x 900","true","1","10","","","","",""
"null","<p style=""font-size: 80px;"">+ 10 points</p>","null","html-keyboard-response","75","458625","0.0-11.0-2.74","5e5beb1ed9d6813cae521b50","ymw0qx","RS","40","F","{""name"":""Chrome"",""chrome"":true,""version"":""106.0"",""blink"":true,""mac"":true,""osname"":""macOS"",""osversion"":""10.15.7"",""a"":true}","9:22:31","1","4","Test_3","74","j","1","849.5","1440 x 900","1440 x 900","true","1","10","","","","",""
"null","<p style=""font-size: 80px;"">+ 0 points</p>","null","html-keyboard-response","76","461391","0.0-11.0-2.75","5e5beb1ed9d6813cae521b50","ymw0qx","RS","40","F","{""name"":""Chrome"",""chrome"":true,""version"":""106.0"",""blink"":true,""mac"":true,""osname"":""macOS"",""osversion"":""10.15.7"",""a"":true}","9:22:31","1","3","Test_4","70","j","0","754.1000000238419","1440 x 900","1440 x 900","true","1","0","","","","",""
"null","<p style=""font-size: 80px;"">+ 10 points</p>","null","html-keyboard-response","77","464694","0.0-11.0-2.76","5e5beb1ed9d6813cae521b50","ymw0qx","RS","40","F","{""name"":""Chrome"",""chrome"":true,""version"":""106.0"",""blink"":true,""mac"":true,""osname"":""macOS"",""osversion"":""10.15.7"",""a"":true}","9:22:31","1","3","Test_2","74","j","1","1293.199999988079","1440 x 900","1440 x 900","true","1","10","","","","",""
"null","<p style=""font-size: 80px;"">+ 10 points</p>","null","html-keyboard-response","78","468261","0.0-11.0-2.77","5e5beb1ed9d6813cae521b50","ymw0qx","RS","40","F","{""name"":""Chrome"",""chrome"":true,""version"":""106.0"",""blink"":true,""mac"":true,""osname"":""macOS"",""osversion"":""10.15.7"",""a"":true}","9:22:31","1","3","Test_1","70","f","1","1552.800000011921","1440 x 900","1440 x 900","true","1","10","","","","",""
"null","<p style=""font-size: 80px;"">+ 10 points</p>","null","html-keyboard-response","79","470963","0.0-11.0-2.78","5e5beb1ed9d6813cae521b50","ymw0qx","RS","40","F","{""name"":""Chrome"",""chrome"":true,""version"":""106.0"",""blink"":true,""mac"":true,""osname"":""macOS"",""osversion"":""10.15.7"",""a"":true}","9:22:31","1","3","Test_3","70","f","1","692.1999999880791","1440 x 900","1440 x 900","true","1","10","","","","",""
"null","<p style=""font-size: 80px;"">+ 10 points</p>","null","html-keyboard-response","80","474621","0.0-11.0-2.79","5e5beb1ed9d6813cae521b50","ymw0qx","RS","40","F","{""name"":""Chrome"",""chrome"":true,""version"":""106.0"",""blink"":true,""mac"":true,""osname"":""macOS"",""osversion"":""10.15.7"",""a"":true}","9:22:31","1","3","Test_3","70","f","1","1648.1000000238419","1440 x 900","1440 x 900","true","1","10","","","","",""
"null","<p style=""font-size: 80px;"">+ 10 points</p>","null","html-keyboard-response","81","477333","0.0-11.0-2.80","5e5beb1ed9d6813cae521b50","ymw0qx","RS","40","F","{""name"":""Chrome"",""chrome"":true,""version"":""106.0"",""blink"":true,""mac"":true,""osname"":""macOS"",""osversion"":""10.15.7"",""a"":true}","9:22:31","1","3","Test_4","74","j","1","700.3000000119209","1440 x 900","1440 x 900","true","1","10","","","","",""
"null","<p style=""font-size: 80px;"">+ 10 points</p>","null","html-keyboard-response","82","480319","0.0-11.0-2.81","5e5beb1ed9d6813cae521b50","ymw0qx","RS","40","F","{""name"":""Chrome"",""chrome"":true,""version"":""106.0"",""blink"":true,""mac"":true,""osname"":""macOS"",""osversion"":""10.15.7"",""a"":true}","9:22:31","1","3","Test_2","74","j","1","978","1440 x 900","1440 x 900","true","1","10","","","","",""
"null","<p style=""font-size: 80px;"">+ 10 points</p>","null","html-keyboard-response","83","483033","0.0-11.0-2.82","5e5beb1ed9d6813cae521b50","ymw0qx","RS","40","F","{""name"":""Chrome"",""chrome"":true,""version"":""106.0"",""blink"":true,""mac"":true,""osname"":""macOS"",""osversion"":""10.15.7"",""a"":true}","9:22:31","1","3","Test_2","74","j","1","704","1440 x 900","1440 x 900","true","1","10","","","","",""
"null","<p style=""font-size: 80px;"">+ 10 points</p>","null","html-keyboard-response","84","485703","0.0-11.0-2.83","5e5beb1ed9d6813cae521b50","ymw0qx","RS","40","F","{""name"":""Chrome"",""chrome"":true,""version"":""106.0"",""blink"":true,""mac"":true,""osname"":""macOS"",""osversion"":""10.15.7"",""a"":true}","9:22:31","1","3","Test_4","74","j","1","655.6999999880791","1440 x 900","1440 x 900","true","1","10","","","","",""
"null","<p style=""font-size: 80px;"">+ 10 points</p>","null","html-keyboard-response","85","488817","0.0-11.0-2.84","5e5beb1ed9d6813cae521b50","ymw0qx","RS","40","F","{""name"":""Chrome"",""chrome"":true,""version"":""106.0"",""blink"":true,""mac"":true,""osname"":""macOS"",""osversion"":""10.15.7"",""a"":true}","9:22:31","1","3","Test_3","70","f","1","1099.800000011921","1440 x 900","1440 x 900","true","1","10","","","","",""
"null","<p style=""font-size: 80px;"">+ 10 points</p>","null","html-keyboard-response","86","491427","0.0-11.0-2.85","5e5beb1ed9d6813cae521b50","ymw0qx","RS","40","F","{""name"":""Chrome"",""chrome"":true,""version"":""106.0"",""blink"":true,""mac"":true,""osname"":""macOS"",""osversion"":""10.15.7"",""a"":true}","9:22:31","1","3","Test_2","74","j","1","599.8000000119209","1440 x 900","1440 x 900","true","1","10","","","","",""
"null","<p style=""font-size: 80px;"">+ 10 points</p>","null","html-keyboard-response","87","494440","0.0-11.0-2.86","5e5beb1ed9d6813cae521b50","ymw0qx","RS","40","F","{""name"":""Chrome"",""chrome"":true,""version"":""106.0"",""blink"":true,""mac"":true,""osname"":""macOS"",""osversion"":""10.15.7"",""a"":true}","9:22:31","1","3","Test_1","70","f","1","998.8000000119209","1440 x 900","1440 x 900","true","1","10","","","","",""
"null","<p style=""font-size: 80px;"">+ 10 points</p>","null","html-keyboard-response","88","497182","0.0-11.0-2.87","5e5beb1ed9d6813cae521b50","ymw0qx","RS","40","F","{""name"":""Chrome"",""chrome"":true,""version"":""106.0"",""blink"":true,""mac"":true,""osname"":""macOS"",""osversion"":""10.15.7"",""a"":true}","9:22:31","1","3","Test_1","70","f","1","728.6999999880791","1440 x 900","1440 x 900","true","1","10","","","","",""
"null","<p style=""font-size: 80px;"">+ 10 points</p>","null","html-keyboard-response","89","499928","0.0-11.0-2.88","5e5beb1ed9d6813cae521b50","ymw0qx","RS","40","F","{""name"":""Chrome"",""chrome"":true,""version"":""106.0"",""blink"":true,""mac"":true,""osname"":""macOS"",""osversion"":""10.15.7"",""a"":true}","9:22:31","1","3","Test_3","70","f","1","732.6999999880791","1440 x 900","1440 x 900","true","1","10","","","","",""
"null","<p style=""font-size: 80px;"">+ 10 points</p>","null","html-keyboard-response","90","502755","0.0-11.0-2.89","5e5beb1ed9d6813cae521b50","ymw0qx","RS","40","F","{""name"":""Chrome"",""chrome"":true,""version"":""106.0"",""blink"":true,""mac"":true,""osname"":""macOS"",""osversion"":""10.15.7"",""a"":true}","9:22:31","1","3","Test_4","74","j","1","819.6999999880791","1440 x 900","1440 x 900","true","1","10","","","","",""
"null","<p style=""font-size: 80px;"">+ 10 points</p>","null","html-keyboard-response","91","505487","0.0-11.0-2.90","5e5beb1ed9d6813cae521b50","ymw0qx","RS","40","F","{""name"":""Chrome"",""chrome"":true,""version"":""106.0"",""blink"":true,""mac"":true,""osname"":""macOS"",""osversion"":""10.15.7"",""a"":true}","9:22:31","1","3","Test_1","70","f","1","722.7999999523163","1440 x 900","1440 x 900","true","1","10","","","","",""
"null","<p style=""font-size: 80px;"">+ 0 points</p>","null","html-keyboard-response","92","508265","0.0-11.0-2.91","5e5beb1ed9d6813cae521b50","ymw0qx","RS","40","F","{""name"":""Chrome"",""chrome"":true,""version"":""106.0"",""blink"":true,""mac"":true,""osname"":""macOS"",""osversion"":""10.15.7"",""a"":true}","9:22:31","1","4","Test_1","70","j","0","764.2999999523163","1440 x 900","1440 x 900","true","1","0","","","","",""
"null","<p style=""font-size: 80px;"">+ 10 points</p>","null","html-keyboard-response","93","511409","0.0-11.0-2.92","5e5beb1ed9d6813cae521b50","ymw0qx","RS","40","F","{""name"":""Chrome"",""chrome"":true,""version"":""106.0"",""blink"":true,""mac"":true,""osname"":""macOS"",""osversion"":""10.15.7"",""a"":true}","9:22:31","1","4","Test_2","70","f","1","1133.800000011921","1440 x 900","1440 x 900","true","1","10","","","","",""
"null","<p style=""font-size: 80px;"">+ 10 points</p>","null","html-keyboard-response","94","513913","0.0-11.0-2.93","5e5beb1ed9d6813cae521b50","ymw0qx","RS","40","F","{""name"":""Chrome"",""chrome"":true,""version"":""106.0"",""blink"":true,""mac"":true,""osname"":""macOS"",""osversion"":""10.15.7"",""a"":true}","9:22:31","1","4","Test_2","70","f","1","497.30000001192093","1440 x 900","1440 x 900","true","1","10","","","","",""
"null","<p style=""font-size: 80px;"">+ 10 points</p>","null","html-keyboard-response","95","516995","0.0-11.0-2.94","5e5beb1ed9d6813cae521b50","ymw0qx","RS","40","F","{""name"":""Chrome"",""chrome"":true,""version"":""106.0"",""blink"":true,""mac"":true,""osname"":""macOS"",""osversion"":""10.15.7"",""a"":true}","9:22:31","1","4","Test_4","70","f","1","1073.0999999642372","1440 x 900","1440 x 900","true","1","10","","","","",""
"null","<p style=""font-size: 80px;"">+ 10 points</p>","null","html-keyboard-response","96","519886","0.0-11.0-2.95","5e5beb1ed9d6813cae521b50","ymw0qx","RS","40","F","{""name"":""Chrome"",""chrome"":true,""version"":""106.0"",""blink"":true,""mac"":true,""osname"":""macOS"",""osversion"":""10.15.7"",""a"":true}","9:22:31","1","4","Test_1","74","j","1","881.7999999523163","1440 x 900","1440 x 900","true","1","10","","","","",""
"null","<p style=""font-size: 80px;"">+ 10 points</p>","null","html-keyboard-response","97","522539","0.0-11.0-2.96","5e5beb1ed9d6813cae521b50","ymw0qx","RS","40","F","{""name"":""Chrome"",""chrome"":true,""version"":""106.0"",""blink"":true,""mac"":true,""osname"":""macOS"",""osversion"":""10.15.7"",""a"":true}","9:22:31","1","4","Test_4","70","f","1","646.1000000238419","1440 x 900","1440 x 900","true","1","10","","","","",""
"null","<p style=""font-size: 80px;"">+ 10 points</p>","null","html-keyboard-response","98","525543","0.0-11.0-2.97","5e5beb1ed9d6813cae521b50","ymw0qx","RS","40","F","{""name"":""Chrome"",""chrome"":true,""version"":""106.0"",""blink"":true,""mac"":true,""osname"":""macOS"",""osversion"":""10.15.7"",""a"":true}","9:22:31","1","4","Test_3","74","j","1","996.6999999880791","1440 x 900","1440 x 900","true","1","10","","","","",""
"null","<p style=""font-size: 80px;"">+ 10 points</p>","null","html-keyboard-response","99","528070","0.0-11.0-2.98","5e5beb1ed9d6813cae521b50","ymw0qx","RS","40","F","{""name"":""Chrome"",""chrome"":true,""version"":""106.0"",""blink"":true,""mac"":true,""osname"":""macOS"",""osversion"":""10.15.7"",""a"":true}","9:22:31","1","4","Test_2","70","f","1","517.1999999880791","1440 x 900","1440 x 900","true","1","10","","","","",""
"null","<p style=""font-size: 80px;"">+ 10 points</p>","null","html-keyboard-response","100","530632","0.0-11.0-2.99","5e5beb1ed9d6813cae521b50","ymw0qx","RS","40","F","{""name"":""Chrome"",""chrome"":true,""version"":""106.0"",""blink"":true,""mac"":true,""osname"":""macOS"",""osversion"":""10.15.7"",""a"":true}","9:22:31","1","4","Test_2","70","f","1","550.5","1440 x 900","1440 x 900","true","1","10","","","","",""
"null","<p style=""font-size: 80px;"">+ 10 points</p>","null","html-keyboard-response","101","533466","0.0-11.0-2.100","5e5beb1ed9d6813cae521b50","ymw0qx","RS","40","F","{""name"":""Chrome"",""chrome"":true,""version"":""106.0"",""blink"":true,""mac"":true,""osname"":""macOS"",""osversion"":""10.15.7"",""a"":true}","9:22:31","1","4","Test_1","74","j","1","820.8999999761581","1440 x 900","1440 x 900","true","1","10","","","","",""
"null","<p style=""font-size: 80px;"">+ 10 points</p>","null","html-keyboard-response","102","536331","0.0-11.0-2.101","5e5beb1ed9d6813cae521b50","ymw0qx","RS","40","F","{""name"":""Chrome"",""chrome"":true,""version"":""106.0"",""blink"":true,""mac"":true,""osname"":""macOS"",""osversion"":""10.15.7"",""a"":true}","9:22:31","1","4","Test_1","74","j","1","854.3999999761581","1440 x 900","1440 x 900","true","1","10","","","","",""
"null","<p style=""font-size: 80px;"">+ 10 points</p>","null","html-keyboard-response","103","539231","0.0-11.0-2.102","5e5beb1ed9d6813cae521b50","ymw0qx","RS","40","F","{""name"":""Chrome"",""chrome"":true,""version"":""106.0"",""blink"":true,""mac"":true,""osname"":""macOS"",""osversion"":""10.15.7"",""a"":true}","9:22:31","1","4","Test_3","74","j","1","891.3000000119209","1440 x 900","1440 x 900","true","1","10","","","","",""
"null","<p style=""font-size: 80px;"">+ 0 points</p>","null","html-keyboard-response","104","541850","0.0-11.0-2.103","5e5beb1ed9d6813cae521b50","ymw0qx","RS","40","F","{""name"":""Chrome"",""chrome"":true,""version"":""106.0"",""blink"":true,""mac"":true,""osname"":""macOS"",""osversion"":""10.15.7"",""a"":true}","9:22:31","1","4","Test_4","74","f","0","611","1440 x 900","1440 x 900","true","1","0","","","","",""
"null","<p style=""font-size: 80px;"">+ 10 points</p>","null","html-keyboard-response","105","544598","0.0-11.0-2.104","5e5beb1ed9d6813cae521b50","ymw0qx","RS","40","F","{""name"":""Chrome"",""chrome"":true,""version"":""106.0"",""blink"":true,""mac"":true,""osname"":""macOS"",""osversion"":""10.15.7"",""a"":true}","9:22:31","1","4","Test_1","74","j","1","742.5","1440 x 900","1440 x 900","true","1","10","","","","",""
"null","<p style=""font-size: 80px;"">+ 10 points</p>","null","html-keyboard-response","106","547182","0.0-11.0-2.105","5e5beb1ed9d6813cae521b50","ymw0qx","RS","40","F","{""name"":""Chrome"",""chrome"":true,""version"":""106.0"",""blink"":true,""mac"":true,""osname"":""macOS"",""osversion"":""10.15.7"",""a"":true}","9:22:31","1","4","Test_4","70","f","1","573.3000000119209","1440 x 900","1440 x 900","true","1","10","","","","",""
"null","<p style=""font-size: 80px;"">+ 10 points</p>","null","html-keyboard-response","107","550278","0.0-11.0-2.106","5e5beb1ed9d6813cae521b50","ymw0qx","RS","40","F","{""name"":""Chrome"",""chrome"":true,""version"":""106.0"",""blink"":true,""mac"":true,""osname"":""macOS"",""osversion"":""10.15.7"",""a"":true}","9:22:31","1","4","Test_3","74","j","1","1086.3999999761581","1440 x 900","1440 x 900","true","1","10","","","","",""
"null","<p style=""font-size: 80px;"">+ 10 points</p>","null","html-keyboard-response","108","553698","0.0-11.0-2.107","5e5beb1ed9d6813cae521b50","ymw0qx","RS","40","F","{""name"":""Chrome"",""chrome"":true,""version"":""106.0"",""blink"":true,""mac"":true,""osname"":""macOS"",""osversion"":""10.15.7"",""a"":true}","9:22:31","1","4","Test_4","70","f","1","1408.8999999761581","1440 x 900","1440 x 900","true","1","10","","","","",""
"null","<p style=""font-size: 80px;"">+ 10 points</p>","null","html-keyboard-response","109","557062","0.0-11.0-2.108","5e5beb1ed9d6813cae521b50","ymw0qx","RS","40","F","{""name"":""Chrome"",""chrome"":true,""version"":""106.0"",""blink"":true,""mac"":true,""osname"":""macOS"",""osversion"":""10.15.7"",""a"":true}","9:22:31","1","4","Test_2","70","f","1","1354.6000000238419","1440 x 900","1440 x 900","true","1","10","","","","",""
"null","<p style=""font-size: 80px;"">+ 10 points</p>","null","html-keyboard-response","110","562993","0.0-11.0-2.109","5e5beb1ed9d6813cae521b50","ymw0qx","RS","40","F","{""name"":""Chrome"",""chrome"":true,""version"":""106.0"",""blink"":true,""mac"":true,""osname"":""macOS"",""osversion"":""10.15.7"",""a"":true}","9:22:31","1","4","Test_2","70","f","1","737.1000000238419","1440 x 900","1440 x 900","true","1","10","","","","",""
"null","<p style=""font-size: 80px;"">+ 10 points</p>","null","html-keyboard-response","111","565509","0.0-11.0-2.110","5e5beb1ed9d6813cae521b50","ymw0qx","RS","40","F","{""name"":""Chrome"",""chrome"":true,""version"":""106.0"",""blink"":true,""mac"":true,""osname"":""macOS"",""osversion"":""10.15.7"",""a"":true}","9:22:31","1","4","Test_3","74","j","1","508.30000001192093","1440 x 900","1440 x 900","true","1","10","","","","",""
"null","<p style=""font-size: 80px;"">+ 10 points</p>","null","html-keyboard-response","112","568212","0.0-11.0-2.111","5e5beb1ed9d6813cae521b50","ymw0qx","RS","40","F","{""name"":""Chrome"",""chrome"":true,""version"":""106.0"",""blink"":true,""mac"":true,""osname"":""macOS"",""osversion"":""10.15.7"",""a"":true}","9:22:31","1","4","Test_4","70","f","1","696.6999999880791","1440 x 900","1440 x 900","true","1","10","","","","",""
"null","<p style=""font-size: 80px;"">+ 10 points</p>","null","html-keyboard-response","113","571106","0.0-11.0-2.112","5e5beb1ed9d6813cae521b50","ymw0qx","RS","40","F","{""name"":""Chrome"",""chrome"":true,""version"":""106.0"",""blink"":true,""mac"":true,""osname"":""macOS"",""osversion"":""10.15.7"",""a"":true}","9:22:31","1","4","Test_3","74","j","1","881.9000000357628","1440 x 900","1440 x 900","true","1","10","","","","",""
"null","<p style=""font-size: 80px;"">+ 10 points</p>","null","html-keyboard-response","114","573922","0.0-11.0-2.113","5e5beb1ed9d6813cae521b50","ymw0qx","RS","40","F","{""name"":""Chrome"",""chrome"":true,""version"":""106.0"",""blink"":true,""mac"":true,""osname"":""macOS"",""osversion"":""10.15.7"",""a"":true}","9:22:31","1","4","Test_1","74","j","1","806.9000000357628","1440 x 900","1440 x 900","true","1","10","","","","",""
"null","<p style=""font-size: 80px;"">+ 10 points</p>","null","html-keyboard-response","115","576852","0.0-11.0-2.114","5e5beb1ed9d6813cae521b50","ymw0qx","RS","40","F","{""name"":""Chrome"",""chrome"":true,""version"":""106.0"",""blink"":true,""mac"":true,""osname"":""macOS"",""osversion"":""10.15.7"",""a"":true}","9:22:31","1","4","Test_3","74","j","1","921.3999999761581","1440 x 900","1440 x 900","true","1","10","","","","",""
"null","<p style=""font-size: 80px;"">+ 0 points</p>","null","html-keyboard-response","116","579769","0.0-11.0-2.115","5e5beb1ed9d6813cae521b50","ymw0qx","RS","40","F","{""name"":""Chrome"",""chrome"":true,""version"":""106.0"",""blink"":true,""mac"":true,""osname"":""macOS"",""osversion"":""10.15.7"",""a"":true}","9:22:31","1","3","Test_1","74","f","0","907.8000000119209","1440 x 900","1440 x 900","true","1","0","","","","",""
"null","<p style=""font-size: 80px;"">+ 10 points</p>","null","html-keyboard-response","117","582843","0.0-11.0-2.116","5e5beb1ed9d6813cae521b50","ymw0qx","RS","40","F","{""name"":""Chrome"",""chrome"":true,""version"":""106.0"",""blink"":true,""mac"":true,""osname"":""macOS"",""osversion"":""10.15.7"",""a"":true}","9:22:31","1","3","Test_2","74","j","1","1060.5","1440 x 900","1440 x 900","true","1","10","","","","",""
"null","<p style=""font-size: 80px;"">+ 10 points</p>","null","html-keyboard-response","118","585742","0.0-11.0-2.117","5e5beb1ed9d6813cae521b50","ymw0qx","RS","40","F","{""name"":""Chrome"",""chrome"":true,""version"":""106.0"",""blink"":true,""mac"":true,""osname"":""macOS"",""osversion"":""10.15.7"",""a"":true}","9:22:31","1","3","Test_3","70","f","1","889.6999999880791","1440 x 900","1440 x 900","true","1","10","","","","",""
"null","<p style=""font-size: 80px;"">+ 10 points</p>","null","html-keyboard-response","119","588389","0.0-11.0-2.118","5e5beb1ed9d6813cae521b50","ymw0qx","RS","40","F","{""name"":""Chrome"",""chrome"":true,""version"":""106.0"",""blink"":true,""mac"":true,""osname"":""macOS"",""osversion"":""10.15.7"",""a"":true}","9:22:31","1","3","Test_1","70","f","1","638.6999999880791","1440 x 900","1440 x 900","true","1","10","","","","",""
"null","<p style=""font-size: 80px;"">+ 10 points</p>","null","html-keyboard-response","120","590883","0.0-11.0-2.119","5e5beb1ed9d6813cae521b50","ymw0qx","RS","40","F","{""name"":""Chrome"",""chrome"":true,""version"":""106.0"",""blink"":true,""mac"":true,""osname"":""macOS"",""osversion"":""10.15.7"",""a"":true}","9:22:31","1","3","Test_2","74","j","1","488.39999997615814","1440 x 900","1440 x 900","true","1","10","","","","",""
"null","<p style=""font-size: 80px;"">+ 10 points</p>","null","html-keyboard-response","121","593768","0.0-11.0-2.120","5e5beb1ed9d6813cae521b50","ymw0qx","RS","40","F","{""name"":""Chrome"",""chrome"":true,""version"":""106.0"",""blink"":true,""mac"":true,""osname"":""macOS"",""osversion"":""10.15.7"",""a"":true}","9:22:31","1","3","Test_4","74","j","1","877.6999999880791","1440 x 900","1440 x 900","true","1","10","","","","",""
"null","<p style=""font-size: 80px;"">+ 10 points</p>","null","html-keyboard-response","122","596420","0.0-11.0-2.121","5e5beb1ed9d6813cae521b50","ymw0qx","RS","40","F","{""name"":""Chrome"",""chrome"":true,""version"":""106.0"",""blink"":true,""mac"":true,""osname"":""macOS"",""osversion"":""10.15.7"",""a"":true}","9:22:31","1","3","Test_1","70","f","1","642.3000000119209","1440 x 900","1440 x 900","true","1","10","","","","",""
"null","<p style=""font-size: 80px;"">+ 10 points</p>","null","html-keyboard-response","123","599089","0.0-11.0-2.122","5e5beb1ed9d6813cae521b50","ymw0qx","RS","40","F","{""name"":""Chrome"",""chrome"":true,""version"":""106.0"",""blink"":true,""mac"":true,""osname"":""macOS"",""osversion"":""10.15.7"",""a"":true}","9:22:31","1","3","Test_3","70","f","1","657.6000000238419","1440 x 900","1440 x 900","true","1","10","","","","",""
"null","<p style=""font-size: 80px;"">+ 10 points</p>","null","html-keyboard-response","124","601724","0.0-11.0-2.123","5e5beb1ed9d6813cae521b50","ymw0qx","RS","40","F","{""name"":""Chrome"",""chrome"":true,""version"":""106.0"",""blink"":true,""mac"":true,""osname"":""macOS"",""osversion"":""10.15.7"",""a"":true}","9:22:31","1","3","Test_3","70","f","1","625.1999999880791","1440 x 900","1440 x 900","true","1","10","","","","",""
"null","<p style=""font-size: 80px;"">+ 10 points</p>","null","html-keyboard-response","125","604506","0.0-11.0-2.124","5e5beb1ed9d6813cae521b50","ymw0qx","RS","40","F","{""name"":""Chrome"",""chrome"":true,""version"":""106.0"",""blink"":true,""mac"":true,""osname"":""macOS"",""osversion"":""10.15.7"",""a"":true}","9:22:31","1","3","Test_4","74","j","1","772.1999999880791","1440 x 900","1440 x 900","true","1","10","","","","",""
"null","<p style=""font-size: 80px;"">+ 10 points</p>","null","html-keyboard-response","126","607155","0.0-11.0-2.125","5e5beb1ed9d6813cae521b50","ymw0qx","RS","40","F","{""name"":""Chrome"",""chrome"":true,""version"":""106.0"",""blink"":true,""mac"":true,""osname"":""macOS"",""osversion"":""10.15.7"",""a"":true}","9:22:31","1","3","Test_2","74","j","1","641.1999999880791","1440 x 900","1440 x 900","true","1","10","","","","",""
"null","<p style=""font-size: 80px;"">+ 10 points</p>","null","html-keyboard-response","127","609920","0.0-11.0-2.126","5e5beb1ed9d6813cae521b50","ymw0qx","RS","40","F","{""name"":""Chrome"",""chrome"":true,""version"":""106.0"",""blink"":true,""mac"":true,""osname"":""macOS"",""osversion"":""10.15.7"",""a"":true}","9:22:31","1","3","Test_4","74","j","1","752.5","1440 x 900","1440 x 900","true","1","10","","","","",""
"null","<p style=""font-size: 80px;"">+ 10 points</p>","null","html-keyboard-response","128","612731","0.0-11.0-2.127","5e5beb1ed9d6813cae521b50","ymw0qx","RS","40","F","{""name"":""Chrome"",""chrome"":true,""version"":""106.0"",""blink"":true,""mac"":true,""osname"":""macOS"",""osversion"":""10.15.7"",""a"":true}","9:22:31","1","3","Test_2","74","j","1","802.1000000238419","1440 x 900","1440 x 900","true","1","10","","","","",""
"null","<p style=""font-size: 80px;"">+ 10 points</p>","null","html-keyboard-response","129","616149","0.0-11.0-2.128","5e5beb1ed9d6813cae521b50","ymw0qx","RS","40","F","{""name"":""Chrome"",""chrome"":true,""version"":""106.0"",""blink"":true,""mac"":true,""osname"":""macOS"",""osversion"":""10.15.7"",""a"":true}","9:22:31","1","3","Test_2","74","j","1","1406.699999988079","1440 x 900","1440 x 900","true","1","10","","","","",""
"null","<p style=""font-size: 80px;"">+ 10 points</p>","null","html-keyboard-response","130","618757","0.0-11.0-2.129","5e5beb1ed9d6813cae521b50","ymw0qx","RS","40","F","{""name"":""Chrome"",""chrome"":true,""version"":""106.0"",""blink"":true,""mac"":true,""osname"":""macOS"",""osversion"":""10.15.7"",""a"":true}","9:22:31","1","3","Test_3","70","f","1","600.6000000238419","1440 x 900","1440 x 900","true","1","10","","","","",""
"null","<p style=""font-size: 80px;"">+ 10 points</p>","null","html-keyboard-response","131","621285","0.0-11.0-2.130","5e5beb1ed9d6813cae521b50","ymw0qx","RS","40","F","{""name"":""Chrome"",""chrome"":true,""version"":""106.0"",""blink"":true,""mac"":true,""osname"":""macOS"",""osversion"":""10.15.7"",""a"":true}","9:22:31","1","3","Test_3","70","f","1","519.4000000357628","1440 x 900","1440 x 900","true","1","10","","","","",""
"null","<p style=""font-size: 80px;"">+ 10 points</p>","null","html-keyboard-response","132","624012","0.0-11.0-2.131","5e5beb1ed9d6813cae521b50","ymw0qx","RS","40","F","{""name"":""Chrome"",""chrome"":true,""version"":""106.0"",""blink"":true,""mac"":true,""osname"":""macOS"",""osversion"":""10.15.7"",""a"":true}","9:22:31","1","3","Test_1","70","f","1","713.6999999880791","1440 x 900","1440 x 900","true","1","10","","","","",""
"null","<p style=""font-size: 80px;"">+ 10 points</p>","null","html-keyboard-response","133","626554","0.0-11.0-2.132","5e5beb1ed9d6813cae521b50","ymw0qx","RS","40","F","{""name"":""Chrome"",""chrome"":true,""version"":""106.0"",""blink"":true,""mac"":true,""osname"":""macOS"",""osversion"":""10.15.7"",""a"":true}","9:22:31","1","3","Test_1","70","f","1","535.2000000476837","1440 x 900","1440 x 900","true","1","10","","","","",""
"null","<p style=""font-size: 80px;"">+ 10 points</p>","null","html-keyboard-response","134","629152","0.0-11.0-2.133","5e5beb1ed9d6813cae521b50","ymw0qx","RS","40","F","{""name"":""Chrome"",""chrome"":true,""version"":""106.0"",""blink"":true,""mac"":true,""osname"":""macOS"",""osversion"":""10.15.7"",""a"":true}","9:22:31","1","3","Test_4","74","j","1","589.6000000238419","1440 x 900","1440 x 900","true","1","10","","","","",""
"null","<p style=""font-size: 80px;"">+ 0 points</p>","null","html-keyboard-response","135","631758","0.0-11.0-2.134","5e5beb1ed9d6813cae521b50","ymw0qx","RS","40","F","{""name"":""Chrome"",""chrome"":true,""version"":""106.0"",""blink"":true,""mac"":true,""osname"":""macOS"",""osversion"":""10.15.7"",""a"":true}","9:22:31","1","4","Test_1","70","j","0","593.6000000238419","1440 x 900","1440 x 900","true","1","0","","","","",""
"null","<p style=""font-size: 80px;"">+ 0 points</p>","null","html-keyboard-response","136","634667","0.0-11.0-2.135","5e5beb1ed9d6813cae521b50","ymw0qx","RS","40","F","{""name"":""Chrome"",""chrome"":true,""version"":""106.0"",""blink"":true,""mac"":true,""osname"":""macOS"",""osversion"":""10.15.7"",""a"":true}","9:22:31","1","4","Test_2","74","f","0","900.6999999880791","1440 x 900","1440 x 900","true","1","0","","","","",""
"null","<p style=""font-size: 80px;"">+ 10 points</p>","null","html-keyboard-response","137","637409","0.0-11.0-2.136","5e5beb1ed9d6813cae521b50","ymw0qx","RS","40","F","{""name"":""Chrome"",""chrome"":true,""version"":""106.0"",""blink"":true,""mac"":true,""osname"":""macOS"",""osversion"":""10.15.7"",""a"":true}","9:22:31","1","4","Test_3","74","j","1","734","1440 x 900","1440 x 900","true","1","10","","","","",""
"null","<p style=""font-size: 80px;"">+ 10 points</p>","null","html-keyboard-response","138","640214","0.0-11.0-2.137","5e5beb1ed9d6813cae521b50","ymw0qx","RS","40","F","{""name"":""Chrome"",""chrome"":true,""version"":""106.0"",""blink"":true,""mac"":true,""osname"":""macOS"",""osversion"":""10.15.7"",""a"":true}","9:22:31","1","4","Test_2","70","f","1","798","1440 x 900","1440 x 900","true","1","10","","","","",""
"null","<p style=""font-size: 80px;"">+ 10 points</p>","null","html-keyboard-response","139","642926","0.0-11.0-2.138","5e5beb1ed9d6813cae521b50","ymw0qx","RS","40","F","{""name"":""Chrome"",""chrome"":true,""version"":""106.0"",""blink"":true,""mac"":true,""osname"":""macOS"",""osversion"":""10.15.7"",""a"":true}","9:22:31","1","4","Test_3","74","j","1","701.3999999761581","1440 x 900","1440 x 900","true","1","10","","","","",""
"null","<p style=""font-size: 80px;"">+ 0 points</p>","null","html-keyboard-response","140","646861","0.0-11.0-2.139","5e5beb1ed9d6813cae521b50","ymw0qx","RS","40","F","{""name"":""Chrome"",""chrome"":true,""version"":""106.0"",""blink"":true,""mac"":true,""osname"":""macOS"",""osversion"":""10.15.7"",""a"":true}","9:22:31","1","4","Test_4","74","f","0","1929.5","1440 x 900","1440 x 900","true","1","0","","","","",""
"null","<p style=""font-size: 80px;"">+ 10 points</p>","null","html-keyboard-response","141","649494","0.0-11.0-2.140","5e5beb1ed9d6813cae521b50","ymw0qx","RS","40","F","{""name"":""Chrome"",""chrome"":true,""version"":""106.0"",""blink"":true,""mac"":true,""osname"":""macOS"",""osversion"":""10.15.7"",""a"":true}","9:22:31","1","4","Test_4","70","f","1","622.5","1440 x 900","1440 x 900","true","1","10","","","","",""
"null","<p style=""font-size: 80px;"">+ 10 points</p>","null","html-keyboard-response","142","652092","0.0-11.0-2.141","5e5beb1ed9d6813cae521b50","ymw0qx","RS","40","F","{""name"":""Chrome"",""chrome"":true,""version"":""106.0"",""blink"":true,""mac"":true,""osname"":""macOS"",""osversion"":""10.15.7"",""a"":true}","9:22:31","1","4","Test_4","70","f","1","585.9000000357628","1440 x 900","1440 x 900","true","1","10","","","","",""
"null","<p style=""font-size: 80px;"">+ 10 points</p>","null","html-keyboard-response","143","654707","0.0-11.0-2.142","5e5beb1ed9d6813cae521b50","ymw0qx","RS","40","F","{""name"":""Chrome"",""chrome"":true,""version"":""106.0"",""blink"":true,""mac"":true,""osname"":""macOS"",""osversion"":""10.15.7"",""a"":true}","9:22:31","1","4","Test_1","74","j","1","604.5","1440 x 900","1440 x 900","true","1","10","","","","",""
"null","<p style=""font-size: 80px;"">+ 10 points</p>","null","html-keyboard-response","144","657410","0.0-11.0-2.143","5e5beb1ed9d6813cae521b50","ymw0qx","RS","40","F","{""name"":""Chrome"",""chrome"":true,""version"":""106.0"",""blink"":true,""mac"":true,""osname"":""macOS"",""osversion"":""10.15.7"",""a"":true}","9:22:31","1","4","Test_1","74","j","1","692.1999999880791","1440 x 900","1440 x 900","true","1","10","","","","",""
"null","<p style=""font-size: 80px;"">+ 10 points</p>","null","html-keyboard-response","145","660544","0.0-11.0-2.144","5e5beb1ed9d6813cae521b50","ymw0qx","RS","40","F","{""name"":""Chrome"",""chrome"":true,""version"":""106.0"",""blink"":true,""mac"":true,""osname"":""macOS"",""osversion"":""10.15.7"",""a"":true}","9:22:31","1","4","Test_2","70","f","1","1123","1440 x 900","1440 x 900","true","1","10","","","","",""
"null","<p style=""font-size: 80px;"">+ 10 points</p>","null","html-keyboard-response","146","663741","0.0-11.0-2.145","5e5beb1ed9d6813cae521b50","ymw0qx","RS","40","F","{""name"":""Chrome"",""chrome"":true,""version"":""106.0"",""blink"":true,""mac"":true,""osname"":""macOS"",""osversion"":""10.15.7"",""a"":true}","9:22:31","1","4","Test_4","70","f","1","1184.5","1440 x 900","1440 x 900","true","1","10","","","","",""
"null","<p style=""font-size: 80px;"">+ 10 points</p>","null","html-keyboard-response","147","666707","0.0-11.0-2.146","5e5beb1ed9d6813cae521b50","ymw0qx","RS","40","F","{""name"":""Chrome"",""chrome"":true,""version"":""106.0"",""blink"":true,""mac"":true,""osname"":""macOS"",""osversion"":""10.15.7"",""a"":true}","9:22:31","1","4","Test_1","74","j","1","955.5","1440 x 900","1440 x 900","true","1","10","","","","",""
"null","<p style=""font-size: 80px;"">+ 10 points</p>","null","html-keyboard-response","148","669410","0.0-11.0-2.147","5e5beb1ed9d6813cae521b50","ymw0qx","RS","40","F","{""name"":""Chrome"",""chrome"":true,""version"":""106.0"",""blink"":true,""mac"":true,""osname"":""macOS"",""osversion"":""10.15.7"",""a"":true}","9:22:31","1","4","Test_2","70","f","1","691.9000000357628","1440 x 900","1440 x 900","true","1","10","","","","",""
"null","<p style=""font-size: 80px;"">+ 10 points</p>","null","html-keyboard-response","149","672046","0.0-11.0-2.148","5e5beb1ed9d6813cae521b50","ymw0qx","RS","40","F","{""name"":""Chrome"",""chrome"":true,""version"":""106.0"",""blink"":true,""mac"":true,""osname"":""macOS"",""osversion"":""10.15.7"",""a"":true}","9:22:31","1","4","Test_3","74","j","1","629.5","1440 x 900","1440 x 900","true","1","10","","","","",""
"null","<p style=""font-size: 80px;"">+ 10 points</p>","null","html-keyboard-response","150","674750","0.0-11.0-2.149","5e5beb1ed9d6813cae521b50","ymw0qx","RS","40","F","{""name"":""Chrome"",""chrome"":true,""version"":""106.0"",""blink"":true,""mac"":true,""osname"":""macOS"",""osversion"":""10.15.7"",""a"":true}","9:22:31","1","4","Test_3","74","j","1","695.1999999880791","1440 x 900","1440 x 900","true","1","10","","","","",""
"null","<p style=""font-size: 80px;"">+ 10 points</p>","null","html-keyboard-response","151","677506","0.0-11.0-2.150","5e5beb1ed9d6813cae521b50","ymw0qx","RS","40","F","{""name"":""Chrome"",""chrome"":true,""version"":""106.0"",""blink"":true,""mac"":true,""osname"":""macOS"",""osversion"":""10.15.7"",""a"":true}","9:22:31","1","4","Test_3","74","j","1","743.6999999880791","1440 x 900","1440 x 900","true","1","10","","","","",""
"null","<p style=""font-size: 80px;"">+ 10 points</p>","null","html-keyboard-response","152","681130","0.0-11.0-2.151","5e5beb1ed9d6813cae521b50","ymw0qx","RS","40","F","{""name"":""Chrome"",""chrome"":true,""version"":""106.0"",""blink"":true,""mac"":true,""osname"":""macOS"",""osversion"":""10.15.7"",""a"":true}","9:22:31","1","4","Test_4","70","f","1","1612.3999999761581","1440 x 900","1440 x 900","true","1","10","","","","",""
"null","<p style=""font-size: 80px;"">+ 10 points</p>","null","html-keyboard-response","153","684680","0.0-11.0-2.152","5e5beb1ed9d6813cae521b50","ymw0qx","RS","40","F","{""name"":""Chrome"",""chrome"":true,""version"":""106.0"",""blink"":true,""mac"":true,""osname"":""macOS"",""osversion"":""10.15.7"",""a"":true}","9:22:31","1","4","Test_3","74","j","1","1539","1440 x 900","1440 x 900","true","1","10","","","","",""
"null","<p style=""font-size: 80px;"">+ 10 points</p>","null","html-keyboard-response","154","687271","0.0-11.0-2.153","5e5beb1ed9d6813cae521b50","ymw0qx","RS","40","F","{""name"":""Chrome"",""chrome"":true,""version"":""106.0"",""blink"":true,""mac"":true,""osname"":""macOS"",""osversion"":""10.15.7"",""a"":true}","9:22:31","1","4","Test_2","70","f","1","579.1999999880791","1440 x 900","1440 x 900","true","1","10","","","","",""
"null","<p style=""font-size: 80px;"">+ 10 points</p>","null","html-keyboard-response","155","690087","0.0-11.0-2.154","5e5beb1ed9d6813cae521b50","ymw0qx","RS","40","F","{""name"":""Chrome"",""chrome"":true,""version"":""106.0"",""blink"":true,""mac"":true,""osname"":""macOS"",""osversion"":""10.15.7"",""a"":true}","9:22:31","1","4","Test_4","70","f","1","803.6999999880791","1440 x 900","1440 x 900","true","1","10","","","","",""
"null","<p style=""font-size: 80px;"">+ 10 points</p>","null","html-keyboard-response","156","692732","0.0-11.0-2.155","5e5beb1ed9d6813cae521b50","ymw0qx","RS","40","F","{""name"":""Chrome"",""chrome"":true,""version"":""106.0"",""blink"":true,""mac"":true,""osname"":""macOS"",""osversion"":""10.15.7"",""a"":true}","9:22:31","1","4","Test_1","74","j","1","631.2000000476837","1440 x 900","1440 x 900","true","1","10","","","","",""
"null","<p style=""font-size: 80px;"">+ 10 points</p>","null","html-keyboard-response","157","695498","0.0-11.0-2.156","5e5beb1ed9d6813cae521b50","ymw0qx","RS","40","F","{""name"":""Chrome"",""chrome"":true,""version"":""106.0"",""blink"":true,""mac"":true,""osname"":""macOS"",""osversion"":""10.15.7"",""a"":true}","9:22:31","1","4","Test_2","70","f","1","756.1999999880791","1440 x 900","1440 x 900","true","1","10","","","","",""
"null","<p style=""font-size: 80px;"">+ 10 points</p>","null","html-keyboard-response","158","698568","0.0-11.0-2.157","5e5beb1ed9d6813cae521b50","ymw0qx","RS","40","F","{""name"":""Chrome"",""chrome"":true,""version"":""106.0"",""blink"":true,""mac"":true,""osname"":""macOS"",""osversion"":""10.15.7"",""a"":true}","9:22:31","1","4","Test_1","74","j","1","1058.300000011921","1440 x 900","1440 x 900","true","1","10","","","","",""
"null","<p style=""font-size: 80px;"">+ 0 points</p>","null","html-keyboard-response","159","701426","0.0-11.0-2.158","5e5beb1ed9d6813cae521b50","ymw0qx","RS","40","F","{""name"":""Chrome"",""chrome"":true,""version"":""106.0"",""blink"":true,""mac"":true,""osname"":""macOS"",""osversion"":""10.15.7"",""a"":true}","9:22:31","1","3","Test_3","74","f","0","842.1999999880791","1440 x 900","1440 x 900","true","1","0","","","","",""
"null","<p style=""font-size: 80px;"">+ 10 points</p>","null","html-keyboard-response","160","704439","0.0-11.0-2.159","5e5beb1ed9d6813cae521b50","ymw0qx","RS","40","F","{""name"":""Chrome"",""chrome"":true,""version"":""106.0"",""blink"":true,""mac"":true,""osname"":""macOS"",""osversion"":""10.15.7"",""a"":true}","9:22:31","1","3","Test_1","70","f","1","1002.1999999880791","1440 x 900","1440 x 900","true","1","10","","","","",""
"null","<p style=""font-size: 80px;"">+ 10 points</p>","null","html-keyboard-response","161","707132","0.0-11.0-2.160","5e5beb1ed9d6813cae521b50","ymw0qx","RS","40","F","{""name"":""Chrome"",""chrome"":true,""version"":""106.0"",""blink"":true,""mac"":true,""osname"":""macOS"",""osversion"":""10.15.7"",""a"":true}","9:22:31","1","3","Test_2","74","j","1","686.1000000238419","1440 x 900","1440 x 900","true","1","10","","","","",""
"null","<p style=""font-size: 80px;"">+ 10 points</p>","null","html-keyboard-response","162","710044","0.0-11.0-2.161","5e5beb1ed9d6813cae521b50","ymw0qx","RS","40","F","{""name"":""Chrome"",""chrome"":true,""version"":""106.0"",""blink"":true,""mac"":true,""osname"":""macOS"",""osversion"":""10.15.7"",""a"":true}","9:22:31","1","3","Test_4","74","j","1","901.5999999642372","1440 x 900","1440 x 900","true","1","10","","","","",""
"null","<p style=""font-size: 80px;"">+ 10 points</p>","null","html-keyboard-response","163","712640","0.0-11.0-2.162","5e5beb1ed9d6813cae521b50","ymw0qx","RS","40","F","{""name"":""Chrome"",""chrome"":true,""version"":""106.0"",""blink"":true,""mac"":true,""osname"":""macOS"",""osversion"":""10.15.7"",""a"":true}","9:22:31","1","3","Test_2","74","j","1","587.5","1440 x 900","1440 x 900","true","1","10","","","","",""
"null","<p style=""font-size: 80px;"">+ 10 points</p>","null","html-keyboard-response","164","715595","0.0-11.0-2.163","5e5beb1ed9d6813cae521b50","ymw0qx","RS","40","F","{""name"":""Chrome"",""chrome"":true,""version"":""106.0"",""blink"":true,""mac"":true,""osname"":""macOS"",""osversion"":""10.15.7"",""a"":true}","9:22:31","1","3","Test_1","70","f","1","947.5","1440 x 900","1440 x 900","true","1","10","","","","",""
"null","<p style=""font-size: 80px;"">+ 10 points</p>","null","html-keyboard-response","165","718217","0.0-11.0-2.164","5e5beb1ed9d6813cae521b50","ymw0qx","RS","40","F","{""name"":""Chrome"",""chrome"":true,""version"":""106.0"",""blink"":true,""mac"":true,""osname"":""macOS"",""osversion"":""10.15.7"",""a"":true}","9:22:31","1","3","Test_2","74","j","1","607.8000000119209","1440 x 900","1440 x 900","true","1","10","","","","",""
"null","<p style=""font-size: 80px;"">+ 10 points</p>","null","html-keyboard-response","166","720952","0.0-11.0-2.165","5e5beb1ed9d6813cae521b50","ymw0qx","RS","40","F","{""name"":""Chrome"",""chrome"":true,""version"":""106.0"",""blink"":true,""mac"":true,""osname"":""macOS"",""osversion"":""10.15.7"",""a"":true}","9:22:31","1","3","Test_1","70","f","1","726.3999999761581","1440 x 900","1440 x 900","true","1","10","","","","",""
"null","<p style=""font-size: 80px;"">+ 10 points</p>","null","html-keyboard-response","167","723533","0.0-11.0-2.166","5e5beb1ed9d6813cae521b50","ymw0qx","RS","40","F","{""name"":""Chrome"",""chrome"":true,""version"":""106.0"",""blink"":true,""mac"":true,""osname"":""macOS"",""osversion"":""10.15.7"",""a"":true}","9:22:31","1","3","Test_1","70","f","1","569.5","1440 x 900","1440 x 900","true","1","10","","","","",""
"null","<p style=""font-size: 80px;"">+ 10 points</p>","null","html-keyboard-response","168","726206","0.0-11.0-2.167","5e5beb1ed9d6813cae521b50","ymw0qx","RS","40","F","{""name"":""Chrome"",""chrome"":true,""version"":""106.0"",""blink"":true,""mac"":true,""osname"":""macOS"",""osversion"":""10.15.7"",""a"":true}","9:22:31","1","3","Test_3","70","f","1","660.1999999880791","1440 x 900","1440 x 900","true","1","10","","","","",""
"null","<p style=""font-size: 80px;"">+ 0 points</p>","null","html-keyboard-response","169","728828","0.0-11.0-2.168","5e5beb1ed9d6813cae521b50","ymw0qx","RS","40","F","{""name"":""Chrome"",""chrome"":true,""version"":""106.0"",""blink"":true,""mac"":true,""osname"":""macOS"",""osversion"":""10.15.7"",""a"":true}","9:22:31","1","3","Test_4","70","j","0","613.3000000119209","1440 x 900","1440 x 900","true","1","0","","","","",""
"null","<p style=""font-size: 80px;"">+ 0 points</p>","null","html-keyboard-response","170","731592","0.0-11.0-2.169","5e5beb1ed9d6813cae521b50","ymw0qx","RS","40","F","{""name"":""Chrome"",""chrome"":true,""version"":""106.0"",""blink"":true,""mac"":true,""osname"":""macOS"",""osversion"":""10.15.7"",""a"":true}","9:22:31","1","3","Test_2","70","j","0","753.6999999880791","1440 x 900","1440 x 900","true","1","0","","","","",""
"null","<p style=""font-size: 80px;"">+ 10 points</p>","null","html-keyboard-response","171","734199","0.0-11.0-2.170","5e5beb1ed9d6813cae521b50","ymw0qx","RS","40","F","{""name"":""Chrome"",""chrome"":true,""version"":""106.0"",""blink"":true,""mac"":true,""osname"":""macOS"",""osversion"":""10.15.7"",""a"":true}","9:22:31","1","3","Test_3","70","f","1","598.1999999880791","1440 x 900","1440 x 900","true","1","10","","","","",""
"null","<p style=""font-size: 80px;"">+ 10 points</p>","null","html-keyboard-response","172","737018","0.0-11.0-2.171","5e5beb1ed9d6813cae521b50","ymw0qx","RS","40","F","{""name"":""Chrome"",""chrome"":true,""version"":""106.0"",""blink"":true,""mac"":true,""osname"":""macOS"",""osversion"":""10.15.7"",""a"":true}","9:22:31","1","3","Test_4","74","j","1","812.3999999761581","1440 x 900","1440 x 900","true","1","10","","","","",""
"null","<p style=""font-size: 80px;"">+ 10 points</p>","null","html-keyboard-response","173","739586","0.0-11.0-2.172","5e5beb1ed9d6813cae521b50","ymw0qx","RS","40","F","{""name"":""Chrome"",""chrome"":true,""version"":""106.0"",""blink"":true,""mac"":true,""osname"":""macOS"",""osversion"":""10.15.7"",""a"":true}","9:22:31","1","3","Test_3","70","f","1","557.0999999642372","1440 x 900","1440 x 900","true","1","10","","","","",""
"null","<p style=""font-size: 80px;"">+ 10 points</p>","null","html-keyboard-response","174","742203","0.0-11.0-2.173","5e5beb1ed9d6813cae521b50","ymw0qx","RS","40","F","{""name"":""Chrome"",""chrome"":true,""version"":""106.0"",""blink"":true,""mac"":true,""osname"":""macOS"",""osversion"":""10.15.7"",""a"":true}","9:22:31","1","3","Test_4","74","j","1","604.3999999761581","1440 x 900","1440 x 900","true","1","10","","","","",""
"null","<p style=""font-size: 80px;"">+ 10 points</p>","null","html-keyboard-response","175","744964","0.0-11.0-2.174","5e5beb1ed9d6813cae521b50","ymw0qx","RS","40","F","{""name"":""Chrome"",""chrome"":true,""version"":""106.0"",""blink"":true,""mac"":true,""osname"":""macOS"",""osversion"":""10.15.7"",""a"":true}","9:22:31","1","3","Test_4","74","j","1","749.6000000238419","1440 x 900","1440 x 900","true","1","10","","","","",""
"null","<p style=""font-size: 80px;"">+ 10 points</p>","null","html-keyboard-response","176","747813","0.0-11.0-2.175","5e5beb1ed9d6813cae521b50","ymw0qx","RS","40","F","{""name"":""Chrome"",""chrome"":true,""version"":""106.0"",""blink"":true,""mac"":true,""osname"":""macOS"",""osversion"":""10.15.7"",""a"":true}","9:22:31","1","3","Test_1","70","f","1","835.9000000357628","1440 x 900","1440 x 900","true","1","10","","","","",""
"null","<p style=""font-size: 80px;"">+ 0 points</p>","null","html-keyboard-response","177","750704","0.0-11.0-2.176","5e5beb1ed9d6813cae521b50","ymw0qx","RS","40","F","{""name"":""Chrome"",""chrome"":true,""version"":""106.0"",""blink"":true,""mac"":true,""osname"":""macOS"",""osversion"":""10.15.7"",""a"":true}","9:22:31","1","4","Test_2","74","f","0","877.6000000238419","1440 x 900","1440 x 900","true","1","0","","","","",""
"null","<p style=""font-size: 80px;"">+ 0 points</p>","null","html-keyboard-response","178","753636","0.0-11.0-2.177","5e5beb1ed9d6813cae521b50","ymw0qx","RS","40","F","{""name"":""Chrome"",""chrome"":true,""version"":""106.0"",""blink"":true,""mac"":true,""osname"":""macOS"",""osversion"":""10.15.7"",""a"":true}","9:22:31","1","4","Test_1","70","j","0","918.8999999761581","1440 x 900","1440 x 900","true","1","0","","","","",""
"null","<p style=""font-size: 80px;"">+ 10 points</p>","null","html-keyboard-response","179","757388","0.0-11.0-2.178","5e5beb1ed9d6813cae521b50","ymw0qx","RS","40","F","{""name"":""Chrome"",""chrome"":true,""version"":""106.0"",""blink"":true,""mac"":true,""osname"":""macOS"",""osversion"":""10.15.7"",""a"":true}","9:22:31","1","4","Test_3","74","j","1","1742.8999999761581","1440 x 900","1440 x 900","true","1","10","","","","",""
"null","<p style=""font-size: 80px;"">+ 10 points</p>","null","html-keyboard-response","180","760176","0.0-11.0-2.179","5e5beb1ed9d6813cae521b50","ymw0qx","RS","40","F","{""name"":""Chrome"",""chrome"":true,""version"":""106.0"",""blink"":true,""mac"":true,""osname"":""macOS"",""osversion"":""10.15.7"",""a"":true}","9:22:31","1","4","Test_4","70","f","1","778.6999999880791","1440 x 900","1440 x 900","true","1","10","","","","",""
"null","<p style=""font-size: 80px;"">+ 10 points</p>","null","html-keyboard-response","181","762970","0.0-11.0-2.180","5e5beb1ed9d6813cae521b50","ymw0qx","RS","40","F","{""name"":""Chrome"",""chrome"":true,""version"":""106.0"",""blink"":true,""mac"":true,""osname"":""macOS"",""osversion"":""10.15.7"",""a"":true}","9:22:31","1","4","Test_1","74","j","1","782.8999999761581","1440 x 900","1440 x 900","true","1","10","","","","",""
"null","<p style=""font-size: 80px;"">+ 10 points</p>","null","html-keyboard-response","182","765938","0.0-11.0-2.181","5e5beb1ed9d6813cae521b50","ymw0qx","RS","40","F","{""name"":""Chrome"",""chrome"":true,""version"":""106.0"",""blink"":true,""mac"":true,""osname"":""macOS"",""osversion"":""10.15.7"",""a"":true}","9:22:31","1","4","Test_4","70","f","1","961.2000000476837","1440 x 900","1440 x 900","true","1","10","","","","",""
"null","<p style=""font-size: 80px;"">+ 10 points</p>","null","html-keyboard-response","183","768730","0.0-11.0-2.182","5e5beb1ed9d6813cae521b50","ymw0qx","RS","40","F","{""name"":""Chrome"",""chrome"":true,""version"":""106.0"",""blink"":true,""mac"":true,""osname"":""macOS"",""osversion"":""10.15.7"",""a"":true}","9:22:31","1","4","Test_1","74","j","1","783.0999999642372","1440 x 900","1440 x 900","true","1","10","","","","",""
"null","<p style=""font-size: 80px;"">+ 10 points</p>","null","html-keyboard-response","184","771622","0.0-11.0-2.183","5e5beb1ed9d6813cae521b50","ymw0qx","RS","40","F","{""name"":""Chrome"",""chrome"":true,""version"":""106.0"",""blink"":true,""mac"":true,""osname"":""macOS"",""osversion"":""10.15.7"",""a"":true}","9:22:31","1","4","Test_3","74","j","1","884.1999999880791","1440 x 900","1440 x 900","true","1","10","","","","",""
"null","<p style=""font-size: 80px;"">+ 10 points</p>","null","html-keyboard-response","185","774646","0.0-11.0-2.184","5e5beb1ed9d6813cae521b50","ymw0qx","RS","40","F","{""name"":""Chrome"",""chrome"":true,""version"":""106.0"",""blink"":true,""mac"":true,""osname"":""macOS"",""osversion"":""10.15.7"",""a"":true}","9:22:31","1","4","Test_3","74","j","1","1015.5999999642372","1440 x 900","1440 x 900","true","1","10","","","","",""
"null","<p style=""font-size: 80px;"">+ 10 points</p>","null","html-keyboard-response","186","777648","0.0-11.0-2.185","5e5beb1ed9d6813cae521b50","ymw0qx","RS","40","F","{""name"":""Chrome"",""chrome"":true,""version"":""106.0"",""blink"":true,""mac"":true,""osname"":""macOS"",""osversion"":""10.15.7"",""a"":true}","9:22:31","1","4","Test_2","70","f","1","992.1999999880791","1440 x 900","1440 x 900","true","1","10","","","","",""
"null","<p style=""font-size: 80px;"">+ 10 points</p>","null","html-keyboard-response","187","780529","0.0-11.0-2.186","5e5beb1ed9d6813cae521b50","ymw0qx","RS","40","F","{""name"":""Chrome"",""chrome"":true,""version"":""106.0"",""blink"":true,""mac"":true,""osname"":""macOS"",""osversion"":""10.15.7"",""a"":true}","9:22:31","1","4","Test_2","70","f","1","872.6999999880791","1440 x 900","1440 x 900","true","1","10","","","","",""
"null","<p style=""font-size: 80px;"">+ 10 points</p>","null","html-keyboard-response","188","783340","0.0-11.0-2.187","5e5beb1ed9d6813cae521b50","ymw0qx","RS","40","F","{""name"":""Chrome"",""chrome"":true,""version"":""106.0"",""blink"":true,""mac"":true,""osname"":""macOS"",""osversion"":""10.15.7"",""a"":true}","9:22:31","1","4","Test_1","74","j","1","799.5999999642372","1440 x 900","1440 x 900","true","1","10","","","","",""
"null","<p style=""font-size: 80px;"">+ 10 points</p>","null","html-keyboard-response","189","787114","0.0-11.0-2.188","5e5beb1ed9d6813cae521b50","ymw0qx","RS","40","F","{""name"":""Chrome"",""chrome"":true,""version"":""106.0"",""blink"":true,""mac"":true,""osname"":""macOS"",""osversion"":""10.15.7"",""a"":true}","9:22:31","1","4","Test_4","70","f","1","1760.800000011921","1440 x 900","1440 x 900","true","1","10","","","","",""
"null","<p style=""font-size: 80px;"">+ 10 points</p>","null","html-keyboard-response","190","790058","0.0-11.0-2.189","5e5beb1ed9d6813cae521b50","ymw0qx","RS","40","F","{""name"":""Chrome"",""chrome"":true,""version"":""106.0"",""blink"":true,""mac"":true,""osname"":""macOS"",""osversion"":""10.15.7"",""a"":true}","9:22:31","1","4","Test_3","74","j","1","938.8000000119209","1440 x 900","1440 x 900","true","1","10","","","","",""
