"rt","stimulus","key_press","trial_type","trial_index","time_elapsed","internal_node_id","Prolific_ID","random_ID","initials","age","gender","pc_info","start_time","Phase","Rule","Stimulus","Response","CorrResp","Accuracy","ResponseTime","screen_resolution","window_resolution","focus","relevant","Points","responses","question_order","rev_check","butterfly_check","passed_practice"
"null","<p style=""font-size: 80px;"">+ 0 points</p>","null","html-keyboard-response","1","151498","0.0-7.0-2.0","59107abbfe518b00016bce9f","c0j65l","MFC","63","F","{""name"":""Chrome"",""chrome"":true,""version"":""106.0"",""blink"":true,""windows"":true,""osname"":""Windows"",""osversion"":""10"",""a"":true}","9:10:11","0","1","Practice_4","70","j","0","1836.1000000089407","1920 x 1080","1920 x 1080","true","1","0","","","","",""
"null","<p style=""font-size: 80px;"">+ 10 points</p>","null","html-keyboard-response","2","154653","0.0-7.0-2.1","59107abbfe518b00016bce9f","c0j65l","MFC","63","F","{""name"":""Chrome"",""chrome"":true,""version"":""106.0"",""blink"":true,""windows"":true,""osname"":""Windows"",""osversion"":""10"",""a"":true}","9:10:11","0","1","Practice_2","74","j","1","1141.7000000029802","1920 x 1080","1920 x 1080","true","1","10","","","","",""
"null","<p style=""font-size: 80px;"">+ 10 points</p>","null","html-keyboard-response","3","158695","0.0-7.0-2.2","59107abbfe518b00016bce9f","c0j65l","MFC","63","F","{""name"":""Chrome"",""chrome"":true,""version"":""106.0"",""blink"":true,""windows"":true,""osname"":""Windows"",""osversion"":""10"",""a"":true}","9:10:11","0","1","Practice_1","70","f","1","2015.300000011921","1920 x 1080","1920 x 1080","true","1","10","","","","",""
"null","<p style=""font-size: 80px;"">+ 0 points</p>","null","html-keyboard-response","4","162628","0.0-7.0-2.3","59107abbfe518b00016bce9f","c0j65l","MFC","63","F","{""name"":""Chrome"",""chrome"":true,""version"":""106.0"",""blink"":true,""windows"":true,""osname"":""Windows"",""osversion"":""10"",""a"":true}","9:10:11","0","1","Practice_3","74","f","0","1913.5999999940395","1920 x 1080","1920 x 1080","true","1","0","","","","",""
"null","<p style=""font-size: 80px;"">+ 10 points</p>","null","html-keyboard-response","5","165967","0.0-7.0-2.4","59107abbfe518b00016bce9f","c0j65l","MFC","63","F","{""name"":""Chrome"",""chrome"":true,""version"":""106.0"",""blink"":true,""windows"":true,""osname"":""Windows"",""osversion"":""10"",""a"":true}","9:10:11","0","1","Practice_3","70","f","1","1332.5","1920 x 1080","1920 x 1080","true","1","10","","","","",""
"null","<p style=""font-size: 80px;"">+ 10 points</p>","null","html-keyboard-response","6","169980","0.0-7.0-2.5","59107abbfe518b00016bce9f","c0j65l","MFC","63","F","{""name"":""Chrome"",""chrome"":true,""version"":""106.0"",""blink"":true,""windows"":true,""osname"":""Windows"",""osversion"":""10"",""a"":true}","9:10:11","0","1","Practice_1","70","f","1","1991.4000000059605","1920 x 1080","1920 x 1080","true","1","10","","","","",""
"null","<p style=""font-size: 80px;"">+ 0 points</p>","null","html-keyboard-response","7","174084","0.0-7.0-2.6","59107abbfe518b00016bce9f","c0j65l","MFC","63","F","{""name"":""Chrome"",""chrome"":true,""version"":""106.0"",""blink"":true,""windows"":true,""osname"":""Windows"",""osversion"":""10"",""a"":true}","9:10:11","0","1","Practice_2","70","j","0","2100.0999999940395","1920 x 1080","1920 x 1080","true","1","0","","","","",""
"null","<p style=""font-size: 80px;"">+ 10 points</p>","null","html-keyboard-response","8","177460","0.0-7.0-2.7","59107abbfe518b00016bce9f","c0j65l","MFC","63","F","{""name"":""Chrome"",""chrome"":true,""version"":""106.0"",""blink"":true,""windows"":true,""osname"":""Windows"",""osversion"":""10"",""a"":true}","9:10:11","0","1","Practice_1","70","f","1","1358.0999999940395","1920 x 1080","1920 x 1080","true","1","10","","","","",""
"null","<p style=""font-size: 80px;"">+ 0 points</p>","null","html-keyboard-response","9","180736","0.0-7.0-2.8","59107abbfe518b00016bce9f","c0j65l","MFC","63","F","{""name"":""Chrome"",""chrome"":true,""version"":""106.0"",""blink"":true,""windows"":true,""osname"":""Windows"",""osversion"":""10"",""a"":true}","9:10:11","0","1","Practice_4","70","j","0","1268.5999999940395","1920 x 1080","1920 x 1080","true","1","0","","","","",""
"null","<p style=""font-size: 80px;"">+ 0 points</p>","null","html-keyboard-response","10","184345","0.0-7.0-2.9","59107abbfe518b00016bce9f","c0j65l","MFC","63","F","{""name"":""Chrome"",""chrome"":true,""version"":""106.0"",""blink"":true,""windows"":true,""osname"":""Windows"",""osversion"":""10"",""a"":true}","9:10:11","0","1","Practice_1","74","f","0","1588.1000000089407","1920 x 1080","1920 x 1080","true","1","0","","","","",""
"null","<p style=""font-size: 80px;"">+ 0 points</p>","null","html-keyboard-response","11","187953","0.0-7.0-2.10","59107abbfe518b00016bce9f","c0j65l","MFC","63","F","{""name"":""Chrome"",""chrome"":true,""version"":""106.0"",""blink"":true,""windows"":true,""osname"":""Windows"",""osversion"":""10"",""a"":true}","9:10:11","0","1","Practice_4","70","j","0","1600.2000000029802","1920 x 1080","1920 x 1080","true","1","0","","","","",""
"null","<p style=""font-size: 80px;"">+ 0 points</p>","null","html-keyboard-response","12","191260","0.0-7.0-2.11","59107abbfe518b00016bce9f","c0j65l","MFC","63","F","{""name"":""Chrome"",""chrome"":true,""version"":""106.0"",""blink"":true,""windows"":true,""osname"":""Windows"",""osversion"":""10"",""a"":true}","9:10:11","0","1","Practice_1","74","f","0","1287.3999999910593","1920 x 1080","1920 x 1080","true","1","0","","","","",""
"null","<p style=""font-size: 80px;"">+ 0 points</p>","null","html-keyboard-response","13","194599","0.0-7.0-2.12","59107abbfe518b00016bce9f","c0j65l","MFC","63","F","{""name"":""Chrome"",""chrome"":true,""version"":""106.0"",""blink"":true,""windows"":true,""osname"":""Windows"",""osversion"":""10"",""a"":true}","9:10:11","0","1","Practice_3","74","f","0","1324.2000000029802","1920 x 1080","1920 x 1080","true","1","0","","","","",""
"null","<p style=""font-size: 80px;"">+ 10 points</p>","null","html-keyboard-response","14","198678","0.0-7.0-2.13","59107abbfe518b00016bce9f","c0j65l","MFC","63","F","{""name"":""Chrome"",""chrome"":true,""version"":""106.0"",""blink"":true,""windows"":true,""osname"":""Windows"",""osversion"":""10"",""a"":true}","9:10:11","0","1","Practice_2","74","j","1","2064.6000000089407","1920 x 1080","1920 x 1080","true","1","10","","","","",""
"null","<p style=""font-size: 80px;"">+ 10 points</p>","null","html-keyboard-response","15","202841","0.0-7.0-2.14","59107abbfe518b00016bce9f","c0j65l","MFC","63","F","{""name"":""Chrome"",""chrome"":true,""version"":""106.0"",""blink"":true,""windows"":true,""osname"":""Windows"",""osversion"":""10"",""a"":true}","9:10:11","0","1","Practice_3","70","f","1","2154.9000000059605","1920 x 1080","1920 x 1080","true","1","10","","","","",""
"null","<p style=""font-size: 80px;"">+ 10 points</p>","null","html-keyboard-response","16","206227","0.0-7.0-2.15","59107abbfe518b00016bce9f","c0j65l","MFC","63","F","{""name"":""Chrome"",""chrome"":true,""version"":""106.0"",""blink"":true,""windows"":true,""osname"":""Windows"",""osversion"":""10"",""a"":true}","9:10:11","0","1","Practice_4","74","j","1","1367.2999999970198","1920 x 1080","1920 x 1080","true","1","10","","","","",""
"null","<p style=""font-size: 80px;"">+ 10 points</p>","null","html-keyboard-response","17","211001","0.0-7.0-2.16","59107abbfe518b00016bce9f","c0j65l","MFC","63","F","{""name"":""Chrome"",""chrome"":true,""version"":""106.0"",""blink"":true,""windows"":true,""osname"":""Windows"",""osversion"":""10"",""a"":true}","9:10:11","0","1","Practice_2","74","j","1","2773.1000000089407","1920 x 1080","1920 x 1080","true","1","10","","","","",""
"null","<p style=""font-size: 80px;"">+ 10 points</p>","null","html-keyboard-response","18","215744","0.0-7.0-2.17","59107abbfe518b00016bce9f","c0j65l","MFC","63","F","{""name"":""Chrome"",""chrome"":true,""version"":""106.0"",""blink"":true,""windows"":true,""osname"":""Windows"",""osversion"":""10"",""a"":true}","9:10:11","0","1","Practice_2","74","j","1","2737.7000000029802","1920 x 1080","1920 x 1080","true","1","10","","","","",""
"null","<p style=""font-size: 80px;"">+ 10 points</p>","null","html-keyboard-response","19","219406","0.0-7.0-2.18","59107abbfe518b00016bce9f","c0j65l","MFC","63","F","{""name"":""Chrome"",""chrome"":true,""version"":""106.0"",""blink"":true,""windows"":true,""osname"":""Windows"",""osversion"":""10"",""a"":true}","9:10:11","0","1","Practice_3","70","f","1","1650.6000000089407","1920 x 1080","1920 x 1080","true","1","10","","","","",""
"null","<p style=""font-size: 80px;"">+ 10 points</p>","null","html-keyboard-response","20","222693","0.0-7.0-2.19","59107abbfe518b00016bce9f","c0j65l","MFC","63","F","{""name"":""Chrome"",""chrome"":true,""version"":""106.0"",""blink"":true,""windows"":true,""osname"":""Windows"",""osversion"":""10"",""a"":true}","9:10:11","0","1","Practice_4","74","j","1","1268.3999999910593","1920 x 1080","1920 x 1080","true","1","10","","","","",""
"null","<p style=""font-size: 80px;"">+ 0 points</p>","null","html-keyboard-response","21","225832","0.0-7.0-2.20","59107abbfe518b00016bce9f","c0j65l","MFC","63","F","{""name"":""Chrome"",""chrome"":true,""version"":""106.0"",""blink"":true,""windows"":true,""osname"":""Windows"",""osversion"":""10"",""a"":true}","9:10:11","0","2","Practice_4","74","f","0","1134.0999999940395","1920 x 1080","1920 x 1080","true","1","0","","","","",""
"null","<p style=""font-size: 80px;"">+ 10 points</p>","null","html-keyboard-response","22","230960","0.0-7.0-2.21","59107abbfe518b00016bce9f","c0j65l","MFC","63","F","{""name"":""Chrome"",""chrome"":true,""version"":""106.0"",""blink"":true,""windows"":true,""osname"":""Windows"",""osversion"":""10"",""a"":true}","9:10:11","0","2","Practice_2","70","f","1","3122.4000000059605","1920 x 1080","1920 x 1080","true","1","10","","","","",""
"null","<p style=""font-size: 80px;"">+ 10 points</p>","null","html-keyboard-response","23","233968","0.0-7.0-2.22","59107abbfe518b00016bce9f","c0j65l","MFC","63","F","{""name"":""Chrome"",""chrome"":true,""version"":""106.0"",""blink"":true,""windows"":true,""osname"":""Windows"",""osversion"":""10"",""a"":true}","9:10:11","0","2","Practice_1","74","j","1","1002.6000000089407","1920 x 1080","1920 x 1080","true","1","10","","","","",""
"null","<p style=""font-size: 80px;"">+ 10 points</p>","null","html-keyboard-response","24","237891","0.0-7.0-2.23","59107abbfe518b00016bce9f","c0j65l","MFC","63","F","{""name"":""Chrome"",""chrome"":true,""version"":""106.0"",""blink"":true,""windows"":true,""osname"":""Windows"",""osversion"":""10"",""a"":true}","9:10:11","0","2","Practice_4","70","f","1","1900.2999999970198","1920 x 1080","1920 x 1080","true","1","10","","","","",""
"null","<p style=""font-size: 80px;"">+ 10 points</p>","null","html-keyboard-response","25","241915","0.0-7.0-2.24","59107abbfe518b00016bce9f","c0j65l","MFC","63","F","{""name"":""Chrome"",""chrome"":true,""version"":""106.0"",""blink"":true,""windows"":true,""osname"":""Windows"",""osversion"":""10"",""a"":true}","9:10:11","0","2","Practice_2","70","f","1","2015.4000000059605","1920 x 1080","1920 x 1080","true","1","10","","","","",""
"null","<p style=""font-size: 80px;"">+ 10 points</p>","null","html-keyboard-response","26","247111","0.0-7.0-2.25","59107abbfe518b00016bce9f","c0j65l","MFC","63","F","{""name"":""Chrome"",""chrome"":true,""version"":""106.0"",""blink"":true,""windows"":true,""osname"":""Windows"",""osversion"":""10"",""a"":true}","9:10:11","0","2","Practice_2","70","f","1","3183.8999999910593","1920 x 1080","1920 x 1080","true","1","10","","","","",""
"null","<p style=""font-size: 80px;"">+ 10 points</p>","null","html-keyboard-response","27","251544","0.0-7.0-2.26","59107abbfe518b00016bce9f","c0j65l","MFC","63","F","{""name"":""Chrome"",""chrome"":true,""version"":""106.0"",""blink"":true,""windows"":true,""osname"":""Windows"",""osversion"":""10"",""a"":true}","9:10:11","0","2","Practice_4","70","f","1","2427.7000000029802","1920 x 1080","1920 x 1080","true","1","10","","","","",""
"null","<p style=""font-size: 80px;"">+ 10 points</p>","null","html-keyboard-response","28","255184","0.0-7.0-2.27","59107abbfe518b00016bce9f","c0j65l","MFC","63","F","{""name"":""Chrome"",""chrome"":true,""version"":""106.0"",""blink"":true,""windows"":true,""osname"":""Windows"",""osversion"":""10"",""a"":true}","9:10:11","0","2","Practice_1","74","j","1","1610.2999999970198","1920 x 1080","1920 x 1080","true","1","10","","","","",""
"null","<p style=""font-size: 80px;"">+ 0 points</p>","null","html-keyboard-response","29","259177","0.0-7.0-2.28","59107abbfe518b00016bce9f","c0j65l","MFC","63","F","{""name"":""Chrome"",""chrome"":true,""version"":""106.0"",""blink"":true,""windows"":true,""osname"":""Windows"",""osversion"":""10"",""a"":true}","9:10:11","0","2","Practice_3","70","j","0","1970.9000000059605","1920 x 1080","1920 x 1080","true","1","0","","","","",""
"null","<p style=""font-size: 80px;"">+ 10 points</p>","null","html-keyboard-response","30","263265","0.0-7.0-2.29","59107abbfe518b00016bce9f","c0j65l","MFC","63","F","{""name"":""Chrome"",""chrome"":true,""version"":""106.0"",""blink"":true,""windows"":true,""osname"":""Windows"",""osversion"":""10"",""a"":true}","9:10:11","0","2","Practice_1","74","j","1","2081.9000000059605","1920 x 1080","1920 x 1080","true","1","10","","","","",""
"null","<p style=""font-size: 80px;"">+ 10 points</p>","null","html-keyboard-response","31","266395","0.0-7.0-2.30","59107abbfe518b00016bce9f","c0j65l","MFC","63","F","{""name"":""Chrome"",""chrome"":true,""version"":""106.0"",""blink"":true,""windows"":true,""osname"":""Windows"",""osversion"":""10"",""a"":true}","9:10:11","0","2","Practice_1","74","j","1","1113.2000000029802","1920 x 1080","1920 x 1080","true","1","10","","","","",""
"null","<p style=""font-size: 80px;"">+ 10 points</p>","null","html-keyboard-response","32","270634","0.0-7.0-2.31","59107abbfe518b00016bce9f","c0j65l","MFC","63","F","{""name"":""Chrome"",""chrome"":true,""version"":""106.0"",""blink"":true,""windows"":true,""osname"":""Windows"",""osversion"":""10"",""a"":true}","9:10:11","0","2","Practice_3","74","j","1","2207.5999999940395","1920 x 1080","1920 x 1080","true","1","10","","","","",""
"null","<p style=""font-size: 80px;"">+ 10 points</p>","null","html-keyboard-response","33","274390","0.0-7.0-2.32","59107abbfe518b00016bce9f","c0j65l","MFC","63","F","{""name"":""Chrome"",""chrome"":true,""version"":""106.0"",""blink"":true,""windows"":true,""osname"":""Windows"",""osversion"":""10"",""a"":true}","9:10:11","0","2","Practice_1","74","j","1","1750.4000000059605","1920 x 1080","1920 x 1080","true","1","10","","","","",""
"null","<p style=""font-size: 80px;"">+ 10 points</p>","null","html-keyboard-response","34","279787","0.0-7.0-2.33","59107abbfe518b00016bce9f","c0j65l","MFC","63","F","{""name"":""Chrome"",""chrome"":true,""version"":""106.0"",""blink"":true,""windows"":true,""osname"":""Windows"",""osversion"":""10"",""a"":true}","9:10:11","0","2","Practice_3","74","j","1","3386.8999999910593","1920 x 1080","1920 x 1080","true","1","10","","","","",""
"null","<p style=""font-size: 80px;"">+ 10 points</p>","null","html-keyboard-response","35","283882","0.0-7.0-2.34","59107abbfe518b00016bce9f","c0j65l","MFC","63","F","{""name"":""Chrome"",""chrome"":true,""version"":""106.0"",""blink"":true,""windows"":true,""osname"":""Windows"",""osversion"":""10"",""a"":true}","9:10:11","0","2","Practice_2","70","f","1","2086","1920 x 1080","1920 x 1080","true","1","10","","","","",""
"null","<p style=""font-size: 80px;"">+ 0 points</p>","null","html-keyboard-response","36","288038","0.0-7.0-2.35","59107abbfe518b00016bce9f","c0j65l","MFC","63","F","{""name"":""Chrome"",""chrome"":true,""version"":""106.0"",""blink"":true,""windows"":true,""osname"":""Windows"",""osversion"":""10"",""a"":true}","9:10:11","0","2","Practice_4","74","f","0","2143.7000000029802","1920 x 1080","1920 x 1080","true","1","0","","","","",""
"null","<p style=""font-size: 80px;"">+ 10 points</p>","null","html-keyboard-response","37","291631","0.0-7.0-2.36","59107abbfe518b00016bce9f","c0j65l","MFC","63","F","{""name"":""Chrome"",""chrome"":true,""version"":""106.0"",""blink"":true,""windows"":true,""osname"":""Windows"",""osversion"":""10"",""a"":true}","9:10:11","0","2","Practice_3","74","j","1","1586.5","1920 x 1080","1920 x 1080","true","1","10","","","","",""
"null","<p style=""font-size: 80px;"">+ 10 points</p>","null","html-keyboard-response","38","294522","0.0-7.0-2.37","59107abbfe518b00016bce9f","c0j65l","MFC","63","F","{""name"":""Chrome"",""chrome"":true,""version"":""106.0"",""blink"":true,""windows"":true,""osname"":""Windows"",""osversion"":""10"",""a"":true}","9:10:11","0","2","Practice_4","70","f","1","874.2000000029802","1920 x 1080","1920 x 1080","true","1","10","","","","",""
"null","<p style=""font-size: 80px;"">+ 10 points</p>","null","html-keyboard-response","39","299033","0.0-7.0-2.38","59107abbfe518b00016bce9f","c0j65l","MFC","63","F","{""name"":""Chrome"",""chrome"":true,""version"":""106.0"",""blink"":true,""windows"":true,""osname"":""Windows"",""osversion"":""10"",""a"":true}","9:10:11","0","2","Practice_3","74","j","1","2494.5999999940395","1920 x 1080","1920 x 1080","true","1","10","","","","",""
"null","<p style=""font-size: 80px;"">+ 10 points</p>","null","html-keyboard-response","40","302658","0.0-7.0-2.39","59107abbfe518b00016bce9f","c0j65l","MFC","63","F","{""name"":""Chrome"",""chrome"":true,""version"":""106.0"",""blink"":true,""windows"":true,""osname"":""Windows"",""osversion"":""10"",""a"":true}","9:10:11","0","2","Practice_2","70","f","1","1615.7000000029802","1920 x 1080","1920 x 1080","true","1","10","","","","",""
"17864.79999999702","","","survey-multi-choice","127","320524","0.0-8.0","59107abbfe518b00016bce9f","c0j65l","MFC","63","F","{""name"":""Chrome"",""chrome"":true,""version"":""106.0"",""blink"":true,""windows"":true,""osname"":""Windows"",""osversion"":""10"",""a"":true}","9:10:11","","","","","","","","","","","1","","{""Q0"":""The green one"",""Q1"":""5""}","[0,1]","5","The green one","0"
"null","<p style=""font-size: 80px;"">+ 0 points</p>","null","html-keyboard-response","1","363808","0.0-9.0-1.0-2.0","59107abbfe518b00016bce9f","c0j65l","MFC","63","F","{""name"":""Chrome"",""chrome"":true,""version"":""106.0"",""blink"":true,""windows"":true,""osname"":""Windows"",""osversion"":""10"",""a"":true}","9:10:11","0","1","Practice_4","70","j","0","2911.4000000059605","1920 x 1080","1920 x 1080","true","1","0","","","","",""
"null","<p style=""font-size: 80px;"">+ 0 points</p>","null","html-keyboard-response","2","368435","0.0-9.0-1.0-2.1","59107abbfe518b00016bce9f","c0j65l","MFC","63","F","{""name"":""Chrome"",""chrome"":true,""version"":""106.0"",""blink"":true,""windows"":true,""osname"":""Windows"",""osversion"":""10"",""a"":true}","9:10:11","0","1","Practice_2","70","j","0","2608.6000000089407","1920 x 1080","1920 x 1080","true","1","0","","","","",""
"null","<p style=""font-size: 80px;"">+ 0 points</p>","null","html-keyboard-response","3","372677","0.0-9.0-1.0-2.2","59107abbfe518b00016bce9f","c0j65l","MFC","63","F","{""name"":""Chrome"",""chrome"":true,""version"":""106.0"",""blink"":true,""windows"":true,""osname"":""Windows"",""osversion"":""10"",""a"":true}","9:10:11","0","1","Practice_1","74","f","0","2221.2000000029802","1920 x 1080","1920 x 1080","true","1","0","","","","",""
"null","<p style=""font-size: 80px;"">+ 10 points</p>","null","html-keyboard-response","4","376564","0.0-9.0-1.0-2.3","59107abbfe518b00016bce9f","c0j65l","MFC","63","F","{""name"":""Chrome"",""chrome"":true,""version"":""106.0"",""blink"":true,""windows"":true,""osname"":""Windows"",""osversion"":""10"",""a"":true}","9:10:11","0","1","Practice_3","70","f","1","1875.7000000029802","1920 x 1080","1920 x 1080","true","1","10","","","","",""
"null","<p style=""font-size: 80px;"">+ 0 points</p>","null","html-keyboard-response","5","379857","0.0-9.0-1.0-2.4","59107abbfe518b00016bce9f","c0j65l","MFC","63","F","{""name"":""Chrome"",""chrome"":true,""version"":""106.0"",""blink"":true,""windows"":true,""osname"":""Windows"",""osversion"":""10"",""a"":true}","9:10:11","0","1","Practice_3","74","f","0","1276.800000011921","1920 x 1080","1920 x 1080","true","1","0","","","","",""
"null","<p style=""font-size: 80px;"">+ 0 points</p>","null","html-keyboard-response","6","384066","0.0-9.0-1.0-2.5","59107abbfe518b00016bce9f","c0j65l","MFC","63","F","{""name"":""Chrome"",""chrome"":true,""version"":""106.0"",""blink"":true,""windows"":true,""osname"":""Windows"",""osversion"":""10"",""a"":true}","9:10:11","0","1","Practice_1","74","f","0","2200.0999999940395","1920 x 1080","1920 x 1080","true","1","0","","","","",""
"null","<p style=""font-size: 80px;"">+ 0 points</p>","null","html-keyboard-response","7","387944","0.0-9.0-1.0-2.6","59107abbfe518b00016bce9f","c0j65l","MFC","63","F","{""name"":""Chrome"",""chrome"":true,""version"":""106.0"",""blink"":true,""windows"":true,""osname"":""Windows"",""osversion"":""10"",""a"":true}","9:10:11","0","1","Practice_2","70","j","0","1862.3999999910593","1920 x 1080","1920 x 1080","true","1","0","","","","",""
"null","<p style=""font-size: 80px;"">+ 10 points</p>","null","html-keyboard-response","8","393124","0.0-9.0-1.0-2.7","59107abbfe518b00016bce9f","c0j65l","MFC","63","F","{""name"":""Chrome"",""chrome"":true,""version"":""106.0"",""blink"":true,""windows"":true,""osname"":""Windows"",""osversion"":""10"",""a"":true}","9:10:11","0","1","Practice_1","70","f","1","3160.2000000029802","1920 x 1080","1920 x 1080","true","1","10","","","","",""
"null","<p style=""font-size: 80px;"">+ 10 points</p>","null","html-keyboard-response","9","396279","0.0-9.0-1.0-2.8","59107abbfe518b00016bce9f","c0j65l","MFC","63","F","{""name"":""Chrome"",""chrome"":true,""version"":""106.0"",""blink"":true,""windows"":true,""osname"":""Windows"",""osversion"":""10"",""a"":true}","9:10:11","0","1","Practice_4","74","j","1","1139.5999999940395","1920 x 1080","1920 x 1080","true","1","10","","","","",""
"null","<p style=""font-size: 80px;"">+ 10 points</p>","null","html-keyboard-response","10","400204","0.0-9.0-1.0-2.9","59107abbfe518b00016bce9f","c0j65l","MFC","63","F","{""name"":""Chrome"",""chrome"":true,""version"":""106.0"",""blink"":true,""windows"":true,""osname"":""Windows"",""osversion"":""10"",""a"":true}","9:10:11","0","1","Practice_1","70","f","1","1912.9000000059605","1920 x 1080","1920 x 1080","true","1","10","","","","",""
"null","<p style=""font-size: 80px;"">+ 10 points</p>","null","html-keyboard-response","11","403249","0.0-9.0-1.0-2.10","59107abbfe518b00016bce9f","c0j65l","MFC","63","F","{""name"":""Chrome"",""chrome"":true,""version"":""106.0"",""blink"":true,""windows"":true,""osname"":""Windows"",""osversion"":""10"",""a"":true}","9:10:11","0","1","Practice_4","74","j","1","1027.6000000089407","1920 x 1080","1920 x 1080","true","1","10","","","","",""
"null","<p style=""font-size: 80px;"">+ 10 points</p>","null","html-keyboard-response","12","406358","0.0-9.0-1.0-2.11","59107abbfe518b00016bce9f","c0j65l","MFC","63","F","{""name"":""Chrome"",""chrome"":true,""version"":""106.0"",""blink"":true,""windows"":true,""osname"":""Windows"",""osversion"":""10"",""a"":true}","9:10:11","0","1","Practice_1","70","f","1","1094.2999999970198","1920 x 1080","1920 x 1080","true","1","10","","","","",""
"null","<p style=""font-size: 80px;"">+ 10 points</p>","null","html-keyboard-response","13","410299","0.0-9.0-1.0-2.12","59107abbfe518b00016bce9f","c0j65l","MFC","63","F","{""name"":""Chrome"",""chrome"":true,""version"":""106.0"",""blink"":true,""windows"":true,""osname"":""Windows"",""osversion"":""10"",""a"":true}","9:10:11","0","1","Practice_3","70","f","1","1930.1000000089407","1920 x 1080","1920 x 1080","true","1","10","","","","",""
"null","<p style=""font-size: 80px;"">+ 10 points</p>","null","html-keyboard-response","14","414141","0.0-9.0-1.0-2.13","59107abbfe518b00016bce9f","c0j65l","MFC","63","F","{""name"":""Chrome"",""chrome"":true,""version"":""106.0"",""blink"":true,""windows"":true,""osname"":""Windows"",""osversion"":""10"",""a"":true}","9:10:11","0","1","Practice_2","74","j","1","1828.7999999970198","1920 x 1080","1920 x 1080","true","1","10","","","","",""
"null","<p style=""font-size: 80px;"">+ 10 points</p>","null","html-keyboard-response","15","417866","0.0-9.0-1.0-2.14","59107abbfe518b00016bce9f","c0j65l","MFC","63","F","{""name"":""Chrome"",""chrome"":true,""version"":""106.0"",""blink"":true,""windows"":true,""osname"":""Windows"",""osversion"":""10"",""a"":true}","9:10:11","0","1","Practice_3","70","f","1","1714.7999999970198","1920 x 1080","1920 x 1080","true","1","10","","","","",""
"null","<p style=""font-size: 80px;"">+ 10 points</p>","null","html-keyboard-response","16","420911","0.0-9.0-1.0-2.15","59107abbfe518b00016bce9f","c0j65l","MFC","63","F","{""name"":""Chrome"",""chrome"":true,""version"":""106.0"",""blink"":true,""windows"":true,""osname"":""Windows"",""osversion"":""10"",""a"":true}","9:10:11","0","1","Practice_4","74","j","1","1037.9000000059605","1920 x 1080","1920 x 1080","true","1","10","","","","",""
"null","<p style=""font-size: 80px;"">+ 10 points</p>","null","html-keyboard-response","17","424567","0.0-9.0-1.0-2.16","59107abbfe518b00016bce9f","c0j65l","MFC","63","F","{""name"":""Chrome"",""chrome"":true,""version"":""106.0"",""blink"":true,""windows"":true,""osname"":""Windows"",""osversion"":""10"",""a"":true}","9:10:11","0","1","Practice_2","74","j","1","1640.5","1920 x 1080","1920 x 1080","true","1","10","","","","",""
"null","<p style=""font-size: 80px;"">+ 10 points</p>","null","html-keyboard-response","18","427673","0.0-9.0-1.0-2.17","59107abbfe518b00016bce9f","c0j65l","MFC","63","F","{""name"":""Chrome"",""chrome"":true,""version"":""106.0"",""blink"":true,""windows"":true,""osname"":""Windows"",""osversion"":""10"",""a"":true}","9:10:11","0","1","Practice_2","74","j","1","1089.2999999970198","1920 x 1080","1920 x 1080","true","1","10","","","","",""
"null","<p style=""font-size: 80px;"">+ 10 points</p>","null","html-keyboard-response","19","431267","0.0-9.0-1.0-2.18","59107abbfe518b00016bce9f","c0j65l","MFC","63","F","{""name"":""Chrome"",""chrome"":true,""version"":""106.0"",""blink"":true,""windows"":true,""osname"":""Windows"",""osversion"":""10"",""a"":true}","9:10:11","0","1","Practice_3","70","f","1","1574.0999999940395","1920 x 1080","1920 x 1080","true","1","10","","","","",""
"null","<p style=""font-size: 80px;"">+ 10 points</p>","null","html-keyboard-response","20","434090","0.0-9.0-1.0-2.19","59107abbfe518b00016bce9f","c0j65l","MFC","63","F","{""name"":""Chrome"",""chrome"":true,""version"":""106.0"",""blink"":true,""windows"":true,""osname"":""Windows"",""osversion"":""10"",""a"":true}","9:10:11","0","1","Practice_4","74","j","1","804.7999999970198","1920 x 1080","1920 x 1080","true","1","10","","","","",""
"null","<p style=""font-size: 80px;"">+ 0 points</p>","null","html-keyboard-response","21","437034","0.0-9.0-1.0-2.20","59107abbfe518b00016bce9f","c0j65l","MFC","63","F","{""name"":""Chrome"",""chrome"":true,""version"":""106.0"",""blink"":true,""windows"":true,""osname"":""Windows"",""osversion"":""10"",""a"":true}","9:10:11","0","2","Practice_4","74","f","0","934.7999999970198","1920 x 1080","1920 x 1080","true","1","0","","","","",""
"null","<p style=""font-size: 80px;"">+ 10 points</p>","null","html-keyboard-response","22","442162","0.0-9.0-1.0-2.21","59107abbfe518b00016bce9f","c0j65l","MFC","63","F","{""name"":""Chrome"",""chrome"":true,""version"":""106.0"",""blink"":true,""windows"":true,""osname"":""Windows"",""osversion"":""10"",""a"":true}","9:10:11","0","2","Practice_2","70","f","1","3109.9000000059605","1920 x 1080","1920 x 1080","true","1","10","","","","",""
"null","<p style=""font-size: 80px;"">+ 10 points</p>","null","html-keyboard-response","23","445117","0.0-9.0-1.0-2.22","59107abbfe518b00016bce9f","c0j65l","MFC","63","F","{""name"":""Chrome"",""chrome"":true,""version"":""106.0"",""blink"":true,""windows"":true,""osname"":""Windows"",""osversion"":""10"",""a"":true}","9:10:11","0","2","Practice_1","74","j","1","948.9000000059605","1920 x 1080","1920 x 1080","true","1","10","","","","",""
"null","<p style=""font-size: 80px;"">+ 10 points</p>","null","html-keyboard-response","24","448125","0.0-9.0-1.0-2.23","59107abbfe518b00016bce9f","c0j65l","MFC","63","F","{""name"":""Chrome"",""chrome"":true,""version"":""106.0"",""blink"":true,""windows"":true,""osname"":""Windows"",""osversion"":""10"",""a"":true}","9:10:11","0","2","Practice_4","70","f","1","994.9000000059605","1920 x 1080","1920 x 1080","true","1","10","","","","",""
"null","<p style=""font-size: 80px;"">+ 10 points</p>","null","html-keyboard-response","25","453022","0.0-9.0-1.0-2.24","59107abbfe518b00016bce9f","c0j65l","MFC","63","F","{""name"":""Chrome"",""chrome"":true,""version"":""106.0"",""blink"":true,""windows"":true,""osname"":""Windows"",""osversion"":""10"",""a"":true}","9:10:11","0","2","Practice_2","70","f","1","2882.699999988079","1920 x 1080","1920 x 1080","true","1","10","","","","",""
"null","<p style=""font-size: 80px;"">+ 0 points</p>","null","html-keyboard-response","26","456045","0.0-9.0-1.0-2.25","59107abbfe518b00016bce9f","c0j65l","MFC","63","F","{""name"":""Chrome"",""chrome"":true,""version"":""106.0"",""blink"":true,""windows"":true,""osname"":""Windows"",""osversion"":""10"",""a"":true}","9:10:11","0","2","Practice_2","74","f","0","1017.8999999910593","1920 x 1080","1920 x 1080","true","1","0","","","","",""
"null","<p style=""font-size: 80px;"">+ 10 points</p>","null","html-keyboard-response","27","459350","0.0-9.0-1.0-2.26","59107abbfe518b00016bce9f","c0j65l","MFC","63","F","{""name"":""Chrome"",""chrome"":true,""version"":""106.0"",""blink"":true,""windows"":true,""osname"":""Windows"",""osversion"":""10"",""a"":true}","9:10:11","0","2","Practice_4","70","f","1","1300","1920 x 1080","1920 x 1080","true","1","10","","","","",""
"null","<p style=""font-size: 80px;"">+ 10 points</p>","null","html-keyboard-response","28","462891","0.0-9.0-1.0-2.27","59107abbfe518b00016bce9f","c0j65l","MFC","63","F","{""name"":""Chrome"",""chrome"":true,""version"":""106.0"",""blink"":true,""windows"":true,""osname"":""Windows"",""osversion"":""10"",""a"":true}","9:10:11","0","2","Practice_1","74","j","1","1521.8999999910593","1920 x 1080","1920 x 1080","true","1","10","","","","",""
"null","<p style=""font-size: 80px;"">+ 10 points</p>","null","html-keyboard-response","29","466422","0.0-9.0-1.0-2.28","59107abbfe518b00016bce9f","c0j65l","MFC","63","F","{""name"":""Chrome"",""chrome"":true,""version"":""106.0"",""blink"":true,""windows"":true,""osname"":""Windows"",""osversion"":""10"",""a"":true}","9:10:11","0","2","Practice_3","74","j","1","1525.7999999970198","1920 x 1080","1920 x 1080","true","1","10","","","","",""
"null","<p style=""font-size: 80px;"">+ 10 points</p>","null","html-keyboard-response","30","470463","0.0-9.0-1.0-2.29","59107abbfe518b00016bce9f","c0j65l","MFC","63","F","{""name"":""Chrome"",""chrome"":true,""version"":""106.0"",""blink"":true,""windows"":true,""osname"":""Windows"",""osversion"":""10"",""a"":true}","9:10:11","0","2","Practice_1","74","j","1","2034.7000000029802","1920 x 1080","1920 x 1080","true","1","10","","","","",""
"null","<p style=""font-size: 80px;"">+ 10 points</p>","null","html-keyboard-response","31","473454","0.0-9.0-1.0-2.30","59107abbfe518b00016bce9f","c0j65l","MFC","63","F","{""name"":""Chrome"",""chrome"":true,""version"":""106.0"",""blink"":true,""windows"":true,""osname"":""Windows"",""osversion"":""10"",""a"":true}","9:10:11","0","2","Practice_1","74","j","1","985.9000000059605","1920 x 1080","1920 x 1080","true","1","10","","","","",""
"null","<p style=""font-size: 80px;"">+ 0 points</p>","null","html-keyboard-response","32","477681","0.0-9.0-1.0-2.31","59107abbfe518b00016bce9f","c0j65l","MFC","63","F","{""name"":""Chrome"",""chrome"":true,""version"":""106.0"",""blink"":true,""windows"":true,""osname"":""Windows"",""osversion"":""10"",""a"":true}","9:10:11","0","2","Practice_3","70","j","0","2217.3999999910593","1920 x 1080","1920 x 1080","true","1","0","","","","",""
"null","<p style=""font-size: 80px;"">+ 10 points</p>","null","html-keyboard-response","33","480889","0.0-9.0-1.0-2.32","59107abbfe518b00016bce9f","c0j65l","MFC","63","F","{""name"":""Chrome"",""chrome"":true,""version"":""106.0"",""blink"":true,""windows"":true,""osname"":""Windows"",""osversion"":""10"",""a"":true}","9:10:11","0","2","Practice_1","74","j","1","1199.6000000089407","1920 x 1080","1920 x 1080","true","1","10","","","","",""
"null","<p style=""font-size: 80px;"">+ 10 points</p>","null","html-keyboard-response","34","485987","0.0-9.0-1.0-2.33","59107abbfe518b00016bce9f","c0j65l","MFC","63","F","{""name"":""Chrome"",""chrome"":true,""version"":""106.0"",""blink"":true,""windows"":true,""osname"":""Windows"",""osversion"":""10"",""a"":true}","9:10:11","0","2","Practice_3","74","j","1","3080.2000000029802","1920 x 1080","1920 x 1080","true","1","10","","","","",""
"null","<p style=""font-size: 80px;"">+ 0 points</p>","null","html-keyboard-response","35","490297","0.0-9.0-1.0-2.34","59107abbfe518b00016bce9f","c0j65l","MFC","63","F","{""name"":""Chrome"",""chrome"":true,""version"":""106.0"",""blink"":true,""windows"":true,""osname"":""Windows"",""osversion"":""10"",""a"":true}","9:10:11","0","2","Practice_2","74","f","0","2294.2999999970198","1920 x 1080","1920 x 1080","true","1","0","","","","",""
"null","<p style=""font-size: 80px;"">+ 10 points</p>","null","html-keyboard-response","36","494052","0.0-9.0-1.0-2.35","59107abbfe518b00016bce9f","c0j65l","MFC","63","F","{""name"":""Chrome"",""chrome"":true,""version"":""106.0"",""blink"":true,""windows"":true,""osname"":""Windows"",""osversion"":""10"",""a"":true}","9:10:11","0","2","Practice_4","70","f","1","1735.2999999970198","1920 x 1080","1920 x 1080","true","1","10","","","","",""
"null","<p style=""font-size: 80px;"">+ 10 points</p>","null","html-keyboard-response","37","499792","0.0-9.0-1.0-2.36","59107abbfe518b00016bce9f","c0j65l","MFC","63","F","{""name"":""Chrome"",""chrome"":true,""version"":""106.0"",""blink"":true,""windows"":true,""osname"":""Windows"",""osversion"":""10"",""a"":true}","9:10:11","0","2","Practice_3","74","j","1","3731.9000000059605","1920 x 1080","1920 x 1080","true","1","10","","","","",""
"null","<p style=""font-size: 80px;"">+ 10 points</p>","null","html-keyboard-response","38","503299","0.0-9.0-1.0-2.37","59107abbfe518b00016bce9f","c0j65l","MFC","63","F","{""name"":""Chrome"",""chrome"":true,""version"":""106.0"",""blink"":true,""windows"":true,""osname"":""Windows"",""osversion"":""10"",""a"":true}","9:10:11","0","2","Practice_4","70","f","1","1489.4000000059605","1920 x 1080","1920 x 1080","true","1","10","","","","",""
"null","<p style=""font-size: 80px;"">+ 10 points</p>","null","html-keyboard-response","39","507933","0.0-9.0-1.0-2.38","59107abbfe518b00016bce9f","c0j65l","MFC","63","F","{""name"":""Chrome"",""chrome"":true,""version"":""106.0"",""blink"":true,""windows"":true,""osname"":""Windows"",""osversion"":""10"",""a"":true}","9:10:11","0","2","Practice_3","74","j","1","2628.7999999970198","1920 x 1080","1920 x 1080","true","1","10","","","","",""
"null","<p style=""font-size: 80px;"">+ 10 points</p>","null","html-keyboard-response","40","511442","0.0-9.0-1.0-2.39","59107abbfe518b00016bce9f","c0j65l","MFC","63","F","{""name"":""Chrome"",""chrome"":true,""version"":""106.0"",""blink"":true,""windows"":true,""osname"":""Windows"",""osversion"":""10"",""a"":true}","9:10:11","0","2","Practice_2","70","f","1","1491.4000000059605","1920 x 1080","1920 x 1080","true","1","10","","","","",""
"19865.20000000298","","","survey-multi-choice","249","531308","0.0-9.0-2.0","59107abbfe518b00016bce9f","c0j65l","MFC","63","F","{""name"":""Chrome"",""chrome"":true,""version"":""106.0"",""blink"":true,""windows"":true,""osname"":""Windows"",""osversion"":""10"",""a"":true}","9:10:11","","","","","","","","","","","1","","{""Q0"":""The red one"",""Q1"":""1""}","[0,1]","1","The red one","2"
"null","<p style=""font-size: 80px;"">+ 10 points</p>","null","html-keyboard-response","1","558066","0.0-11.0-2.0","59107abbfe518b00016bce9f","c0j65l","MFC","63","F","{""name"":""Chrome"",""chrome"":true,""version"":""106.0"",""blink"":true,""windows"":true,""osname"":""Windows"",""osversion"":""10"",""a"":true}","9:10:11","1","3","Test_3","70","f","1","1499.800000011921","1920 x 1080","1920 x 1080","true","1","10","","","","",""
"null","<p style=""font-size: 80px;"">+ 10 points</p>","null","html-keyboard-response","2","562117","0.0-11.0-2.1","59107abbfe518b00016bce9f","c0j65l","MFC","63","F","{""name"":""Chrome"",""chrome"":true,""version"":""106.0"",""blink"":true,""windows"":true,""osname"":""Windows"",""osversion"":""10"",""a"":true}","9:10:11","1","3","Test_1","70","f","1","2046.300000011921","1920 x 1080","1920 x 1080","true","1","10","","","","",""
"null","<p style=""font-size: 80px;"">+ 10 points</p>","null","html-keyboard-response","3","565773","0.0-11.0-2.2","59107abbfe518b00016bce9f","c0j65l","MFC","63","F","{""name"":""Chrome"",""chrome"":true,""version"":""106.0"",""blink"":true,""windows"":true,""osname"":""Windows"",""osversion"":""10"",""a"":true}","9:10:11","1","3","Test_4","74","j","1","1651.4000000059605","1920 x 1080","1920 x 1080","true","1","10","","","","",""
"null","<p style=""font-size: 80px;"">+ 10 points</p>","null","html-keyboard-response","4","569235","0.0-11.0-2.3","59107abbfe518b00016bce9f","c0j65l","MFC","63","F","{""name"":""Chrome"",""chrome"":true,""version"":""106.0"",""blink"":true,""windows"":true,""osname"":""Windows"",""osversion"":""10"",""a"":true}","9:10:11","1","3","Test_4","74","j","1","1442.7000000029802","1920 x 1080","1920 x 1080","true","1","10","","","","",""
"null","<p style=""font-size: 80px;"">+ 10 points</p>","null","html-keyboard-response","5","572274","0.0-11.0-2.4","59107abbfe518b00016bce9f","c0j65l","MFC","63","F","{""name"":""Chrome"",""chrome"":true,""version"":""106.0"",""blink"":true,""windows"":true,""osname"":""Windows"",""osversion"":""10"",""a"":true}","9:10:11","1","3","Test_4","74","j","1","1021.5","1920 x 1080","1920 x 1080","true","1","10","","","","",""
"null","<p style=""font-size: 80px;"">+ 10 points</p>","null","html-keyboard-response","6","575635","0.0-11.0-2.5","59107abbfe518b00016bce9f","c0j65l","MFC","63","F","{""name"":""Chrome"",""chrome"":true,""version"":""106.0"",""blink"":true,""windows"":true,""osname"":""Windows"",""osversion"":""10"",""a"":true}","9:10:11","1","3","Test_2","74","j","1","1350.7999999970198","1920 x 1080","1920 x 1080","true","1","10","","","","",""
"null","<p style=""font-size: 80px;"">+ 10 points</p>","null","html-keyboard-response","7","578446","0.0-11.0-2.6","59107abbfe518b00016bce9f","c0j65l","MFC","63","F","{""name"":""Chrome"",""chrome"":true,""version"":""106.0"",""blink"":true,""windows"":true,""osname"":""Windows"",""osversion"":""10"",""a"":true}","9:10:11","1","3","Test_2","74","j","1","813.2999999970198","1920 x 1080","1920 x 1080","true","1","10","","","","",""
"null","<p style=""font-size: 80px;"">+ 10 points</p>","null","html-keyboard-response","8","583575","0.0-11.0-2.7","59107abbfe518b00016bce9f","c0j65l","MFC","63","F","{""name"":""Chrome"",""chrome"":true,""version"":""106.0"",""blink"":true,""windows"":true,""osname"":""Windows"",""osversion"":""10"",""a"":true}","9:10:11","1","3","Test_4","74","j","1","3110.8999999910593","1920 x 1080","1920 x 1080","true","1","10","","","","",""
"null","<p style=""font-size: 80px;"">+ 10 points</p>","null","html-keyboard-response","9","586681","0.0-11.0-2.8","59107abbfe518b00016bce9f","c0j65l","MFC","63","F","{""name"":""Chrome"",""chrome"":true,""version"":""106.0"",""blink"":true,""windows"":true,""osname"":""Windows"",""osversion"":""10"",""a"":true}","9:10:11","1","3","Test_3","70","f","1","1103.2000000029802","1920 x 1080","1920 x 1080","true","1","10","","","","",""
"null","<p style=""font-size: 80px;"">+ 10 points</p>","null","html-keyboard-response","10","589742","0.0-11.0-2.9","59107abbfe518b00016bce9f","c0j65l","MFC","63","F","{""name"":""Chrome"",""chrome"":true,""version"":""106.0"",""blink"":true,""windows"":true,""osname"":""Windows"",""osversion"":""10"",""a"":true}","9:10:11","1","3","Test_2","74","j","1","1043.2000000029802","1920 x 1080","1920 x 1080","true","1","10","","","","",""
"null","<p style=""font-size: 80px;"">+ 10 points</p>","null","html-keyboard-response","11","592880","0.0-11.0-2.10","59107abbfe518b00016bce9f","c0j65l","MFC","63","F","{""name"":""Chrome"",""chrome"":true,""version"":""106.0"",""blink"":true,""windows"":true,""osname"":""Windows"",""osversion"":""10"",""a"":true}","9:10:11","1","3","Test_3","70","f","1","1127.5999999940395","1920 x 1080","1920 x 1080","true","1","10","","","","",""
"null","<p style=""font-size: 80px;"">+ 10 points</p>","null","html-keyboard-response","12","596618","0.0-11.0-2.11","59107abbfe518b00016bce9f","c0j65l","MFC","63","F","{""name"":""Chrome"",""chrome"":true,""version"":""106.0"",""blink"":true,""windows"":true,""osname"":""Windows"",""osversion"":""10"",""a"":true}","9:10:11","1","3","Test_1","70","f","1","1733.7000000029802","1920 x 1080","1920 x 1080","true","1","10","","","","",""
"null","<p style=""font-size: 80px;"">+ 10 points</p>","null","html-keyboard-response","13","599679","0.0-11.0-2.12","59107abbfe518b00016bce9f","c0j65l","MFC","63","F","{""name"":""Chrome"",""chrome"":true,""version"":""106.0"",""blink"":true,""windows"":true,""osname"":""Windows"",""osversion"":""10"",""a"":true}","9:10:11","1","3","Test_1","70","f","1","1043.2999999970198","1920 x 1080","1920 x 1080","true","1","10","","","","",""
"null","<p style=""font-size: 80px;"">+ 10 points</p>","null","html-keyboard-response","14","603066","0.0-11.0-2.13","59107abbfe518b00016bce9f","c0j65l","MFC","63","F","{""name"":""Chrome"",""chrome"":true,""version"":""106.0"",""blink"":true,""windows"":true,""osname"":""Windows"",""osversion"":""10"",""a"":true}","9:10:11","1","3","Test_3","70","f","1","1374","1920 x 1080","1920 x 1080","true","1","10","","","","",""
"null","<p style=""font-size: 80px;"">+ 10 points</p>","null","html-keyboard-response","15","606011","0.0-11.0-2.14","59107abbfe518b00016bce9f","c0j65l","MFC","63","F","{""name"":""Chrome"",""chrome"":true,""version"":""106.0"",""blink"":true,""windows"":true,""osname"":""Windows"",""osversion"":""10"",""a"":true}","9:10:11","1","3","Test_3","70","f","1","931","1920 x 1080","1920 x 1080","true","1","10","","","","",""
"null","<p style=""font-size: 80px;"">+ 10 points</p>","null","html-keyboard-response","16","609019","0.0-11.0-2.15","59107abbfe518b00016bce9f","c0j65l","MFC","63","F","{""name"":""Chrome"",""chrome"":true,""version"":""106.0"",""blink"":true,""windows"":true,""osname"":""Windows"",""osversion"":""10"",""a"":true}","9:10:11","1","3","Test_3","70","f","1","1002","1920 x 1080","1920 x 1080","true","1","10","","","","",""
"null","<p style=""font-size: 80px;"">+ 10 points</p>","null","html-keyboard-response","17","612173","0.0-11.0-2.16","59107abbfe518b00016bce9f","c0j65l","MFC","63","F","{""name"":""Chrome"",""chrome"":true,""version"":""106.0"",""blink"":true,""windows"":true,""osname"":""Windows"",""osversion"":""10"",""a"":true}","9:10:11","1","3","Test_2","74","j","1","1137.9000000059605","1920 x 1080","1920 x 1080","true","1","10","","","","",""
"null","<p style=""font-size: 80px;"">+ 10 points</p>","null","html-keyboard-response","18","615860","0.0-11.0-2.17","59107abbfe518b00016bce9f","c0j65l","MFC","63","F","{""name"":""Chrome"",""chrome"":true,""version"":""106.0"",""blink"":true,""windows"":true,""osname"":""Windows"",""osversion"":""10"",""a"":true}","9:10:11","1","3","Test_4","74","j","1","1680.0999999940395","1920 x 1080","1920 x 1080","true","1","10","","","","",""
"null","<p style=""font-size: 80px;"">+ 10 points</p>","null","html-keyboard-response","19","618946","0.0-11.0-2.18","59107abbfe518b00016bce9f","c0j65l","MFC","63","F","{""name"":""Chrome"",""chrome"":true,""version"":""106.0"",""blink"":true,""windows"":true,""osname"":""Windows"",""osversion"":""10"",""a"":true}","9:10:11","1","3","Test_2","74","j","1","1055","1920 x 1080","1920 x 1080","true","1","10","","","","",""
"null","<p style=""font-size: 80px;"">+ 10 points</p>","null","html-keyboard-response","20","622270","0.0-11.0-2.19","59107abbfe518b00016bce9f","c0j65l","MFC","63","F","{""name"":""Chrome"",""chrome"":true,""version"":""106.0"",""blink"":true,""windows"":true,""osname"":""Windows"",""osversion"":""10"",""a"":true}","9:10:11","1","3","Test_1","70","f","1","1315.0999999940395","1920 x 1080","1920 x 1080","true","1","10","","","","",""
"null","<p style=""font-size: 80px;"">+ 10 points</p>","null","html-keyboard-response","21","625478","0.0-11.0-2.20","59107abbfe518b00016bce9f","c0j65l","MFC","63","F","{""name"":""Chrome"",""chrome"":true,""version"":""106.0"",""blink"":true,""windows"":true,""osname"":""Windows"",""osversion"":""10"",""a"":true}","9:10:11","1","3","Test_1","70","f","1","1199.699999988079","1920 x 1080","1920 x 1080","true","1","10","","","","",""
"null","<p style=""font-size: 80px;"">+ 0 points</p>","null","html-keyboard-response","22","629002","0.0-11.0-2.21","59107abbfe518b00016bce9f","c0j65l","MFC","63","F","{""name"":""Chrome"",""chrome"":true,""version"":""106.0"",""blink"":true,""windows"":true,""osname"":""Windows"",""osversion"":""10"",""a"":true}","9:10:11","1","4","Test_3","70","j","0","1511.2999999970198","1920 x 1080","1920 x 1080","true","1","0","","","","",""
"null","<p style=""font-size: 80px;"">+ 10 points</p>","null","html-keyboard-response","23","633422","0.0-11.0-2.22","59107abbfe518b00016bce9f","c0j65l","MFC","63","F","{""name"":""Chrome"",""chrome"":true,""version"":""106.0"",""blink"":true,""windows"":true,""osname"":""Windows"",""osversion"":""10"",""a"":true}","9:10:11","1","4","Test_2","70","f","1","2403.2999999970198","1920 x 1080","1920 x 1080","true","1","10","","","","",""
"null","<p style=""font-size: 80px;"">+ 10 points</p>","null","html-keyboard-response","24","636715","0.0-11.0-2.23","59107abbfe518b00016bce9f","c0j65l","MFC","63","F","{""name"":""Chrome"",""chrome"":true,""version"":""106.0"",""blink"":true,""windows"":true,""osname"":""Windows"",""osversion"":""10"",""a"":true}","9:10:11","1","4","Test_3","74","j","1","1279.2999999970198","1920 x 1080","1920 x 1080","true","1","10","","","","",""
"null","<p style=""font-size: 80px;"">+ 10 points</p>","null","html-keyboard-response","25","639802","0.0-11.0-2.24","59107abbfe518b00016bce9f","c0j65l","MFC","63","F","{""name"":""Chrome"",""chrome"":true,""version"":""106.0"",""blink"":true,""windows"":true,""osname"":""Windows"",""osversion"":""10"",""a"":true}","9:10:11","1","4","Test_3","74","j","1","1058.2000000029802","1920 x 1080","1920 x 1080","true","1","10","","","","",""
"null","<p style=""font-size: 80px;"">+ 10 points</p>","null","html-keyboard-response","26","643395","0.0-11.0-2.25","59107abbfe518b00016bce9f","c0j65l","MFC","63","F","{""name"":""Chrome"",""chrome"":true,""version"":""106.0"",""blink"":true,""windows"":true,""osname"":""Windows"",""osversion"":""10"",""a"":true}","9:10:11","1","4","Test_4","70","f","1","1573.5999999940395","1920 x 1080","1920 x 1080","true","1","10","","","","",""
"null","<p style=""font-size: 80px;"">+ 10 points</p>","null","html-keyboard-response","27","646850","0.0-11.0-2.26","59107abbfe518b00016bce9f","c0j65l","MFC","63","F","{""name"":""Chrome"",""chrome"":true,""version"":""106.0"",""blink"":true,""windows"":true,""osname"":""Windows"",""osversion"":""10"",""a"":true}","9:10:11","1","4","Test_2","70","f","1","1429.7999999970198","1920 x 1080","1920 x 1080","true","1","10","","","","",""
"null","<p style=""font-size: 80px;"">+ 10 points</p>","null","html-keyboard-response","28","650776","0.0-11.0-2.27","59107abbfe518b00016bce9f","c0j65l","MFC","63","F","{""name"":""Chrome"",""chrome"":true,""version"":""106.0"",""blink"":true,""windows"":true,""osname"":""Windows"",""osversion"":""10"",""a"":true}","9:10:11","1","4","Test_4","70","f","1","1911","1920 x 1080","1920 x 1080","true","1","10","","","","",""
"null","<p style=""font-size: 80px;"">+ 10 points</p>","null","html-keyboard-response","29","653929","0.0-11.0-2.28","59107abbfe518b00016bce9f","c0j65l","MFC","63","F","{""name"":""Chrome"",""chrome"":true,""version"":""106.0"",""blink"":true,""windows"":true,""osname"":""Windows"",""osversion"":""10"",""a"":true}","9:10:11","1","4","Test_2","70","f","1","1137.2999999970198","1920 x 1080","1920 x 1080","true","1","10","","","","",""
"null","<p style=""font-size: 80px;"">+ 10 points</p>","null","html-keyboard-response","30","658091","0.0-11.0-2.29","59107abbfe518b00016bce9f","c0j65l","MFC","63","F","{""name"":""Chrome"",""chrome"":true,""version"":""106.0"",""blink"":true,""windows"":true,""osname"":""Windows"",""osversion"":""10"",""a"":true}","9:10:11","1","4","Test_1","74","j","1","2143.7000000029802","1920 x 1080","1920 x 1080","true","1","10","","","","",""
"null","<p style=""font-size: 80px;"">+ 10 points</p>","null","html-keyboard-response","31","660814","0.0-11.0-2.30","59107abbfe518b00016bce9f","c0j65l","MFC","63","F","{""name"":""Chrome"",""chrome"":true,""version"":""106.0"",""blink"":true,""windows"":true,""osname"":""Windows"",""osversion"":""10"",""a"":true}","9:10:11","1","4","Test_2","70","f","1","717","1920 x 1080","1920 x 1080","true","1","10","","","","",""
"null","<p style=""font-size: 80px;"">+ 10 points</p>","null","html-keyboard-response","32","664137","0.0-11.0-2.31","59107abbfe518b00016bce9f","c0j65l","MFC","63","F","{""name"":""Chrome"",""chrome"":true,""version"":""106.0"",""blink"":true,""windows"":true,""osname"":""Windows"",""osversion"":""10"",""a"":true}","9:10:11","1","4","Test_1","74","j","1","1314.7000000029802","1920 x 1080","1920 x 1080","true","1","10","","","","",""
"null","<p style=""font-size: 80px;"">+ 10 points</p>","null","html-keyboard-response","33","667276","0.0-11.0-2.32","59107abbfe518b00016bce9f","c0j65l","MFC","63","F","{""name"":""Chrome"",""chrome"":true,""version"":""106.0"",""blink"":true,""windows"":true,""osname"":""Windows"",""osversion"":""10"",""a"":true}","9:10:11","1","4","Test_4","70","f","1","1119.3999999910593","1920 x 1080","1920 x 1080","true","1","10","","","","",""
"null","<p style=""font-size: 80px;"">+ 10 points</p>","null","html-keyboard-response","34","670082","0.0-11.0-2.33","59107abbfe518b00016bce9f","c0j65l","MFC","63","F","{""name"":""Chrome"",""chrome"":true,""version"":""106.0"",""blink"":true,""windows"":true,""osname"":""Windows"",""osversion"":""10"",""a"":true}","9:10:11","1","4","Test_3","74","j","1","789.5","1920 x 1080","1920 x 1080","true","1","10","","","","",""
"null","<p style=""font-size: 80px;"">+ 10 points</p>","null","html-keyboard-response","35","672957","0.0-11.0-2.34","59107abbfe518b00016bce9f","c0j65l","MFC","63","F","{""name"":""Chrome"",""chrome"":true,""version"":""106.0"",""blink"":true,""windows"":true,""osname"":""Windows"",""osversion"":""10"",""a"":true}","9:10:11","1","4","Test_2","70","f","1","863.0999999940395","1920 x 1080","1920 x 1080","true","1","10","","","","",""
"null","<p style=""font-size: 80px;"">+ 10 points</p>","null","html-keyboard-response","36","675964","0.0-11.0-2.35","59107abbfe518b00016bce9f","c0j65l","MFC","63","F","{""name"":""Chrome"",""chrome"":true,""version"":""106.0"",""blink"":true,""windows"":true,""osname"":""Windows"",""osversion"":""10"",""a"":true}","9:10:11","1","4","Test_3","74","j","1","995.7999999970198","1920 x 1080","1920 x 1080","true","1","10","","","","",""
"null","<p style=""font-size: 80px;"">+ 10 points</p>","null","html-keyboard-response","37","679340","0.0-11.0-2.36","59107abbfe518b00016bce9f","c0j65l","MFC","63","F","{""name"":""Chrome"",""chrome"":true,""version"":""106.0"",""blink"":true,""windows"":true,""osname"":""Windows"",""osversion"":""10"",""a"":true}","9:10:11","1","4","Test_1","74","j","1","1364.9000000059605","1920 x 1080","1920 x 1080","true","1","10","","","","",""
"null","<p style=""font-size: 80px;"">+ 10 points</p>","null","html-keyboard-response","38","682579","0.0-11.0-2.37","59107abbfe518b00016bce9f","c0j65l","MFC","63","F","{""name"":""Chrome"",""chrome"":true,""version"":""106.0"",""blink"":true,""windows"":true,""osname"":""Windows"",""osversion"":""10"",""a"":true}","9:10:11","1","4","Test_4","70","f","1","1220.800000011921","1920 x 1080","1920 x 1080","true","1","10","","","","",""
"null","<p style=""font-size: 80px;"">+ 10 points</p>","null","html-keyboard-response","39","686989","0.0-11.0-2.38","59107abbfe518b00016bce9f","c0j65l","MFC","63","F","{""name"":""Chrome"",""chrome"":true,""version"":""106.0"",""blink"":true,""windows"":true,""osname"":""Windows"",""osversion"":""10"",""a"":true}","9:10:11","1","4","Test_1","74","j","1","2398.2999999970198","1920 x 1080","1920 x 1080","true","1","10","","","","",""
"null","<p style=""font-size: 80px;"">+ 10 points</p>","null","html-keyboard-response","40","689997","0.0-11.0-2.39","59107abbfe518b00016bce9f","c0j65l","MFC","63","F","{""name"":""Chrome"",""chrome"":true,""version"":""106.0"",""blink"":true,""windows"":true,""osname"":""Windows"",""osversion"":""10"",""a"":true}","9:10:11","1","4","Test_1","74","j","1","988.2000000029802","1920 x 1080","1920 x 1080","true","1","10","","","","",""
"null","<p style=""font-size: 80px;"">+ 10 points</p>","null","html-keyboard-response","41","693044","0.0-11.0-2.40","59107abbfe518b00016bce9f","c0j65l","MFC","63","F","{""name"":""Chrome"",""chrome"":true,""version"":""106.0"",""blink"":true,""windows"":true,""osname"":""Windows"",""osversion"":""10"",""a"":true}","9:10:11","1","4","Test_2","70","f","1","1028.9000000059605","1920 x 1080","1920 x 1080","true","1","10","","","","",""
"null","<p style=""font-size: 80px;"">+ 10 points</p>","null","html-keyboard-response","42","696907","0.0-11.0-2.41","59107abbfe518b00016bce9f","c0j65l","MFC","63","F","{""name"":""Chrome"",""chrome"":true,""version"":""106.0"",""blink"":true,""windows"":true,""osname"":""Windows"",""osversion"":""10"",""a"":true}","9:10:11","1","4","Test_4","70","f","1","1851.5999999940395","1920 x 1080","1920 x 1080","true","1","10","","","","",""
"null","<p style=""font-size: 80px;"">+ 10 points</p>","null","html-keyboard-response","43","700047","0.0-11.0-2.42","59107abbfe518b00016bce9f","c0j65l","MFC","63","F","{""name"":""Chrome"",""chrome"":true,""version"":""106.0"",""blink"":true,""windows"":true,""osname"":""Windows"",""osversion"":""10"",""a"":true}","9:10:11","1","4","Test_1","74","j","1","1133.699999988079","1920 x 1080","1920 x 1080","true","1","10","","","","",""
"null","<p style=""font-size: 80px;"">+ 10 points</p>","null","html-keyboard-response","44","703106","0.0-11.0-2.43","59107abbfe518b00016bce9f","c0j65l","MFC","63","F","{""name"":""Chrome"",""chrome"":true,""version"":""106.0"",""blink"":true,""windows"":true,""osname"":""Windows"",""osversion"":""10"",""a"":true}","9:10:11","1","4","Test_3","74","j","1","1050.0999999940395","1920 x 1080","1920 x 1080","true","1","10","","","","",""
"null","<p style=""font-size: 80px;"">+ 0 points</p>","null","html-keyboard-response","45","705944","0.0-11.0-2.44","59107abbfe518b00016bce9f","c0j65l","MFC","63","F","{""name"":""Chrome"",""chrome"":true,""version"":""106.0"",""blink"":true,""windows"":true,""osname"":""Windows"",""osversion"":""10"",""a"":true}","9:10:11","1","3","Test_3","74","f","0","830.3999999910593","1920 x 1080","1920 x 1080","true","1","0","","","","",""
"null","<p style=""font-size: 80px;"">+ 10 points</p>","null","html-keyboard-response","46","708904","0.0-11.0-2.45","59107abbfe518b00016bce9f","c0j65l","MFC","63","F","{""name"":""Chrome"",""chrome"":true,""version"":""106.0"",""blink"":true,""windows"":true,""osname"":""Windows"",""osversion"":""10"",""a"":true}","9:10:11","1","3","Test_2","74","j","1","944.5","1920 x 1080","1920 x 1080","true","1","10","","","","",""
"null","<p style=""font-size: 80px;"">+ 10 points</p>","null","html-keyboard-response","47","711911","0.0-11.0-2.46","59107abbfe518b00016bce9f","c0j65l","MFC","63","F","{""name"":""Chrome"",""chrome"":true,""version"":""106.0"",""blink"":true,""windows"":true,""osname"":""Windows"",""osversion"":""10"",""a"":true}","9:10:11","1","3","Test_1","70","f","1","993.4000000059605","1920 x 1080","1920 x 1080","true","1","10","","","","",""
"null","<p style=""font-size: 80px;"">+ 10 points</p>","null","html-keyboard-response","48","714634","0.0-11.0-2.47","59107abbfe518b00016bce9f","c0j65l","MFC","63","F","{""name"":""Chrome"",""chrome"":true,""version"":""106.0"",""blink"":true,""windows"":true,""osname"":""Windows"",""osversion"":""10"",""a"":true}","9:10:11","1","3","Test_2","74","j","1","712.7999999970198","1920 x 1080","1920 x 1080","true","1","10","","","","",""
"null","<p style=""font-size: 80px;"">+ 10 points</p>","null","html-keyboard-response","49","719076","0.0-11.0-2.48","59107abbfe518b00016bce9f","c0j65l","MFC","63","F","{""name"":""Chrome"",""chrome"":true,""version"":""106.0"",""blink"":true,""windows"":true,""osname"":""Windows"",""osversion"":""10"",""a"":true}","9:10:11","1","3","Test_3","70","f","1","2431.0999999940395","1920 x 1080","1920 x 1080","true","1","10","","","","",""
"null","<p style=""font-size: 80px;"">+ 10 points</p>","null","html-keyboard-response","50","722547","0.0-11.0-2.49","59107abbfe518b00016bce9f","c0j65l","MFC","63","F","{""name"":""Chrome"",""chrome"":true,""version"":""106.0"",""blink"":true,""windows"":true,""osname"":""Windows"",""osversion"":""10"",""a"":true}","9:10:11","1","3","Test_4","74","j","1","1461","1920 x 1080","1920 x 1080","true","1","10","","","","",""
"null","<p style=""font-size: 80px;"">+ 10 points</p>","null","html-keyboard-response","51","727032","0.0-11.0-2.50","59107abbfe518b00016bce9f","c0j65l","MFC","63","F","{""name"":""Chrome"",""chrome"":true,""version"":""106.0"",""blink"":true,""windows"":true,""osname"":""Windows"",""osversion"":""10"",""a"":true}","9:10:11","1","3","Test_4","74","j","1","2458.4000000059605","1920 x 1080","1920 x 1080","true","1","10","","","","",""
"null","<p style=""font-size: 80px;"">+ 10 points</p>","null","html-keyboard-response","52","730378","0.0-11.0-2.51","59107abbfe518b00016bce9f","c0j65l","MFC","63","F","{""name"":""Chrome"",""chrome"":true,""version"":""106.0"",""blink"":true,""windows"":true,""osname"":""Windows"",""osversion"":""10"",""a"":true}","9:10:11","1","3","Test_4","74","j","1","1337.2999999970198","1920 x 1080","1920 x 1080","true","1","10","","","","",""
"null","<p style=""font-size: 80px;"">+ 10 points</p>","null","html-keyboard-response","53","733247","0.0-11.0-2.52","59107abbfe518b00016bce9f","c0j65l","MFC","63","F","{""name"":""Chrome"",""chrome"":true,""version"":""106.0"",""blink"":true,""windows"":true,""osname"":""Windows"",""osversion"":""10"",""a"":true}","9:10:11","1","3","Test_3","70","f","1","863.2000000029802","1920 x 1080","1920 x 1080","true","1","10","","","","",""
"null","<p style=""font-size: 80px;"">+ 10 points</p>","null","html-keyboard-response","54","737125","0.0-11.0-2.53","59107abbfe518b00016bce9f","c0j65l","MFC","63","F","{""name"":""Chrome"",""chrome"":true,""version"":""106.0"",""blink"":true,""windows"":true,""osname"":""Windows"",""osversion"":""10"",""a"":true}","9:10:11","1","3","Test_2","74","j","1","1866.0999999940395","1920 x 1080","1920 x 1080","true","1","10","","","","",""
"null","<p style=""font-size: 80px;"">+ 10 points</p>","null","html-keyboard-response","55","741667","0.0-11.0-2.54","59107abbfe518b00016bce9f","c0j65l","MFC","63","F","{""name"":""Chrome"",""chrome"":true,""version"":""106.0"",""blink"":true,""windows"":true,""osname"":""Windows"",""osversion"":""10"",""a"":true}","9:10:11","1","3","Test_1","70","f","1","2523.7000000029802","1920 x 1080","1920 x 1080","true","1","10","","","","",""
"null","<p style=""font-size: 80px;"">+ 10 points</p>","null","html-keyboard-response","56","745700","0.0-11.0-2.55","59107abbfe518b00016bce9f","c0j65l","MFC","63","F","{""name"":""Chrome"",""chrome"":true,""version"":""106.0"",""blink"":true,""windows"":true,""osname"":""Windows"",""osversion"":""10"",""a"":true}","9:10:11","1","3","Test_1","70","f","1","2013.7999999970198","1920 x 1080","1920 x 1080","true","1","10","","","","",""
"null","<p style=""font-size: 80px;"">+ 10 points</p>","null","html-keyboard-response","57","748738","0.0-11.0-2.56","59107abbfe518b00016bce9f","c0j65l","MFC","63","F","{""name"":""Chrome"",""chrome"":true,""version"":""106.0"",""blink"":true,""windows"":true,""osname"":""Windows"",""osversion"":""10"",""a"":true}","9:10:11","1","3","Test_1","70","f","1","1021","1920 x 1080","1920 x 1080","true","1","10","","","","",""
"null","<p style=""font-size: 80px;"">+ 10 points</p>","null","html-keyboard-response","58","751977","0.0-11.0-2.57","59107abbfe518b00016bce9f","c0j65l","MFC","63","F","{""name"":""Chrome"",""chrome"":true,""version"":""106.0"",""blink"":true,""windows"":true,""osname"":""Windows"",""osversion"":""10"",""a"":true}","9:10:11","1","3","Test_2","74","j","1","1222.7000000029802","1920 x 1080","1920 x 1080","true","1","10","","","","",""
"null","<p style=""font-size: 80px;"">+ 0 points</p>","null","html-keyboard-response","59","755523","0.0-11.0-2.58","59107abbfe518b00016bce9f","c0j65l","MFC","63","F","{""name"":""Chrome"",""chrome"":true,""version"":""106.0"",""blink"":true,""windows"":true,""osname"":""Windows"",""osversion"":""10"",""a"":true}","9:10:11","1","3","Test_4","70","j","0","1520.2999999970198","1920 x 1080","1920 x 1080","true","1","0","","","","",""
"null","<p style=""font-size: 80px;"">+ 10 points</p>","null","html-keyboard-response","60","759025","0.0-11.0-2.59","59107abbfe518b00016bce9f","c0j65l","MFC","63","F","{""name"":""Chrome"",""chrome"":true,""version"":""106.0"",""blink"":true,""windows"":true,""osname"":""Windows"",""osversion"":""10"",""a"":true}","9:10:11","1","4","Test_3","74","j","1","1493.6000000089407","1920 x 1080","1920 x 1080","true","1","10","","","","",""
"null","<p style=""font-size: 80px;"">+ 0 points</p>","null","html-keyboard-response","61","762665","0.0-11.0-2.60","59107abbfe518b00016bce9f","c0j65l","MFC","63","F","{""name"":""Chrome"",""chrome"":true,""version"":""106.0"",""blink"":true,""windows"":true,""osname"":""Windows"",""osversion"":""10"",""a"":true}","9:10:11","1","4","Test_3","70","j","0","1632.699999988079","1920 x 1080","1920 x 1080","true","1","0","","","","",""
"null","<p style=""font-size: 80px;"">+ 10 points</p>","null","html-keyboard-response","62","766744","0.0-11.0-2.61","59107abbfe518b00016bce9f","c0j65l","MFC","63","F","{""name"":""Chrome"",""chrome"":true,""version"":""106.0"",""blink"":true,""windows"":true,""osname"":""Windows"",""osversion"":""10"",""a"":true}","9:10:11","1","4","Test_2","70","f","1","2065.2999999970198","1920 x 1080","1920 x 1080","true","1","10","","","","",""
"null","<p style=""font-size: 80px;"">+ 10 points</p>","null","html-keyboard-response","63","770671","0.0-11.0-2.62","59107abbfe518b00016bce9f","c0j65l","MFC","63","F","{""name"":""Chrome"",""chrome"":true,""version"":""106.0"",""blink"":true,""windows"":true,""osname"":""Windows"",""osversion"":""10"",""a"":true}","9:10:11","1","4","Test_4","70","f","1","1913.9000000059605","1920 x 1080","1920 x 1080","true","1","10","","","","",""
"null","<p style=""font-size: 80px;"">+ 10 points</p>","null","html-keyboard-response","64","773725","0.0-11.0-2.63","59107abbfe518b00016bce9f","c0j65l","MFC","63","F","{""name"":""Chrome"",""chrome"":true,""version"":""106.0"",""blink"":true,""windows"":true,""osname"":""Windows"",""osversion"":""10"",""a"":true}","9:10:11","1","4","Test_2","70","f","1","1042.7000000029802","1920 x 1080","1920 x 1080","true","1","10","","","","",""
"null","<p style=""font-size: 80px;"">+ 10 points</p>","null","html-keyboard-response","65","778589","0.0-11.0-2.64","59107abbfe518b00016bce9f","c0j65l","MFC","63","F","{""name"":""Chrome"",""chrome"":true,""version"":""106.0"",""blink"":true,""windows"":true,""osname"":""Windows"",""osversion"":""10"",""a"":true}","9:10:11","1","4","Test_4","70","f","1","2845.7000000029802","1920 x 1080","1920 x 1080","true","1","10","","","","",""
"null","<p style=""font-size: 80px;"">+ 10 points</p>","null","html-keyboard-response","66","782060","0.0-11.0-2.65","59107abbfe518b00016bce9f","c0j65l","MFC","63","F","{""name"":""Chrome"",""chrome"":true,""version"":""106.0"",""blink"":true,""windows"":true,""osname"":""Windows"",""osversion"":""10"",""a"":true}","9:10:11","1","4","Test_4","70","f","1","1460.6000000089407","1920 x 1080","1920 x 1080","true","1","10","","","","",""
"null","<p style=""font-size: 80px;"">+ 10 points</p>","null","html-keyboard-response","67","785120","0.0-11.0-2.66","59107abbfe518b00016bce9f","c0j65l","MFC","63","F","{""name"":""Chrome"",""chrome"":true,""version"":""106.0"",""blink"":true,""windows"":true,""osname"":""Windows"",""osversion"":""10"",""a"":true}","9:10:11","1","4","Test_4","70","f","1","1054.2999999970198","1920 x 1080","1920 x 1080","true","1","10","","","","",""
"null","<p style=""font-size: 80px;"">+ 10 points</p>","null","html-keyboard-response","68","787996","0.0-11.0-2.67","59107abbfe518b00016bce9f","c0j65l","MFC","63","F","{""name"":""Chrome"",""chrome"":true,""version"":""106.0"",""blink"":true,""windows"":true,""osname"":""Windows"",""osversion"":""10"",""a"":true}","9:10:11","1","4","Test_3","74","j","1","858","1920 x 1080","1920 x 1080","true","1","10","","","","",""
"null","<p style=""font-size: 80px;"">+ 10 points</p>","null","html-keyboard-response","69","791821","0.0-11.0-2.68","59107abbfe518b00016bce9f","c0j65l","MFC","63","F","{""name"":""Chrome"",""chrome"":true,""version"":""106.0"",""blink"":true,""windows"":true,""osname"":""Windows"",""osversion"":""10"",""a"":true}","9:10:11","1","4","Test_1","74","j","1","1806.3999999910593","1920 x 1080","1920 x 1080","true","1","10","","","","",""
"null","<p style=""font-size: 80px;"">+ 10 points</p>","null","html-keyboard-response","70","794791","0.0-11.0-2.69","59107abbfe518b00016bce9f","c0j65l","MFC","63","F","{""name"":""Chrome"",""chrome"":true,""version"":""106.0"",""blink"":true,""windows"":true,""osname"":""Windows"",""osversion"":""10"",""a"":true}","9:10:11","1","4","Test_3","74","j","1","956.5","1920 x 1080","1920 x 1080","true","1","10","","","","",""
"null","<p style=""font-size: 80px;"">+ 10 points</p>","null","html-keyboard-response","71","797946","0.0-11.0-2.70","59107abbfe518b00016bce9f","c0j65l","MFC","63","F","{""name"":""Chrome"",""chrome"":true,""version"":""106.0"",""blink"":true,""windows"":true,""osname"":""Windows"",""osversion"":""10"",""a"":true}","9:10:11","1","4","Test_1","74","j","1","1138.7999999970198","1920 x 1080","1920 x 1080","true","1","10","","","","",""
"null","<p style=""font-size: 80px;"">+ 10 points</p>","null","html-keyboard-response","72","801269","0.0-11.0-2.71","59107abbfe518b00016bce9f","c0j65l","MFC","63","F","{""name"":""Chrome"",""chrome"":true,""version"":""106.0"",""blink"":true,""windows"":true,""osname"":""Windows"",""osversion"":""10"",""a"":true}","9:10:11","1","4","Test_1","74","j","1","1312.2999999970198","1920 x 1080","1920 x 1080","true","1","10","","","","",""
"null","<p style=""font-size: 80px;"">+ 10 points</p>","null","html-keyboard-response","73","805527","0.0-11.0-2.72","59107abbfe518b00016bce9f","c0j65l","MFC","63","F","{""name"":""Chrome"",""chrome"":true,""version"":""106.0"",""blink"":true,""windows"":true,""osname"":""Windows"",""osversion"":""10"",""a"":true}","9:10:11","1","4","Test_4","70","f","1","2244.8999999910593","1920 x 1080","1920 x 1080","true","1","10","","","","",""
"null","<p style=""font-size: 80px;"">+ 10 points</p>","null","html-keyboard-response","74","808287","0.0-11.0-2.73","59107abbfe518b00016bce9f","c0j65l","MFC","63","F","{""name"":""Chrome"",""chrome"":true,""version"":""106.0"",""blink"":true,""windows"":true,""osname"":""Windows"",""osversion"":""10"",""a"":true}","9:10:11","1","4","Test_3","74","j","1","747.5","1920 x 1080","1920 x 1080","true","1","10","","","","",""
"null","<p style=""font-size: 80px;"">+ 10 points</p>","null","html-keyboard-response","75","811680","0.0-11.0-2.74","59107abbfe518b00016bce9f","c0j65l","MFC","63","F","{""name"":""Chrome"",""chrome"":true,""version"":""106.0"",""blink"":true,""windows"":true,""osname"":""Windows"",""osversion"":""10"",""a"":true}","9:10:11","1","4","Test_2","70","f","1","1387.2000000029802","1920 x 1080","1920 x 1080","true","1","10","","","","",""
"null","<p style=""font-size: 80px;"">+ 10 points</p>","null","html-keyboard-response","76","815119","0.0-11.0-2.75","59107abbfe518b00016bce9f","c0j65l","MFC","63","F","{""name"":""Chrome"",""chrome"":true,""version"":""106.0"",""blink"":true,""windows"":true,""osname"":""Windows"",""osversion"":""10"",""a"":true}","9:10:11","1","4","Test_1","74","j","1","1434.1000000089407","1920 x 1080","1920 x 1080","true","1","10","","","","",""
"null","<p style=""font-size: 80px;"">+ 10 points</p>","null","html-keyboard-response","77","818086","0.0-11.0-2.76","59107abbfe518b00016bce9f","c0j65l","MFC","63","F","{""name"":""Chrome"",""chrome"":true,""version"":""106.0"",""blink"":true,""windows"":true,""osname"":""Windows"",""osversion"":""10"",""a"":true}","9:10:11","1","4","Test_2","70","f","1","955.6000000089407","1920 x 1080","1920 x 1080","true","1","10","","","","",""
"null","<p style=""font-size: 80px;"">+ 10 points</p>","null","html-keyboard-response","78","821557","0.0-11.0-2.77","59107abbfe518b00016bce9f","c0j65l","MFC","63","F","{""name"":""Chrome"",""chrome"":true,""version"":""106.0"",""blink"":true,""windows"":true,""osname"":""Windows"",""osversion"":""10"",""a"":true}","9:10:11","1","4","Test_1","74","j","1","1458.0999999940395","1920 x 1080","1920 x 1080","true","1","10","","","","",""
"null","<p style=""font-size: 80px;"">+ 10 points</p>","null","html-keyboard-response","79","824464","0.0-11.0-2.78","59107abbfe518b00016bce9f","c0j65l","MFC","63","F","{""name"":""Chrome"",""chrome"":true,""version"":""106.0"",""blink"":true,""windows"":true,""osname"":""Windows"",""osversion"":""10"",""a"":true}","9:10:11","1","4","Test_2","70","f","1","891.4000000059605","1920 x 1080","1920 x 1080","true","1","10","","","","",""
"null","<p style=""font-size: 80px;"">+ 10 points</p>","null","html-keyboard-response","80","827155","0.0-11.0-2.79","59107abbfe518b00016bce9f","c0j65l","MFC","63","F","{""name"":""Chrome"",""chrome"":true,""version"":""106.0"",""blink"":true,""windows"":true,""osname"":""Windows"",""osversion"":""10"",""a"":true}","9:10:11","1","4","Test_2","70","f","1","680.8999999910593","1920 x 1080","1920 x 1080","true","1","10","","","","",""
"null","<p style=""font-size: 80px;"">+ 10 points</p>","null","html-keyboard-response","81","830247","0.0-11.0-2.80","59107abbfe518b00016bce9f","c0j65l","MFC","63","F","{""name"":""Chrome"",""chrome"":true,""version"":""106.0"",""blink"":true,""windows"":true,""osname"":""Windows"",""osversion"":""10"",""a"":true}","9:10:11","1","4","Test_4","70","f","1","1077.5","1920 x 1080","1920 x 1080","true","1","10","","","","",""
"null","<p style=""font-size: 80px;"">+ 10 points</p>","null","html-keyboard-response","82","833809","0.0-11.0-2.81","59107abbfe518b00016bce9f","c0j65l","MFC","63","F","{""name"":""Chrome"",""chrome"":true,""version"":""106.0"",""blink"":true,""windows"":true,""osname"":""Windows"",""osversion"":""10"",""a"":true}","9:10:11","1","4","Test_1","74","j","1","1543.5","1920 x 1080","1920 x 1080","true","1","10","","","","",""
"null","<p style=""font-size: 80px;"">+ 0 points</p>","null","html-keyboard-response","83","836699","0.0-11.0-2.82","59107abbfe518b00016bce9f","c0j65l","MFC","63","F","{""name"":""Chrome"",""chrome"":true,""version"":""106.0"",""blink"":true,""windows"":true,""osname"":""Windows"",""osversion"":""10"",""a"":true}","9:10:11","1","4","Test_3","70","j","0","880.2999999970198","1920 x 1080","1920 x 1080","true","1","0","","","","",""
"null","<p style=""font-size: 80px;"">+ 0 points</p>","null","html-keyboard-response","84","839375","0.0-11.0-2.83","59107abbfe518b00016bce9f","c0j65l","MFC","63","F","{""name"":""Chrome"",""chrome"":true,""version"":""106.0"",""blink"":true,""windows"":true,""osname"":""Windows"",""osversion"":""10"",""a"":true}","9:10:11","1","3","Test_3","74","f","0","668.6999999880791","1920 x 1080","1920 x 1080","true","1","0","","","","",""
"null","<p style=""font-size: 80px;"">+ 10 points</p>","null","html-keyboard-response","85","843238","0.0-11.0-2.84","59107abbfe518b00016bce9f","c0j65l","MFC","63","F","{""name"":""Chrome"",""chrome"":true,""version"":""106.0"",""blink"":true,""windows"":true,""osname"":""Windows"",""osversion"":""10"",""a"":true}","9:10:11","1","3","Test_4","74","j","1","1857","1920 x 1080","1920 x 1080","true","1","10","","","","",""
"null","<p style=""font-size: 80px;"">+ 10 points</p>","null","html-keyboard-response","86","846709","0.0-11.0-2.85","59107abbfe518b00016bce9f","c0j65l","MFC","63","F","{""name"":""Chrome"",""chrome"":true,""version"":""106.0"",""blink"":true,""windows"":true,""osname"":""Windows"",""osversion"":""10"",""a"":true}","9:10:11","1","3","Test_4","74","j","1","1442.2999999970198","1920 x 1080","1920 x 1080","true","1","10","","","","",""
"null","<p style=""font-size: 80px;"">+ 10 points</p>","null","html-keyboard-response","87","850185","0.0-11.0-2.86","59107abbfe518b00016bce9f","c0j65l","MFC","63","F","{""name"":""Chrome"",""chrome"":true,""version"":""106.0"",""blink"":true,""windows"":true,""osname"":""Windows"",""osversion"":""10"",""a"":true}","9:10:11","1","3","Test_4","74","j","1","1458.5","1920 x 1080","1920 x 1080","true","1","10","","","","",""
"null","<p style=""font-size: 80px;"">+ 10 points</p>","null","html-keyboard-response","88","853761","0.0-11.0-2.87","59107abbfe518b00016bce9f","c0j65l","MFC","63","F","{""name"":""Chrome"",""chrome"":true,""version"":""106.0"",""blink"":true,""windows"":true,""osname"":""Windows"",""osversion"":""10"",""a"":true}","9:10:11","1","3","Test_1","70","f","1","1560","1920 x 1080","1920 x 1080","true","1","10","","","","",""
"null","<p style=""font-size: 80px;"">+ 10 points</p>","null","html-keyboard-response","89","856699","0.0-11.0-2.88","59107abbfe518b00016bce9f","c0j65l","MFC","63","F","{""name"":""Chrome"",""chrome"":true,""version"":""106.0"",""blink"":true,""windows"":true,""osname"":""Windows"",""osversion"":""10"",""a"":true}","9:10:11","1","3","Test_2","74","j","1","919.2000000029802","1920 x 1080","1920 x 1080","true","1","10","","","","",""
"null","<p style=""font-size: 80px;"">+ 10 points</p>","null","html-keyboard-response","90","859706","0.0-11.0-2.89","59107abbfe518b00016bce9f","c0j65l","MFC","63","F","{""name"":""Chrome"",""chrome"":true,""version"":""106.0"",""blink"":true,""windows"":true,""osname"":""Windows"",""osversion"":""10"",""a"":true}","9:10:11","1","3","Test_2","74","j","1","988.7000000029802","1920 x 1080","1920 x 1080","true","1","10","","","","",""
"null","<p style=""font-size: 80px;"">+ 10 points</p>","null","html-keyboard-response","91","862661","0.0-11.0-2.90","59107abbfe518b00016bce9f","c0j65l","MFC","63","F","{""name"":""Chrome"",""chrome"":true,""version"":""106.0"",""blink"":true,""windows"":true,""osname"":""Windows"",""osversion"":""10"",""a"":true}","9:10:11","1","3","Test_3","70","f","1","942.2999999970198","1920 x 1080","1920 x 1080","true","1","10","","","","",""
"null","<p style=""font-size: 80px;"">+ 10 points</p>","null","html-keyboard-response","92","866633","0.0-11.0-2.91","59107abbfe518b00016bce9f","c0j65l","MFC","63","F","{""name"":""Chrome"",""chrome"":true,""version"":""106.0"",""blink"":true,""windows"":true,""osname"":""Windows"",""osversion"":""10"",""a"":true}","9:10:11","1","3","Test_2","74","j","1","1963.7999999970198","1920 x 1080","1920 x 1080","true","1","10","","","","",""
"null","<p style=""font-size: 80px;"">+ 10 points</p>","null","html-keyboard-response","93","869687","0.0-11.0-2.92","59107abbfe518b00016bce9f","c0j65l","MFC","63","F","{""name"":""Chrome"",""chrome"":true,""version"":""106.0"",""blink"":true,""windows"":true,""osname"":""Windows"",""osversion"":""10"",""a"":true}","9:10:11","1","3","Test_3","70","f","1","1031.5999999940395","1920 x 1080","1920 x 1080","true","1","10","","","","",""
"null","<p style=""font-size: 80px;"">+ 10 points</p>","null","html-keyboard-response","94","872626","0.0-11.0-2.93","59107abbfe518b00016bce9f","c0j65l","MFC","63","F","{""name"":""Chrome"",""chrome"":true,""version"":""106.0"",""blink"":true,""windows"":true,""osname"":""Windows"",""osversion"":""10"",""a"":true}","9:10:11","1","3","Test_2","74","j","1","920.9000000059605","1920 x 1080","1920 x 1080","true","1","10","","","","",""
"null","<p style=""font-size: 80px;"">+ 10 points</p>","null","html-keyboard-response","95","875665","0.0-11.0-2.94","59107abbfe518b00016bce9f","c0j65l","MFC","63","F","{""name"":""Chrome"",""chrome"":true,""version"":""106.0"",""blink"":true,""windows"":true,""osname"":""Windows"",""osversion"":""10"",""a"":true}","9:10:11","1","3","Test_3","70","f","1","1021.8999999910593","1920 x 1080","1920 x 1080","true","1","10","","","","",""
"null","<p style=""font-size: 80px;"">+ 10 points</p>","null","html-keyboard-response","96","879010","0.0-11.0-2.95","59107abbfe518b00016bce9f","c0j65l","MFC","63","F","{""name"":""Chrome"",""chrome"":true,""version"":""106.0"",""blink"":true,""windows"":true,""osname"":""Windows"",""osversion"":""10"",""a"":true}","9:10:11","1","3","Test_1","70","f","1","1319.8999999910593","1920 x 1080","1920 x 1080","true","1","10","","","","",""
"null","<p style=""font-size: 80px;"">+ 10 points</p>","null","html-keyboard-response","97","882333","0.0-11.0-2.96","59107abbfe518b00016bce9f","c0j65l","MFC","63","F","{""name"":""Chrome"",""chrome"":true,""version"":""106.0"",""blink"":true,""windows"":true,""osname"":""Windows"",""osversion"":""10"",""a"":true}","9:10:11","1","3","Test_4","74","j","1","1302","1920 x 1080","1920 x 1080","true","1","10","","","","",""
"null","<p style=""font-size: 80px;"">+ 10 points</p>","null","html-keyboard-response","98","885610","0.0-11.0-2.97","59107abbfe518b00016bce9f","c0j65l","MFC","63","F","{""name"":""Chrome"",""chrome"":true,""version"":""106.0"",""blink"":true,""windows"":true,""osname"":""Windows"",""osversion"":""10"",""a"":true}","9:10:11","1","3","Test_1","70","f","1","1268.5","1920 x 1080","1920 x 1080","true","1","10","","","","",""
"null","<p style=""font-size: 80px;"">+ 0 points</p>","null","html-keyboard-response","99","889122","0.0-11.0-2.98","59107abbfe518b00016bce9f","c0j65l","MFC","63","F","{""name"":""Chrome"",""chrome"":true,""version"":""106.0"",""blink"":true,""windows"":true,""osname"":""Windows"",""osversion"":""10"",""a"":true}","9:10:11","1","4","Test_4","74","f","0","1499.4000000059605","1920 x 1080","1920 x 1080","true","1","0","","","","",""
"null","<p style=""font-size: 80px;"">+ 10 points</p>","null","html-keyboard-response","100","893572","0.0-11.0-2.99","59107abbfe518b00016bce9f","c0j65l","MFC","63","F","{""name"":""Chrome"",""chrome"":true,""version"":""106.0"",""blink"":true,""windows"":true,""osname"":""Windows"",""osversion"":""10"",""a"":true}","9:10:11","1","4","Test_1","74","j","1","2430.2999999970198","1920 x 1080","1920 x 1080","true","1","10","","","","",""
"null","<p style=""font-size: 80px;"">+ 10 points</p>","null","html-keyboard-response","101","896518","0.0-11.0-2.100","59107abbfe518b00016bce9f","c0j65l","MFC","63","F","{""name"":""Chrome"",""chrome"":true,""version"":""106.0"",""blink"":true,""windows"":true,""osname"":""Windows"",""osversion"":""10"",""a"":true}","9:10:11","1","4","Test_2","70","f","1","932.5999999940395","1920 x 1080","1920 x 1080","true","1","10","","","","",""
"null","<p style=""font-size: 80px;"">+ 10 points</p>","null","html-keyboard-response","102","899879","0.0-11.0-2.101","59107abbfe518b00016bce9f","c0j65l","MFC","63","F","{""name"":""Chrome"",""chrome"":true,""version"":""106.0"",""blink"":true,""windows"":true,""osname"":""Windows"",""osversion"":""10"",""a"":true}","9:10:11","1","4","Test_4","70","f","1","1347","1920 x 1080","1920 x 1080","true","1","10","","","","",""
"null","<p style=""font-size: 80px;"">+ 10 points</p>","null","html-keyboard-response","103","903550","0.0-11.0-2.102","59107abbfe518b00016bce9f","c0j65l","MFC","63","F","{""name"":""Chrome"",""chrome"":true,""version"":""106.0"",""blink"":true,""windows"":true,""osname"":""Windows"",""osversion"":""10"",""a"":true}","9:10:11","1","4","Test_1","74","j","1","1657.7999999970198","1920 x 1080","1920 x 1080","true","1","10","","","","",""
"null","<p style=""font-size: 80px;"">+ 10 points</p>","null","html-keyboard-response","104","907675","0.0-11.0-2.103","59107abbfe518b00016bce9f","c0j65l","MFC","63","F","{""name"":""Chrome"",""chrome"":true,""version"":""106.0"",""blink"":true,""windows"":true,""osname"":""Windows"",""osversion"":""10"",""a"":true}","9:10:11","1","4","Test_4","70","f","1","2106.2000000029802","1920 x 1080","1920 x 1080","true","1","10","","","","",""
"null","<p style=""font-size: 80px;"">+ 10 points</p>","null","html-keyboard-response","105","910420","0.0-11.0-2.104","59107abbfe518b00016bce9f","c0j65l","MFC","63","F","{""name"":""Chrome"",""chrome"":true,""version"":""106.0"",""blink"":true,""windows"":true,""osname"":""Windows"",""osversion"":""10"",""a"":true}","9:10:11","1","4","Test_3","74","j","1","725.3999999910593","1920 x 1080","1920 x 1080","true","1","10","","","","",""
"null","<p style=""font-size: 80px;"">+ 10 points</p>","null","html-keyboard-response","106","913288","0.0-11.0-2.105","59107abbfe518b00016bce9f","c0j65l","MFC","63","F","{""name"":""Chrome"",""chrome"":true,""version"":""106.0"",""blink"":true,""windows"":true,""osname"":""Windows"",""osversion"":""10"",""a"":true}","9:10:11","1","4","Test_2","70","f","1","853.0999999940395","1920 x 1080","1920 x 1080","true","1","10","","","","",""
"null","<p style=""font-size: 80px;"">+ 10 points</p>","null","html-keyboard-response","107","916264","0.0-11.0-2.106","59107abbfe518b00016bce9f","c0j65l","MFC","63","F","{""name"":""Chrome"",""chrome"":true,""version"":""106.0"",""blink"":true,""windows"":true,""osname"":""Windows"",""osversion"":""10"",""a"":true}","9:10:11","1","4","Test_1","74","j","1","968.9000000059605","1920 x 1080","1920 x 1080","true","1","10","","","","",""
"null","<p style=""font-size: 80px;"">+ 10 points</p>","null","html-keyboard-response","108","919581","0.0-11.0-2.107","59107abbfe518b00016bce9f","c0j65l","MFC","63","F","{""name"":""Chrome"",""chrome"":true,""version"":""106.0"",""blink"":true,""windows"":true,""osname"":""Windows"",""osversion"":""10"",""a"":true}","9:10:11","1","4","Test_3","74","j","1","1305.199999988079","1920 x 1080","1920 x 1080","true","1","10","","","","",""
"null","<p style=""font-size: 80px;"">+ 10 points</p>","null","html-keyboard-response","109","922313","0.0-11.0-2.108","59107abbfe518b00016bce9f","c0j65l","MFC","63","F","{""name"":""Chrome"",""chrome"":true,""version"":""106.0"",""blink"":true,""windows"":true,""osname"":""Windows"",""osversion"":""10"",""a"":true}","9:10:11","1","4","Test_3","74","j","1","724.1000000089407","1920 x 1080","1920 x 1080","true","1","10","","","","",""
"null","<p style=""font-size: 80px;"">+ 10 points</p>","null","html-keyboard-response","110","945092","0.0-11.0-2.109","59107abbfe518b00016bce9f","c0j65l","MFC","63","F","{""name"":""Chrome"",""chrome"":true,""version"":""106.0"",""blink"":true,""windows"":true,""osname"":""Windows"",""osversion"":""10"",""a"":true}","9:10:11","1","4","Test_2","70","f","1","819.1000000089407","1920 x 1080","1920 x 1080","true","1","10","","","","",""
"null","<p style=""font-size: 80px;"">+ 10 points</p>","null","html-keyboard-response","111","947930","0.0-11.0-2.110","59107abbfe518b00016bce9f","c0j65l","MFC","63","F","{""name"":""Chrome"",""chrome"":true,""version"":""106.0"",""blink"":true,""windows"":true,""osname"":""Windows"",""osversion"":""10"",""a"":true}","9:10:11","1","4","Test_2","70","f","1","823.2999999970198","1920 x 1080","1920 x 1080","true","1","10","","","","",""
"null","<p style=""font-size: 80px;"">+ 10 points</p>","null","html-keyboard-response","112","951054","0.0-11.0-2.111","59107abbfe518b00016bce9f","c0j65l","MFC","63","F","{""name"":""Chrome"",""chrome"":true,""version"":""106.0"",""blink"":true,""windows"":true,""osname"":""Windows"",""osversion"":""10"",""a"":true}","9:10:11","1","4","Test_1","74","j","1","1113.1000000089407","1920 x 1080","1920 x 1080","true","1","10","","","","",""
"null","<p style=""font-size: 80px;"">+ 10 points</p>","null","html-keyboard-response","113","953744","0.0-11.0-2.112","59107abbfe518b00016bce9f","c0j65l","MFC","63","F","{""name"":""Chrome"",""chrome"":true,""version"":""106.0"",""blink"":true,""windows"":true,""osname"":""Windows"",""osversion"":""10"",""a"":true}","9:10:11","1","4","Test_2","70","f","1","685.4000000059605","1920 x 1080","1920 x 1080","true","1","10","","","","",""
"null","<p style=""font-size: 80px;"">+ 10 points</p>","null","html-keyboard-response","114","957301","0.0-11.0-2.113","59107abbfe518b00016bce9f","c0j65l","MFC","63","F","{""name"":""Chrome"",""chrome"":true,""version"":""106.0"",""blink"":true,""windows"":true,""osname"":""Windows"",""osversion"":""10"",""a"":true}","9:10:11","1","4","Test_4","70","f","1","1546.0999999940395","1920 x 1080","1920 x 1080","true","1","10","","","","",""
"null","<p style=""font-size: 80px;"">+ 10 points</p>","null","html-keyboard-response","115","960261","0.0-11.0-2.114","59107abbfe518b00016bce9f","c0j65l","MFC","63","F","{""name"":""Chrome"",""chrome"":true,""version"":""106.0"",""blink"":true,""windows"":true,""osname"":""Windows"",""osversion"":""10"",""a"":true}","9:10:11","1","4","Test_3","74","j","1","942","1920 x 1080","1920 x 1080","true","1","10","","","","",""
"null","<p style=""font-size: 80px;"">+ 0 points</p>","null","html-keyboard-response","116","963269","0.0-11.0-2.115","59107abbfe518b00016bce9f","c0j65l","MFC","63","F","{""name"":""Chrome"",""chrome"":true,""version"":""106.0"",""blink"":true,""windows"":true,""osname"":""Windows"",""osversion"":""10"",""a"":true}","9:10:11","1","3","Test_3","74","f","0","997.4000000059605","1920 x 1080","1920 x 1080","true","1","0","","","","",""
"null","<p style=""font-size: 80px;"">+ 10 points</p>","null","html-keyboard-response","117","966609","0.0-11.0-2.116","59107abbfe518b00016bce9f","c0j65l","MFC","63","F","{""name"":""Chrome"",""chrome"":true,""version"":""106.0"",""blink"":true,""windows"":true,""osname"":""Windows"",""osversion"":""10"",""a"":true}","9:10:11","1","3","Test_1","70","f","1","1325.4000000059605","1920 x 1080","1920 x 1080","true","1","10","","","","",""
"null","<p style=""font-size: 80px;"">+ 10 points</p>","null","html-keyboard-response","118","970518","0.0-11.0-2.117","59107abbfe518b00016bce9f","c0j65l","MFC","63","F","{""name"":""Chrome"",""chrome"":true,""version"":""106.0"",""blink"":true,""windows"":true,""osname"":""Windows"",""osversion"":""10"",""a"":true}","9:10:11","1","3","Test_4","74","j","1","1889.7999999970198","1920 x 1080","1920 x 1080","true","1","10","","","","",""
"null","<p style=""font-size: 80px;"">+ 10 points</p>","null","html-keyboard-response","119","973410","0.0-11.0-2.118","59107abbfe518b00016bce9f","c0j65l","MFC","63","F","{""name"":""Chrome"",""chrome"":true,""version"":""106.0"",""blink"":true,""windows"":true,""osname"":""Windows"",""osversion"":""10"",""a"":true}","9:10:11","1","3","Test_3","70","f","1","876.8999999910593","1920 x 1080","1920 x 1080","true","1","10","","","","",""
"null","<p style=""font-size: 80px;"">+ 10 points</p>","null","html-keyboard-response","120","976772","0.0-11.0-2.119","59107abbfe518b00016bce9f","c0j65l","MFC","63","F","{""name"":""Chrome"",""chrome"":true,""version"":""106.0"",""blink"":true,""windows"":true,""osname"":""Windows"",""osversion"":""10"",""a"":true}","9:10:11","1","3","Test_1","70","f","1","1344.7000000029802","1920 x 1080","1920 x 1080","true","1","10","","","","",""
"null","<p style=""font-size: 80px;"">+ 10 points</p>","null","html-keyboard-response","121","979942","0.0-11.0-2.120","59107abbfe518b00016bce9f","c0j65l","MFC","63","F","{""name"":""Chrome"",""chrome"":true,""version"":""106.0"",""blink"":true,""windows"":true,""osname"":""Windows"",""osversion"":""10"",""a"":true}","9:10:11","1","3","Test_4","74","j","1","1158.9000000059605","1920 x 1080","1920 x 1080","true","1","10","","","","",""
"null","<p style=""font-size: 80px;"">+ 10 points</p>","null","html-keyboard-response","122","983420","0.0-11.0-2.121","59107abbfe518b00016bce9f","c0j65l","MFC","63","F","{""name"":""Chrome"",""chrome"":true,""version"":""106.0"",""blink"":true,""windows"":true,""osname"":""Windows"",""osversion"":""10"",""a"":true}","9:10:11","1","3","Test_4","74","j","1","1460.5","1920 x 1080","1920 x 1080","true","1","10","","","","",""
"null","<p style=""font-size: 80px;"">+ 10 points</p>","null","html-keyboard-response","123","986845","0.0-11.0-2.122","59107abbfe518b00016bce9f","c0j65l","MFC","63","F","{""name"":""Chrome"",""chrome"":true,""version"":""106.0"",""blink"":true,""windows"":true,""osname"":""Windows"",""osversion"":""10"",""a"":true}","9:10:11","1","3","Test_4","74","j","1","1407.300000011921","1920 x 1080","1920 x 1080","true","1","10","","","","",""
"null","<p style=""font-size: 80px;"">+ 10 points</p>","null","html-keyboard-response","124","989905","0.0-11.0-2.123","59107abbfe518b00016bce9f","c0j65l","MFC","63","F","{""name"":""Chrome"",""chrome"":true,""version"":""106.0"",""blink"":true,""windows"":true,""osname"":""Windows"",""osversion"":""10"",""a"":true}","9:10:11","1","3","Test_2","74","j","1","1046.3999999910593","1920 x 1080","1920 x 1080","true","1","10","","","","",""
"null","<p style=""font-size: 80px;"">+ 10 points</p>","null","html-keyboard-response","125","993191","0.0-11.0-2.124","59107abbfe518b00016bce9f","c0j65l","MFC","63","F","{""name"":""Chrome"",""chrome"":true,""version"":""106.0"",""blink"":true,""windows"":true,""osname"":""Windows"",""osversion"":""10"",""a"":true}","9:10:11","1","3","Test_2","74","j","1","1265.7000000029802","1920 x 1080","1920 x 1080","true","1","10","","","","",""
"null","<p style=""font-size: 80px;"">+ 10 points</p>","null","html-keyboard-response","126","996453","0.0-11.0-2.125","59107abbfe518b00016bce9f","c0j65l","MFC","63","F","{""name"":""Chrome"",""chrome"":true,""version"":""106.0"",""blink"":true,""windows"":true,""osname"":""Windows"",""osversion"":""10"",""a"":true}","9:10:11","1","3","Test_3","70","f","1","1244.2999999970198","1920 x 1080","1920 x 1080","true","1","10","","","","",""
"null","<p style=""font-size: 80px;"">+ 10 points</p>","null","html-keyboard-response","127","1000709","0.0-11.0-2.126","59107abbfe518b00016bce9f","c0j65l","MFC","63","F","{""name"":""Chrome"",""chrome"":true,""version"":""106.0"",""blink"":true,""windows"":true,""osname"":""Windows"",""osversion"":""10"",""a"":true}","9:10:11","1","3","Test_1","70","f","1","2237.8999999910593","1920 x 1080","1920 x 1080","true","1","10","","","","",""
"null","<p style=""font-size: 80px;"">+ 10 points</p>","null","html-keyboard-response","128","1003780","0.0-11.0-2.127","59107abbfe518b00016bce9f","c0j65l","MFC","63","F","{""name"":""Chrome"",""chrome"":true,""version"":""106.0"",""blink"":true,""windows"":true,""osname"":""Windows"",""osversion"":""10"",""a"":true}","9:10:11","1","3","Test_3","70","f","1","1044.2999999970198","1920 x 1080","1920 x 1080","true","1","10","","","","",""
"null","<p style=""font-size: 80px;"">+ 10 points</p>","null","html-keyboard-response","129","1007409","0.0-11.0-2.128","59107abbfe518b00016bce9f","c0j65l","MFC","63","F","{""name"":""Chrome"",""chrome"":true,""version"":""106.0"",""blink"":true,""windows"":true,""osname"":""Windows"",""osversion"":""10"",""a"":true}","9:10:11","1","3","Test_1","70","f","1","1611.2999999970198","1920 x 1080","1920 x 1080","true","1","10","","","","",""
"null","<p style=""font-size: 80px;"">+ 10 points</p>","null","html-keyboard-response","130","1010669","0.0-11.0-2.129","59107abbfe518b00016bce9f","c0j65l","MFC","63","F","{""name"":""Chrome"",""chrome"":true,""version"":""106.0"",""blink"":true,""windows"":true,""osname"":""Windows"",""osversion"":""10"",""a"":true}","9:10:11","1","3","Test_4","74","j","1","1235.2999999970198","1920 x 1080","1920 x 1080","true","1","10","","","","",""
"null","<p style=""font-size: 80px;"">+ 10 points</p>","null","html-keyboard-response","131","1013740","0.0-11.0-2.130","59107abbfe518b00016bce9f","c0j65l","MFC","63","F","{""name"":""Chrome"",""chrome"":true,""version"":""106.0"",""blink"":true,""windows"":true,""osname"":""Windows"",""osversion"":""10"",""a"":true}","9:10:11","1","3","Test_2","74","j","1","1063.0999999940395","1920 x 1080","1920 x 1080","true","1","10","","","","",""
"null","<p style=""font-size: 80px;"">+ 10 points</p>","null","html-keyboard-response","132","1016532","0.0-11.0-2.131","59107abbfe518b00016bce9f","c0j65l","MFC","63","F","{""name"":""Chrome"",""chrome"":true,""version"":""106.0"",""blink"":true,""windows"":true,""osname"":""Windows"",""osversion"":""10"",""a"":true}","9:10:11","1","3","Test_2","74","j","1","775.7000000029802","1920 x 1080","1920 x 1080","true","1","10","","","","",""
"null","<p style=""font-size: 80px;"">+ 10 points</p>","null","html-keyboard-response","133","1019558","0.0-11.0-2.132","59107abbfe518b00016bce9f","c0j65l","MFC","63","F","{""name"":""Chrome"",""chrome"":true,""version"":""106.0"",""blink"":true,""windows"":true,""osname"":""Windows"",""osversion"":""10"",""a"":true}","9:10:11","1","3","Test_3","70","f","1","1007.7999999970198","1920 x 1080","1920 x 1080","true","1","10","","","","",""
"null","<p style=""font-size: 80px;"">+ 10 points</p>","null","html-keyboard-response","134","1022716","0.0-11.0-2.133","59107abbfe518b00016bce9f","c0j65l","MFC","63","F","{""name"":""Chrome"",""chrome"":true,""version"":""106.0"",""blink"":true,""windows"":true,""osname"":""Windows"",""osversion"":""10"",""a"":true}","9:10:11","1","3","Test_2","74","j","1","1130","1920 x 1080","1920 x 1080","true","1","10","","","","",""
"null","<p style=""font-size: 80px;"">+ 10 points</p>","null","html-keyboard-response","135","1026025","0.0-11.0-2.134","59107abbfe518b00016bce9f","c0j65l","MFC","63","F","{""name"":""Chrome"",""chrome"":true,""version"":""106.0"",""blink"":true,""windows"":true,""osname"":""Windows"",""osversion"":""10"",""a"":true}","9:10:11","1","3","Test_1","70","f","1","1295.1000000089407","1920 x 1080","1920 x 1080","true","1","10","","","","",""
"null","<p style=""font-size: 80px;"">+ 0 points</p>","null","html-keyboard-response","136","1029418","0.0-11.0-2.135","59107abbfe518b00016bce9f","c0j65l","MFC","63","F","{""name"":""Chrome"",""chrome"":true,""version"":""106.0"",""blink"":true,""windows"":true,""osname"":""Windows"",""osversion"":""10"",""a"":true}","9:10:11","1","4","Test_3","70","j","0","1378.7999999970198","1920 x 1080","1920 x 1080","true","1","0","","","","",""
"null","<p style=""font-size: 80px;"">+ 10 points</p>","null","html-keyboard-response","137","1032883","0.0-11.0-2.136","59107abbfe518b00016bce9f","c0j65l","MFC","63","F","{""name"":""Chrome"",""chrome"":true,""version"":""106.0"",""blink"":true,""windows"":true,""osname"":""Windows"",""osversion"":""10"",""a"":true}","9:10:11","1","4","Test_2","70","f","1","1450","1920 x 1080","1920 x 1080","true","1","10","","","","",""
"null","<p style=""font-size: 80px;"">+ 10 points</p>","null","html-keyboard-response","138","1036091","0.0-11.0-2.137","59107abbfe518b00016bce9f","c0j65l","MFC","63","F","{""name"":""Chrome"",""chrome"":true,""version"":""106.0"",""blink"":true,""windows"":true,""osname"":""Windows"",""osversion"":""10"",""a"":true}","9:10:11","1","4","Test_3","74","j","1","1193.800000011921","1920 x 1080","1920 x 1080","true","1","10","","","","",""
"null","<p style=""font-size: 80px;"">+ 10 points</p>","null","html-keyboard-response","139","1039098","0.0-11.0-2.138","59107abbfe518b00016bce9f","c0j65l","MFC","63","F","{""name"":""Chrome"",""chrome"":true,""version"":""106.0"",""blink"":true,""windows"":true,""osname"":""Windows"",""osversion"":""10"",""a"":true}","9:10:11","1","4","Test_3","74","j","1","1001.4000000059605","1920 x 1080","1920 x 1080","true","1","10","","","","",""
"null","<p style=""font-size: 80px;"">+ 10 points</p>","null","html-keyboard-response","140","1042237","0.0-11.0-2.139","59107abbfe518b00016bce9f","c0j65l","MFC","63","F","{""name"":""Chrome"",""chrome"":true,""version"":""106.0"",""blink"":true,""windows"":true,""osname"":""Windows"",""osversion"":""10"",""a"":true}","9:10:11","1","4","Test_4","70","f","1","1121.9000000059605","1920 x 1080","1920 x 1080","true","1","10","","","","",""
"null","<p style=""font-size: 80px;"">+ 10 points</p>","null","html-keyboard-response","141","1045483","0.0-11.0-2.140","59107abbfe518b00016bce9f","c0j65l","MFC","63","F","{""name"":""Chrome"",""chrome"":true,""version"":""106.0"",""blink"":true,""windows"":true,""osname"":""Windows"",""osversion"":""10"",""a"":true}","9:10:11","1","4","Test_4","70","f","1","1238.9000000059605","1920 x 1080","1920 x 1080","true","1","10","","","","",""
"null","<p style=""font-size: 80px;"">+ 10 points</p>","null","html-keyboard-response","142","1049839","0.0-11.0-2.141","59107abbfe518b00016bce9f","c0j65l","MFC","63","F","{""name"":""Chrome"",""chrome"":true,""version"":""106.0"",""blink"":true,""windows"":true,""osname"":""Windows"",""osversion"":""10"",""a"":true}","9:10:11","1","4","Test_1","74","j","1","2345.800000011921","1920 x 1080","1920 x 1080","true","1","10","","","","",""
"null","<p style=""font-size: 80px;"">+ 10 points</p>","null","html-keyboard-response","143","1053116","0.0-11.0-2.142","59107abbfe518b00016bce9f","c0j65l","MFC","63","F","{""name"":""Chrome"",""chrome"":true,""version"":""106.0"",""blink"":true,""windows"":true,""osname"":""Windows"",""osversion"":""10"",""a"":true}","9:10:11","1","4","Test_3","74","j","1","1261.0999999940395","1920 x 1080","1920 x 1080","true","1","10","","","","",""
"null","<p style=""font-size: 80px;"">+ 10 points</p>","null","html-keyboard-response","144","1056055","0.0-11.0-2.143","59107abbfe518b00016bce9f","c0j65l","MFC","63","F","{""name"":""Chrome"",""chrome"":true,""version"":""106.0"",""blink"":true,""windows"":true,""osname"":""Windows"",""osversion"":""10"",""a"":true}","9:10:11","1","4","Test_3","74","j","1","928","1920 x 1080","1920 x 1080","true","1","10","","","","",""
"null","<p style=""font-size: 80px;"">+ 10 points</p>","null","html-keyboard-response","145","1059046","0.0-11.0-2.144","59107abbfe518b00016bce9f","c0j65l","MFC","63","F","{""name"":""Chrome"",""chrome"":true,""version"":""106.0"",""blink"":true,""windows"":true,""osname"":""Windows"",""osversion"":""10"",""a"":true}","9:10:11","1","4","Test_2","70","f","1","981.5","1920 x 1080","1920 x 1080","true","1","10","","","","",""
