"rt","stimulus","key_press","trial_type","trial_index","time_elapsed","internal_node_id","Prolific_ID","random_ID","initials","age","gender","pc_info","start_time","Phase","Rule","Stimulus","Response","CorrResp","Accuracy","ResponseTime","screen_resolution","window_resolution","focus","relevant","Points","responses","question_order","rev_check","butterfly_check","passed_practice"
"null","<p style=""font-size: 80px;"">+ 0 points</p>","null","html-keyboard-response","1","96724","0.0-7.0-2.0","6152dd451286015f403f1455","j2n3sf","RS","42","M","{""name"":""Safari"",""safari"":true,""version"":""16.1"",""webkit"":true,""mac"":true,""osname"":""macOS"",""osversion"":""10.15.7"",""a"":true}","9:19:27","0","1","Practice_4","70","j","0","1170","1920 x 1080","1920 x 1080","true","1","0","","","","",""
"null","<p style=""font-size: 80px;"">+ 10 points</p>","null","html-keyboard-response","2","100307","0.0-7.0-2.1","6152dd451286015f403f1455","j2n3sf","RS","42","M","{""name"":""Safari"",""safari"":true,""version"":""16.1"",""webkit"":true,""mac"":true,""osname"":""macOS"",""osversion"":""10.15.7"",""a"":true}","9:19:27","0","1","Practice_3","70","f","1","1574","1920 x 1080","1920 x 1080","true","1","10","","","","",""
"null","<p style=""font-size: 80px;"">+ 0 points</p>","null","html-keyboard-response","3","102915","0.0-7.0-2.2","6152dd451286015f403f1455","j2n3sf","RS","42","M","{""name"":""Safari"",""safari"":true,""version"":""16.1"",""webkit"":true,""mac"":true,""osname"":""macOS"",""osversion"":""10.15.7"",""a"":true}","9:19:27","0","1","Practice_1","74","f","0","599","1920 x 1080","1920 x 1080","true","1","0","","","","",""
"null","<p style=""font-size: 80px;"">+ 10 points</p>","null","html-keyboard-response","4","106531","0.0-7.0-2.3","6152dd451286015f403f1455","j2n3sf","RS","42","M","{""name"":""Safari"",""safari"":true,""version"":""16.1"",""webkit"":true,""mac"":true,""osname"":""macOS"",""osversion"":""10.15.7"",""a"":true}","9:19:27","0","1","Practice_2","74","j","1","1607","1920 x 1080","1920 x 1080","true","1","10","","","","",""
"null","<p style=""font-size: 80px;"">+ 10 points</p>","null","html-keyboard-response","5","109346","0.0-7.0-2.4","6152dd451286015f403f1455","j2n3sf","RS","42","M","{""name"":""Safari"",""safari"":true,""version"":""16.1"",""webkit"":true,""mac"":true,""osname"":""macOS"",""osversion"":""10.15.7"",""a"":true}","9:19:27","0","1","Practice_1","70","f","1","808.0000000000146","1920 x 1080","1920 x 1080","true","1","10","","","","",""
"null","<p style=""font-size: 80px;"">+ 10 points</p>","null","html-keyboard-response","6","112275","0.0-7.0-2.5","6152dd451286015f403f1455","j2n3sf","RS","42","M","{""name"":""Safari"",""safari"":true,""version"":""16.1"",""webkit"":true,""mac"":true,""osname"":""macOS"",""osversion"":""10.15.7"",""a"":true}","9:19:27","0","1","Practice_2","74","j","1","921","1920 x 1080","1920 x 1080","true","1","10","","","","",""
"null","<p style=""font-size: 80px;"">+ 10 points</p>","null","html-keyboard-response","7","116291","0.0-7.0-2.6","6152dd451286015f403f1455","j2n3sf","RS","42","M","{""name"":""Safari"",""safari"":true,""version"":""16.1"",""webkit"":true,""mac"":true,""osname"":""macOS"",""osversion"":""10.15.7"",""a"":true}","9:19:27","0","1","Practice_3","70","f","1","2008","1920 x 1080","1920 x 1080","true","1","10","","","","",""
"null","<p style=""font-size: 80px;"">+ 10 points</p>","null","html-keyboard-response","8","119091","0.0-7.0-2.7","6152dd451286015f403f1455","j2n3sf","RS","42","M","{""name"":""Safari"",""safari"":true,""version"":""16.1"",""webkit"":true,""mac"":true,""osname"":""macOS"",""osversion"":""10.15.7"",""a"":true}","9:19:27","0","1","Practice_4","74","j","1","793","1920 x 1080","1920 x 1080","true","1","10","","","","",""
"null","<p style=""font-size: 80px;"">+ 10 points</p>","null","html-keyboard-response","9","123011","0.0-7.0-2.8","6152dd451286015f403f1455","j2n3sf","RS","42","M","{""name"":""Safari"",""safari"":true,""version"":""16.1"",""webkit"":true,""mac"":true,""osname"":""macOS"",""osversion"":""10.15.7"",""a"":true}","9:19:27","0","1","Practice_4","74","j","1","1913","1920 x 1080","1920 x 1080","true","1","10","","","","",""
"null","<p style=""font-size: 80px;"">+ 10 points</p>","null","html-keyboard-response","10","126243","0.0-7.0-2.9","6152dd451286015f403f1455","j2n3sf","RS","42","M","{""name"":""Safari"",""safari"":true,""version"":""16.1"",""webkit"":true,""mac"":true,""osname"":""macOS"",""osversion"":""10.15.7"",""a"":true}","9:19:27","0","1","Practice_1","70","f","1","1225","1920 x 1080","1920 x 1080","true","1","10","","","","",""
"null","<p style=""font-size: 80px;"">+ 10 points</p>","null","html-keyboard-response","11","129475","0.0-7.0-2.10","6152dd451286015f403f1455","j2n3sf","RS","42","M","{""name"":""Safari"",""safari"":true,""version"":""16.1"",""webkit"":true,""mac"":true,""osname"":""macOS"",""osversion"":""10.15.7"",""a"":true}","9:19:27","0","1","Practice_3","70","f","1","1223.9999999999854","1920 x 1080","1920 x 1080","true","1","10","","","","",""
"null","<p style=""font-size: 80px;"">+ 10 points</p>","null","html-keyboard-response","12","132639","0.0-7.0-2.11","6152dd451286015f403f1455","j2n3sf","RS","42","M","{""name"":""Safari"",""safari"":true,""version"":""16.1"",""webkit"":true,""mac"":true,""osname"":""macOS"",""osversion"":""10.15.7"",""a"":true}","9:19:27","0","1","Practice_1","70","f","1","1160","1920 x 1080","1920 x 1080","true","1","10","","","","",""
"null","<p style=""font-size: 80px;"">+ 10 points</p>","null","html-keyboard-response","13","136243","0.0-7.0-2.12","6152dd451286015f403f1455","j2n3sf","RS","42","M","{""name"":""Safari"",""safari"":true,""version"":""16.1"",""webkit"":true,""mac"":true,""osname"":""macOS"",""osversion"":""10.15.7"",""a"":true}","9:19:27","0","1","Practice_3","70","f","1","1597","1920 x 1080","1920 x 1080","true","1","10","","","","",""
"null","<p style=""font-size: 80px;"">+ 10 points</p>","null","html-keyboard-response","14","139714","0.0-7.0-2.13","6152dd451286015f403f1455","j2n3sf","RS","42","M","{""name"":""Safari"",""safari"":true,""version"":""16.1"",""webkit"":true,""mac"":true,""osname"":""macOS"",""osversion"":""10.15.7"",""a"":true}","9:19:27","0","1","Practice_2","74","j","1","1464","1920 x 1080","1920 x 1080","true","1","10","","","","",""
"null","<p style=""font-size: 80px;"">+ 10 points</p>","null","html-keyboard-response","15","142853","0.0-7.0-2.14","6152dd451286015f403f1455","j2n3sf","RS","42","M","{""name"":""Safari"",""safari"":true,""version"":""16.1"",""webkit"":true,""mac"":true,""osname"":""macOS"",""osversion"":""10.15.7"",""a"":true}","9:19:27","0","1","Practice_3","70","f","1","1128","1920 x 1080","1920 x 1080","true","1","10","","","","",""
"null","<p style=""font-size: 80px;"">+ 10 points</p>","null","html-keyboard-response","16","145524","0.0-7.0-2.15","6152dd451286015f403f1455","j2n3sf","RS","42","M","{""name"":""Safari"",""safari"":true,""version"":""16.1"",""webkit"":true,""mac"":true,""osname"":""macOS"",""osversion"":""10.15.7"",""a"":true}","9:19:27","0","1","Practice_4","74","j","1","661","1920 x 1080","1920 x 1080","true","1","10","","","","",""
"null","<p style=""font-size: 80px;"">+ 10 points</p>","null","html-keyboard-response","17","148707","0.0-7.0-2.16","6152dd451286015f403f1455","j2n3sf","RS","42","M","{""name"":""Safari"",""safari"":true,""version"":""16.1"",""webkit"":true,""mac"":true,""osname"":""macOS"",""osversion"":""10.15.7"",""a"":true}","9:19:27","0","1","Practice_4","74","j","1","1175.999999999971","1920 x 1080","1920 x 1080","true","1","10","","","","",""
"null","<p style=""font-size: 80px;"">+ 10 points</p>","null","html-keyboard-response","18","152291","0.0-7.0-2.17","6152dd451286015f403f1455","j2n3sf","RS","42","M","{""name"":""Safari"",""safari"":true,""version"":""16.1"",""webkit"":true,""mac"":true,""osname"":""macOS"",""osversion"":""10.15.7"",""a"":true}","9:19:27","0","1","Practice_2","74","j","1","1577","1920 x 1080","1920 x 1080","true","1","10","","","","",""
"null","<p style=""font-size: 80px;"">+ 10 points</p>","null","html-keyboard-response","19","156036","0.0-7.0-2.18","6152dd451286015f403f1455","j2n3sf","RS","42","M","{""name"":""Safari"",""safari"":true,""version"":""16.1"",""webkit"":true,""mac"":true,""osname"":""macOS"",""osversion"":""10.15.7"",""a"":true}","9:19:27","0","1","Practice_2","74","j","1","1737","1920 x 1080","1920 x 1080","true","1","10","","","","",""
"null","<p style=""font-size: 80px;"">+ 10 points</p>","null","html-keyboard-response","20","158883","0.0-7.0-2.19","6152dd451286015f403f1455","j2n3sf","RS","42","M","{""name"":""Safari"",""safari"":true,""version"":""16.1"",""webkit"":true,""mac"":true,""osname"":""macOS"",""osversion"":""10.15.7"",""a"":true}","9:19:27","0","1","Practice_1","70","f","1","839.9999999999709","1920 x 1080","1920 x 1080","true","1","10","","","","",""
"null","<p style=""font-size: 80px;"">+ 0 points</p>","null","html-keyboard-response","21","162003","0.0-7.0-2.20","6152dd451286015f403f1455","j2n3sf","RS","42","M","{""name"":""Safari"",""safari"":true,""version"":""16.1"",""webkit"":true,""mac"":true,""osname"":""macOS"",""osversion"":""10.15.7"",""a"":true}","9:19:27","0","2","Practice_3","70","j","0","1113","1920 x 1080","1920 x 1080","true","1","0","","","","",""
"null","<p style=""font-size: 80px;"">+ 10 points</p>","null","html-keyboard-response","22","165187","0.0-7.0-2.21","6152dd451286015f403f1455","j2n3sf","RS","42","M","{""name"":""Safari"",""safari"":true,""version"":""16.1"",""webkit"":true,""mac"":true,""osname"":""macOS"",""osversion"":""10.15.7"",""a"":true}","9:19:27","0","2","Practice_4","70","f","1","1177","1920 x 1080","1920 x 1080","true","1","10","","","","",""
"null","<p style=""font-size: 80px;"">+ 10 points</p>","null","html-keyboard-response","23","167923","0.0-7.0-2.22","6152dd451286015f403f1455","j2n3sf","RS","42","M","{""name"":""Safari"",""safari"":true,""version"":""16.1"",""webkit"":true,""mac"":true,""osname"":""macOS"",""osversion"":""10.15.7"",""a"":true}","9:19:27","0","2","Practice_3","74","j","1","729","1920 x 1080","1920 x 1080","true","1","10","","","","",""
"null","<p style=""font-size: 80px;"">+ 10 points</p>","null","html-keyboard-response","24","172307","0.0-7.0-2.23","6152dd451286015f403f1455","j2n3sf","RS","42","M","{""name"":""Safari"",""safari"":true,""version"":""16.1"",""webkit"":true,""mac"":true,""osname"":""macOS"",""osversion"":""10.15.7"",""a"":true}","9:19:27","0","2","Practice_4","70","f","1","2376.999999999971","1920 x 1080","1920 x 1080","true","1","10","","","","",""
"null","<p style=""font-size: 80px;"">+ 10 points</p>","null","html-keyboard-response","25","175731","0.0-7.0-2.24","6152dd451286015f403f1455","j2n3sf","RS","42","M","{""name"":""Safari"",""safari"":true,""version"":""16.1"",""webkit"":true,""mac"":true,""osname"":""macOS"",""osversion"":""10.15.7"",""a"":true}","9:19:27","0","2","Practice_4","70","f","1","1417","1920 x 1080","1920 x 1080","true","1","10","","","","",""
"null","<p style=""font-size: 80px;"">+ 10 points</p>","null","html-keyboard-response","26","179525","0.0-7.0-2.25","6152dd451286015f403f1455","j2n3sf","RS","42","M","{""name"":""Safari"",""safari"":true,""version"":""16.1"",""webkit"":true,""mac"":true,""osname"":""macOS"",""osversion"":""10.15.7"",""a"":true}","9:19:27","0","2","Practice_2","70","f","1","1784","1920 x 1080","1920 x 1080","true","1","10","","","","",""
"null","<p style=""font-size: 80px;"">+ 10 points</p>","null","html-keyboard-response","27","182673","0.0-7.0-2.26","6152dd451286015f403f1455","j2n3sf","RS","42","M","{""name"":""Safari"",""safari"":true,""version"":""16.1"",""webkit"":true,""mac"":true,""osname"":""macOS"",""osversion"":""10.15.7"",""a"":true}","9:19:27","0","2","Practice_4","70","f","1","1140","1920 x 1080","1920 x 1080","true","1","10","","","","",""
"null","<p style=""font-size: 80px;"">+ 10 points</p>","null","html-keyboard-response","28","187124","0.0-7.0-2.27","6152dd451286015f403f1455","j2n3sf","RS","42","M","{""name"":""Safari"",""safari"":true,""version"":""16.1"",""webkit"":true,""mac"":true,""osname"":""macOS"",""osversion"":""10.15.7"",""a"":true}","9:19:27","0","2","Practice_2","70","f","1","2442","1920 x 1080","1920 x 1080","true","1","10","","","","",""
"null","<p style=""font-size: 80px;"">+ 0 points</p>","null","html-keyboard-response","29","190644","0.0-7.0-2.28","6152dd451286015f403f1455","j2n3sf","RS","42","M","{""name"":""Safari"",""safari"":true,""version"":""16.1"",""webkit"":true,""mac"":true,""osname"":""macOS"",""osversion"":""10.15.7"",""a"":true}","9:19:27","0","2","Practice_3","70","j","0","1512","1920 x 1080","1920 x 1080","true","1","0","","","","",""
"null","<p style=""font-size: 80px;"">+ 10 points</p>","null","html-keyboard-response","30","193988","0.0-7.0-2.29","6152dd451286015f403f1455","j2n3sf","RS","42","M","{""name"":""Safari"",""safari"":true,""version"":""16.1"",""webkit"":true,""mac"":true,""osname"":""macOS"",""osversion"":""10.15.7"",""a"":true}","9:19:27","0","2","Practice_2","70","f","1","1335","1920 x 1080","1920 x 1080","true","1","10","","","","",""
"null","<p style=""font-size: 80px;"">+ 10 points</p>","null","html-keyboard-response","31","197348","0.0-7.0-2.30","6152dd451286015f403f1455","j2n3sf","RS","42","M","{""name"":""Safari"",""safari"":true,""version"":""16.1"",""webkit"":true,""mac"":true,""osname"":""macOS"",""osversion"":""10.15.7"",""a"":true}","9:19:27","0","2","Practice_2","70","f","1","1353","1920 x 1080","1920 x 1080","true","1","10","","","","",""
"null","<p style=""font-size: 80px;"">+ 10 points</p>","null","html-keyboard-response","32","200390","0.0-7.0-2.31","6152dd451286015f403f1455","j2n3sf","RS","42","M","{""name"":""Safari"",""safari"":true,""version"":""16.1"",""webkit"":true,""mac"":true,""osname"":""macOS"",""osversion"":""10.15.7"",""a"":true}","9:19:27","0","2","Practice_3","74","j","1","1029","1920 x 1080","1920 x 1080","true","1","10","","","","",""
"null","<p style=""font-size: 80px;"">+ 10 points</p>","null","html-keyboard-response","33","203167","0.0-7.0-2.32","6152dd451286015f403f1455","j2n3sf","RS","42","M","{""name"":""Safari"",""safari"":true,""version"":""16.1"",""webkit"":true,""mac"":true,""osname"":""macOS"",""osversion"":""10.15.7"",""a"":true}","9:19:27","0","2","Practice_4","70","f","1","770.0000000000291","1920 x 1080","1920 x 1080","true","1","10","","","","",""
"null","<p style=""font-size: 80px;"">+ 10 points</p>","null","html-keyboard-response","34","205908","0.0-7.0-2.33","6152dd451286015f403f1455","j2n3sf","RS","42","M","{""name"":""Safari"",""safari"":true,""version"":""16.1"",""webkit"":true,""mac"":true,""osname"":""macOS"",""osversion"":""10.15.7"",""a"":true}","9:19:27","0","2","Practice_1","74","j","1","733","1920 x 1080","1920 x 1080","true","1","10","","","","",""
"null","<p style=""font-size: 80px;"">+ 10 points</p>","null","html-keyboard-response","35","209780","0.0-7.0-2.34","6152dd451286015f403f1455","j2n3sf","RS","42","M","{""name"":""Safari"",""safari"":true,""version"":""16.1"",""webkit"":true,""mac"":true,""osname"":""macOS"",""osversion"":""10.15.7"",""a"":true}","9:19:27","0","2","Practice_1","74","j","1","1864","1920 x 1080","1920 x 1080","true","1","10","","","","",""
"null","<p style=""font-size: 80px;"">+ 10 points</p>","null","html-keyboard-response","36","212997","0.0-7.0-2.35","6152dd451286015f403f1455","j2n3sf","RS","42","M","{""name"":""Safari"",""safari"":true,""version"":""16.1"",""webkit"":true,""mac"":true,""osname"":""macOS"",""osversion"":""10.15.7"",""a"":true}","9:19:27","0","2","Practice_1","74","j","1","1209","1920 x 1080","1920 x 1080","true","1","10","","","","",""
"null","<p style=""font-size: 80px;"">+ 10 points</p>","null","html-keyboard-response","37","217236","0.0-7.0-2.36","6152dd451286015f403f1455","j2n3sf","RS","42","M","{""name"":""Safari"",""safari"":true,""version"":""16.1"",""webkit"":true,""mac"":true,""osname"":""macOS"",""osversion"":""10.15.7"",""a"":true}","9:19:27","0","2","Practice_2","70","f","1","2231","1920 x 1080","1920 x 1080","true","1","10","","","","",""
"null","<p style=""font-size: 80px;"">+ 10 points</p>","null","html-keyboard-response","38","220260","0.0-7.0-2.37","6152dd451286015f403f1455","j2n3sf","RS","42","M","{""name"":""Safari"",""safari"":true,""version"":""16.1"",""webkit"":true,""mac"":true,""osname"":""macOS"",""osversion"":""10.15.7"",""a"":true}","9:19:27","0","2","Practice_1","74","j","1","1017","1920 x 1080","1920 x 1080","true","1","10","","","","",""
"null","<p style=""font-size: 80px;"">+ 10 points</p>","null","html-keyboard-response","39","223905","0.0-7.0-2.38","6152dd451286015f403f1455","j2n3sf","RS","42","M","{""name"":""Safari"",""safari"":true,""version"":""16.1"",""webkit"":true,""mac"":true,""osname"":""macOS"",""osversion"":""10.15.7"",""a"":true}","9:19:27","0","2","Practice_3","74","j","1","1639.000000000029","1920 x 1080","1920 x 1080","true","1","10","","","","",""
"null","<p style=""font-size: 80px;"">+ 0 points</p>","null","html-keyboard-response","40","227076","0.0-7.0-2.39","6152dd451286015f403f1455","j2n3sf","RS","42","M","{""name"":""Safari"",""safari"":true,""version"":""16.1"",""webkit"":true,""mac"":true,""osname"":""macOS"",""osversion"":""10.15.7"",""a"":true}","9:19:27","0","2","Practice_1","70","j","0","1163","1920 x 1080","1920 x 1080","true","1","0","","","","",""
"14996.00000000003","","","survey-multi-choice","127","242076","0.0-8.0","6152dd451286015f403f1455","j2n3sf","RS","42","M","{""name"":""Safari"",""safari"":true,""version"":""16.1"",""webkit"":true,""mac"":true,""osname"":""macOS"",""osversion"":""10.15.7"",""a"":true}","9:19:27","","","","","","","","","","","1","","{""Q0"":""The green one"",""Q1"":""1""}","[0,1]","1","The green one","1"
"null","<p style=""font-size: 80px;"">+ 0 points</p>","null","html-keyboard-response","1","263220","0.0-9.0-1.0-2.0","6152dd451286015f403f1455","j2n3sf","RS","42","M","{""name"":""Safari"",""safari"":true,""version"":""16.1"",""webkit"":true,""mac"":true,""osname"":""macOS"",""osversion"":""10.15.7"",""a"":true}","9:19:27","0","1","Practice_4","70","j","0","1889.999999999971","1920 x 1080","1920 x 1080","true","1","0","","","","",""
"null","<p style=""font-size: 80px;"">+ 10 points</p>","null","html-keyboard-response","2","266457","0.0-9.0-1.0-2.1","6152dd451286015f403f1455","j2n3sf","RS","42","M","{""name"":""Safari"",""safari"":true,""version"":""16.1"",""webkit"":true,""mac"":true,""osname"":""macOS"",""osversion"":""10.15.7"",""a"":true}","9:19:27","0","1","Practice_3","70","f","1","1225","1920 x 1080","1920 x 1080","true","1","10","","","","",""
"null","<p style=""font-size: 80px;"">+ 0 points</p>","null","html-keyboard-response","3","270102","0.0-9.0-1.0-2.2","6152dd451286015f403f1455","j2n3sf","RS","42","M","{""name"":""Safari"",""safari"":true,""version"":""16.1"",""webkit"":true,""mac"":true,""osname"":""macOS"",""osversion"":""10.15.7"",""a"":true}","9:19:27","0","1","Practice_1","74","f","0","1635","1920 x 1080","1920 x 1080","true","1","0","","","","",""
"null","<p style=""font-size: 80px;"">+ 0 points</p>","null","html-keyboard-response","4","273573","0.0-9.0-1.0-2.3","6152dd451286015f403f1455","j2n3sf","RS","42","M","{""name"":""Safari"",""safari"":true,""version"":""16.1"",""webkit"":true,""mac"":true,""osname"":""macOS"",""osversion"":""10.15.7"",""a"":true}","9:19:27","0","1","Practice_2","70","j","0","1462","1920 x 1080","1920 x 1080","true","1","0","","","","",""
"null","<p style=""font-size: 80px;"">+ 10 points</p>","null","html-keyboard-response","5","277029","0.0-9.0-1.0-2.4","6152dd451286015f403f1455","j2n3sf","RS","42","M","{""name"":""Safari"",""safari"":true,""version"":""16.1"",""webkit"":true,""mac"":true,""osname"":""macOS"",""osversion"":""10.15.7"",""a"":true}","9:19:27","0","1","Practice_1","70","f","1","1448","1920 x 1080","1920 x 1080","true","1","10","","","","",""
"null","<p style=""font-size: 80px;"">+ 10 points</p>","null","html-keyboard-response","6","279829","0.0-9.0-1.0-2.5","6152dd451286015f403f1455","j2n3sf","RS","42","M","{""name"":""Safari"",""safari"":true,""version"":""16.1"",""webkit"":true,""mac"":true,""osname"":""macOS"",""osversion"":""10.15.7"",""a"":true}","9:19:27","0","1","Practice_2","74","j","1","792","1920 x 1080","1920 x 1080","true","1","10","","","","",""
"null","<p style=""font-size: 80px;"">+ 0 points</p>","null","html-keyboard-response","7","283636","0.0-9.0-1.0-2.6","6152dd451286015f403f1455","j2n3sf","RS","42","M","{""name"":""Safari"",""safari"":true,""version"":""16.1"",""webkit"":true,""mac"":true,""osname"":""macOS"",""osversion"":""10.15.7"",""a"":true}","9:19:27","0","1","Practice_3","74","f","0","1801","1920 x 1080","1920 x 1080","true","1","0","","","","",""
"null","<p style=""font-size: 80px;"">+ 10 points</p>","null","html-keyboard-response","8","287092","0.0-9.0-1.0-2.7","6152dd451286015f403f1455","j2n3sf","RS","42","M","{""name"":""Safari"",""safari"":true,""version"":""16.1"",""webkit"":true,""mac"":true,""osname"":""macOS"",""osversion"":""10.15.7"",""a"":true}","9:19:27","0","1","Practice_4","74","j","1","1512","1920 x 1080","1920 x 1080","true","1","10","","","","",""
"null","<p style=""font-size: 80px;"">+ 10 points</p>","null","html-keyboard-response","9","290324","0.0-9.0-1.0-2.8","6152dd451286015f403f1455","j2n3sf","RS","42","M","{""name"":""Safari"",""safari"":true,""version"":""16.1"",""webkit"":true,""mac"":true,""osname"":""macOS"",""osversion"":""10.15.7"",""a"":true}","9:19:27","0","1","Practice_4","74","j","1","1225","1920 x 1080","1920 x 1080","true","1","10","","","","",""
"null","<p style=""font-size: 80px;"">+ 10 points</p>","null","html-keyboard-response","10","293525","0.0-9.0-1.0-2.9","6152dd451286015f403f1455","j2n3sf","RS","42","M","{""name"":""Safari"",""safari"":true,""version"":""16.1"",""webkit"":true,""mac"":true,""osname"":""macOS"",""osversion"":""10.15.7"",""a"":true}","9:19:27","0","1","Practice_1","70","f","1","1194","1920 x 1080","1920 x 1080","true","1","10","","","","",""
"null","<p style=""font-size: 80px;"">+ 10 points</p>","null","html-keyboard-response","11","297669","0.0-9.0-1.0-2.10","6152dd451286015f403f1455","j2n3sf","RS","42","M","{""name"":""Safari"",""safari"":true,""version"":""16.1"",""webkit"":true,""mac"":true,""osname"":""macOS"",""osversion"":""10.15.7"",""a"":true}","9:19:27","0","1","Practice_3","70","f","1","2138","1920 x 1080","1920 x 1080","true","1","10","","","","",""
"null","<p style=""font-size: 80px;"">+ 0 points</p>","null","html-keyboard-response","12","301717","0.0-9.0-1.0-2.11","6152dd451286015f403f1455","j2n3sf","RS","42","M","{""name"":""Safari"",""safari"":true,""version"":""16.1"",""webkit"":true,""mac"":true,""osname"":""macOS"",""osversion"":""10.15.7"",""a"":true}","9:19:27","0","1","Practice_1","74","f","0","2041","1920 x 1080","1920 x 1080","true","1","0","","","","",""
"null","<p style=""font-size: 80px;"">+ 0 points</p>","null","html-keyboard-response","13","306052","0.0-9.0-1.0-2.12","6152dd451286015f403f1455","j2n3sf","RS","42","M","{""name"":""Safari"",""safari"":true,""version"":""16.1"",""webkit"":true,""mac"":true,""osname"":""macOS"",""osversion"":""10.15.7"",""a"":true}","9:19:27","0","1","Practice_3","74","f","0","2327.999999999942","1920 x 1080","1920 x 1080","true","1","0","","","","",""
"null","<p style=""font-size: 80px;"">+ 0 points</p>","null","html-keyboard-response","14","309124","0.0-9.0-1.0-2.13","6152dd451286015f403f1455","j2n3sf","RS","42","M","{""name"":""Safari"",""safari"":true,""version"":""16.1"",""webkit"":true,""mac"":true,""osname"":""macOS"",""osversion"":""10.15.7"",""a"":true}","9:19:27","0","1","Practice_2","70","j","0","1065","1920 x 1080","1920 x 1080","true","1","0","","","","",""
"null","<p style=""font-size: 80px;"">+ 10 points</p>","null","html-keyboard-response","15","312452","0.0-9.0-1.0-2.14","6152dd451286015f403f1455","j2n3sf","RS","42","M","{""name"":""Safari"",""safari"":true,""version"":""16.1"",""webkit"":true,""mac"":true,""osname"":""macOS"",""osversion"":""10.15.7"",""a"":true}","9:19:27","0","1","Practice_3","70","f","1","1321","1920 x 1080","1920 x 1080","true","1","10","","","","",""
"null","<p style=""font-size: 80px;"">+ 10 points</p>","null","html-keyboard-response","16","315380","0.0-9.0-1.0-2.15","6152dd451286015f403f1455","j2n3sf","RS","42","M","{""name"":""Safari"",""safari"":true,""version"":""16.1"",""webkit"":true,""mac"":true,""osname"":""macOS"",""osversion"":""10.15.7"",""a"":true}","9:19:27","0","1","Practice_4","74","j","1","921","1920 x 1080","1920 x 1080","true","1","10","","","","",""
"null","<p style=""font-size: 80px;"">+ 10 points</p>","null","html-keyboard-response","17","318548","0.0-9.0-1.0-2.16","6152dd451286015f403f1455","j2n3sf","RS","42","M","{""name"":""Safari"",""safari"":true,""version"":""16.1"",""webkit"":true,""mac"":true,""osname"":""macOS"",""osversion"":""10.15.7"",""a"":true}","9:19:27","0","1","Practice_4","74","j","1","1160","1920 x 1080","1920 x 1080","true","1","10","","","","",""
"null","<p style=""font-size: 80px;"">+ 0 points</p>","null","html-keyboard-response","18","322087","0.0-9.0-1.0-2.17","6152dd451286015f403f1455","j2n3sf","RS","42","M","{""name"":""Safari"",""safari"":true,""version"":""16.1"",""webkit"":true,""mac"":true,""osname"":""macOS"",""osversion"":""10.15.7"",""a"":true}","9:19:27","0","1","Practice_2","70","j","0","1528","1920 x 1080","1920 x 1080","true","1","0","","","","",""
"null","<p style=""font-size: 80px;"">+ 0 points</p>","null","html-keyboard-response","19","325285","0.0-9.0-1.0-2.18","6152dd451286015f403f1455","j2n3sf","RS","42","M","{""name"":""Safari"",""safari"":true,""version"":""16.1"",""webkit"":true,""mac"":true,""osname"":""macOS"",""osversion"":""10.15.7"",""a"":true}","9:19:27","0","1","Practice_2","70","j","0","1188.0000000000582","1920 x 1080","1920 x 1080","true","1","0","","","","",""
"null","<p style=""font-size: 80px;"">+ 10 points</p>","null","html-keyboard-response","20","328229","0.0-9.0-1.0-2.19","6152dd451286015f403f1455","j2n3sf","RS","42","M","{""name"":""Safari"",""safari"":true,""version"":""16.1"",""webkit"":true,""mac"":true,""osname"":""macOS"",""osversion"":""10.15.7"",""a"":true}","9:19:27","0","1","Practice_1","70","f","1","936","1920 x 1080","1920 x 1080","true","1","10","","","","",""
"null","<p style=""font-size: 80px;"">+ 10 points</p>","null","html-keyboard-response","21","331349","0.0-9.0-1.0-2.20","6152dd451286015f403f1455","j2n3sf","RS","42","M","{""name"":""Safari"",""safari"":true,""version"":""16.1"",""webkit"":true,""mac"":true,""osname"":""macOS"",""osversion"":""10.15.7"",""a"":true}","9:19:27","0","2","Practice_3","74","j","1","1113","1920 x 1080","1920 x 1080","true","1","10","","","","",""
"null","<p style=""font-size: 80px;"">+ 10 points</p>","null","html-keyboard-response","22","334582","0.0-9.0-1.0-2.21","6152dd451286015f403f1455","j2n3sf","RS","42","M","{""name"":""Safari"",""safari"":true,""version"":""16.1"",""webkit"":true,""mac"":true,""osname"":""macOS"",""osversion"":""10.15.7"",""a"":true}","9:19:27","0","2","Practice_4","70","f","1","1225.0000000000582","1920 x 1080","1920 x 1080","true","1","10","","","","",""
"null","<p style=""font-size: 80px;"">+ 10 points</p>","null","html-keyboard-response","23","338002","0.0-9.0-1.0-2.22","6152dd451286015f403f1455","j2n3sf","RS","42","M","{""name"":""Safari"",""safari"":true,""version"":""16.1"",""webkit"":true,""mac"":true,""osname"":""macOS"",""osversion"":""10.15.7"",""a"":true}","9:19:27","0","2","Practice_3","74","j","1","1415","1920 x 1080","1920 x 1080","true","1","10","","","","",""
"null","<p style=""font-size: 80px;"">+ 10 points</p>","null","html-keyboard-response","24","340516","0.0-9.0-1.0-2.23","6152dd451286015f403f1455","j2n3sf","RS","42","M","{""name"":""Safari"",""safari"":true,""version"":""16.1"",""webkit"":true,""mac"":true,""osname"":""macOS"",""osversion"":""10.15.7"",""a"":true}","9:19:27","0","2","Practice_4","70","f","1","508","1920 x 1080","1920 x 1080","true","1","10","","","","",""
"null","<p style=""font-size: 80px;"">+ 10 points</p>","null","html-keyboard-response","25","343188","0.0-9.0-1.0-2.24","6152dd451286015f403f1455","j2n3sf","RS","42","M","{""name"":""Safari"",""safari"":true,""version"":""16.1"",""webkit"":true,""mac"":true,""osname"":""macOS"",""osversion"":""10.15.7"",""a"":true}","9:19:27","0","2","Practice_4","70","f","1","665","1920 x 1080","1920 x 1080","true","1","10","","","","",""
"null","<p style=""font-size: 80px;"">+ 0 points</p>","null","html-keyboard-response","26","347908","0.0-9.0-1.0-2.25","6152dd451286015f403f1455","j2n3sf","RS","42","M","{""name"":""Safari"",""safari"":true,""version"":""16.1"",""webkit"":true,""mac"":true,""osname"":""macOS"",""osversion"":""10.15.7"",""a"":true}","9:19:27","0","2","Practice_2","74","f","0","2713.000000000058","1920 x 1080","1920 x 1080","true","1","0","","","","",""
"null","<p style=""font-size: 80px;"">+ 0 points</p>","null","html-keyboard-response","27","351204","0.0-9.0-1.0-2.26","6152dd451286015f403f1455","j2n3sf","RS","42","M","{""name"":""Safari"",""safari"":true,""version"":""16.1"",""webkit"":true,""mac"":true,""osname"":""macOS"",""osversion"":""10.15.7"",""a"":true}","9:19:27","0","2","Practice_4","74","f","0","1289","1920 x 1080","1920 x 1080","true","1","0","","","","",""
"null","<p style=""font-size: 80px;"">+ 10 points</p>","null","html-keyboard-response","28","354084","0.0-9.0-1.0-2.27","6152dd451286015f403f1455","j2n3sf","RS","42","M","{""name"":""Safari"",""safari"":true,""version"":""16.1"",""webkit"":true,""mac"":true,""osname"":""macOS"",""osversion"":""10.15.7"",""a"":true}","9:19:27","0","2","Practice_2","70","f","1","872","1920 x 1080","1920 x 1080","true","1","10","","","","",""
"null","<p style=""font-size: 80px;"">+ 0 points</p>","null","html-keyboard-response","29","357732","0.0-9.0-1.0-2.28","6152dd451286015f403f1455","j2n3sf","RS","42","M","{""name"":""Safari"",""safari"":true,""version"":""16.1"",""webkit"":true,""mac"":true,""osname"":""macOS"",""osversion"":""10.15.7"",""a"":true}","9:19:27","0","2","Practice_3","70","j","0","1642","1920 x 1080","1920 x 1080","true","1","0","","","","",""
"null","<p style=""font-size: 80px;"">+ 0 points</p>","null","html-keyboard-response","30","361492","0.0-9.0-1.0-2.29","6152dd451286015f403f1455","j2n3sf","RS","42","M","{""name"":""Safari"",""safari"":true,""version"":""16.1"",""webkit"":true,""mac"":true,""osname"":""macOS"",""osversion"":""10.15.7"",""a"":true}","9:19:27","0","2","Practice_2","74","f","0","1753.0000000000582","1920 x 1080","1920 x 1080","true","1","0","","","","",""
"null","<p style=""font-size: 80px;"">+ 10 points</p>","null","html-keyboard-response","31","365512","0.0-9.0-1.0-2.30","6152dd451286015f403f1455","j2n3sf","RS","42","M","{""name"":""Safari"",""safari"":true,""version"":""16.1"",""webkit"":true,""mac"":true,""osname"":""macOS"",""osversion"":""10.15.7"",""a"":true}","9:19:27","0","2","Practice_2","70","f","1","2009","1920 x 1080","1920 x 1080","true","1","10","","","","",""
"null","<p style=""font-size: 80px;"">+ 10 points</p>","null","html-keyboard-response","32","368644","0.0-9.0-1.0-2.31","6152dd451286015f403f1455","j2n3sf","RS","42","M","{""name"":""Safari"",""safari"":true,""version"":""16.1"",""webkit"":true,""mac"":true,""osname"":""macOS"",""osversion"":""10.15.7"",""a"":true}","9:19:27","0","2","Practice_3","74","j","1","1123.9999999999418","1920 x 1080","1920 x 1080","true","1","10","","","","",""
"null","<p style=""font-size: 80px;"">+ 10 points</p>","null","html-keyboard-response","33","371588","0.0-9.0-1.0-2.32","6152dd451286015f403f1455","j2n3sf","RS","42","M","{""name"":""Safari"",""safari"":true,""version"":""16.1"",""webkit"":true,""mac"":true,""osname"":""macOS"",""osversion"":""10.15.7"",""a"":true}","9:19:27","0","2","Practice_4","70","f","1","936","1920 x 1080","1920 x 1080","true","1","10","","","","",""
"null","<p style=""font-size: 80px;"">+ 10 points</p>","null","html-keyboard-response","34","374404","0.0-9.0-1.0-2.33","6152dd451286015f403f1455","j2n3sf","RS","42","M","{""name"":""Safari"",""safari"":true,""version"":""16.1"",""webkit"":true,""mac"":true,""osname"":""macOS"",""osversion"":""10.15.7"",""a"":true}","9:19:27","0","2","Practice_1","74","j","1","809","1920 x 1080","1920 x 1080","true","1","10","","","","",""
"null","<p style=""font-size: 80px;"">+ 10 points</p>","null","html-keyboard-response","35","377524","0.0-9.0-1.0-2.34","6152dd451286015f403f1455","j2n3sf","RS","42","M","{""name"":""Safari"",""safari"":true,""version"":""16.1"",""webkit"":true,""mac"":true,""osname"":""macOS"",""osversion"":""10.15.7"",""a"":true}","9:19:27","0","2","Practice_1","74","j","1","1112","1920 x 1080","1920 x 1080","true","1","10","","","","",""
"null","<p style=""font-size: 80px;"">+ 0 points</p>","null","html-keyboard-response","36","380372","0.0-9.0-1.0-2.35","6152dd451286015f403f1455","j2n3sf","RS","42","M","{""name"":""Safari"",""safari"":true,""version"":""16.1"",""webkit"":true,""mac"":true,""osname"":""macOS"",""osversion"":""10.15.7"",""a"":true}","9:19:27","0","2","Practice_1","70","j","0","841","1920 x 1080","1920 x 1080","true","1","0","","","","",""
"null","<p style=""font-size: 80px;"">+ 0 points</p>","null","html-keyboard-response","37","383045","0.0-9.0-1.0-2.36","6152dd451286015f403f1455","j2n3sf","RS","42","M","{""name"":""Safari"",""safari"":true,""version"":""16.1"",""webkit"":true,""mac"":true,""osname"":""macOS"",""osversion"":""10.15.7"",""a"":true}","9:19:27","0","2","Practice_2","74","f","0","663","1920 x 1080","1920 x 1080","true","1","0","","","","",""
"null","<p style=""font-size: 80px;"">+ 0 points</p>","null","html-keyboard-response","38","385827","0.0-9.0-1.0-2.37","6152dd451286015f403f1455","j2n3sf","RS","42","M","{""name"":""Safari"",""safari"":true,""version"":""16.1"",""webkit"":true,""mac"":true,""osname"":""macOS"",""osversion"":""10.15.7"",""a"":true}","9:19:27","0","2","Practice_1","70","j","0","774","1920 x 1080","1920 x 1080","true","1","0","","","","",""
"null","<p style=""font-size: 80px;"">+ 10 points</p>","null","html-keyboard-response","39","388995","0.0-9.0-1.0-2.38","6152dd451286015f403f1455","j2n3sf","RS","42","M","{""name"":""Safari"",""safari"":true,""version"":""16.1"",""webkit"":true,""mac"":true,""osname"":""macOS"",""osversion"":""10.15.7"",""a"":true}","9:19:27","0","2","Practice_3","74","j","1","1161","1920 x 1080","1920 x 1080","true","1","10","","","","",""
"null","<p style=""font-size: 80px;"">+ 0 points</p>","null","html-keyboard-response","40","393028","0.0-9.0-1.0-2.39","6152dd451286015f403f1455","j2n3sf","RS","42","M","{""name"":""Safari"",""safari"":true,""version"":""16.1"",""webkit"":true,""mac"":true,""osname"":""macOS"",""osversion"":""10.15.7"",""a"":true}","9:19:27","0","2","Practice_1","70","j","0","2025","1920 x 1080","1920 x 1080","true","1","0","","","","",""
"39749","","","survey-multi-choice","249","432780","0.0-9.0-2.0","6152dd451286015f403f1455","j2n3sf","RS","42","M","{""name"":""Safari"",""safari"":true,""version"":""16.1"",""webkit"":true,""mac"":true,""osname"":""macOS"",""osversion"":""10.15.7"",""a"":true}","9:19:27","","","","","","","","","","","1","","{""Q0"":""The red one"",""Q1"":""1""}","[0,1]","1","The red one","2"
"null","<p style=""font-size: 80px;"">+ 0 points</p>","null","html-keyboard-response","1","454851","0.0-11.0-2.0","6152dd451286015f403f1455","j2n3sf","RS","42","M","{""name"":""Safari"",""safari"":true,""version"":""16.1"",""webkit"":true,""mac"":true,""osname"":""macOS"",""osversion"":""10.15.7"",""a"":true}","9:19:27","1","3","Test_1","74","f","0","1120","1920 x 1080","1920 x 1080","true","1","0","","","","",""
"null","<p style=""font-size: 80px;"">+ 10 points</p>","null","html-keyboard-response","2","458834","0.0-11.0-2.1","6152dd451286015f403f1455","j2n3sf","RS","42","M","{""name"":""Safari"",""safari"":true,""version"":""16.1"",""webkit"":true,""mac"":true,""osname"":""macOS"",""osversion"":""10.15.7"",""a"":true}","9:19:27","1","3","Test_4","74","j","1","1975","1920 x 1080","1920 x 1080","true","1","10","","","","",""
"null","<p style=""font-size: 80px;"">+ 10 points</p>","null","html-keyboard-response","3","462036","0.0-11.0-2.2","6152dd451286015f403f1455","j2n3sf","RS","42","M","{""name"":""Safari"",""safari"":true,""version"":""16.1"",""webkit"":true,""mac"":true,""osname"":""macOS"",""osversion"":""10.15.7"",""a"":true}","9:19:27","1","3","Test_4","74","j","1","1194","1920 x 1080","1920 x 1080","true","1","10","","","","",""
"null","<p style=""font-size: 80px;"">+ 10 points</p>","null","html-keyboard-response","4","465382","0.0-11.0-2.3","6152dd451286015f403f1455","j2n3sf","RS","42","M","{""name"":""Safari"",""safari"":true,""version"":""16.1"",""webkit"":true,""mac"":true,""osname"":""macOS"",""osversion"":""10.15.7"",""a"":true}","9:19:27","1","3","Test_2","74","j","1","1335.0000000000582","1920 x 1080","1920 x 1080","true","1","10","","","","",""
"null","<p style=""font-size: 80px;"">+ 10 points</p>","null","html-keyboard-response","5","469009","0.0-11.0-2.4","6152dd451286015f403f1455","j2n3sf","RS","42","M","{""name"":""Safari"",""safari"":true,""version"":""16.1"",""webkit"":true,""mac"":true,""osname"":""macOS"",""osversion"":""10.15.7"",""a"":true}","9:19:27","1","3","Test_3","70","f","1","1620","1920 x 1080","1920 x 1080","true","1","10","","","","",""
"null","<p style=""font-size: 80px;"">+ 10 points</p>","null","html-keyboard-response","6","473716","0.0-11.0-2.5","6152dd451286015f403f1455","j2n3sf","RS","42","M","{""name"":""Safari"",""safari"":true,""version"":""16.1"",""webkit"":true,""mac"":true,""osname"":""macOS"",""osversion"":""10.15.7"",""a"":true}","9:19:27","1","3","Test_1","70","f","1","2699.999999999942","1920 x 1080","1920 x 1080","true","1","10","","","","",""
"null","<p style=""font-size: 80px;"">+ 10 points</p>","null","html-keyboard-response","7","477123","0.0-11.0-2.6","6152dd451286015f403f1455","j2n3sf","RS","42","M","{""name"":""Safari"",""safari"":true,""version"":""16.1"",""webkit"":true,""mac"":true,""osname"":""macOS"",""osversion"":""10.15.7"",""a"":true}","9:19:27","1","3","Test_3","70","f","1","1399","1920 x 1080","1920 x 1080","true","1","10","","","","",""
"null","<p style=""font-size: 80px;"">+ 10 points</p>","null","html-keyboard-response","8","480371","0.0-11.0-2.7","6152dd451286015f403f1455","j2n3sf","RS","42","M","{""name"":""Safari"",""safari"":true,""version"":""16.1"",""webkit"":true,""mac"":true,""osname"":""macOS"",""osversion"":""10.15.7"",""a"":true}","9:19:27","1","3","Test_4","74","j","1","1240","1920 x 1080","1920 x 1080","true","1","10","","","","",""
"null","<p style=""font-size: 80px;"">+ 10 points</p>","null","html-keyboard-response","9","484098","0.0-11.0-2.8","6152dd451286015f403f1455","j2n3sf","RS","42","M","{""name"":""Safari"",""safari"":true,""version"":""16.1"",""webkit"":true,""mac"":true,""osname"":""macOS"",""osversion"":""10.15.7"",""a"":true}","9:19:27","1","3","Test_1","70","f","1","1719.9999999999418","1920 x 1080","1920 x 1080","true","1","10","","","","",""
"null","<p style=""font-size: 80px;"">+ 10 points</p>","null","html-keyboard-response","10","486867","0.0-11.0-2.9","6152dd451286015f403f1455","j2n3sf","RS","42","M","{""name"":""Safari"",""safari"":true,""version"":""16.1"",""webkit"":true,""mac"":true,""osname"":""macOS"",""osversion"":""10.15.7"",""a"":true}","9:19:27","1","3","Test_2","74","j","1","760","1920 x 1080","1920 x 1080","true","1","10","","","","",""
"null","<p style=""font-size: 80px;"">+ 10 points</p>","null","html-keyboard-response","11","490322","0.0-11.0-2.10","6152dd451286015f403f1455","j2n3sf","RS","42","M","{""name"":""Safari"",""safari"":true,""version"":""16.1"",""webkit"":true,""mac"":true,""osname"":""macOS"",""osversion"":""10.15.7"",""a"":true}","9:19:27","1","3","Test_2","74","j","1","1447","1920 x 1080","1920 x 1080","true","1","10","","","","",""
"null","<p style=""font-size: 80px;"">+ 10 points</p>","null","html-keyboard-response","12","493155","0.0-11.0-2.11","6152dd451286015f403f1455","j2n3sf","RS","42","M","{""name"":""Safari"",""safari"":true,""version"":""16.1"",""webkit"":true,""mac"":true,""osname"":""macOS"",""osversion"":""10.15.7"",""a"":true}","9:19:27","1","3","Test_2","74","j","1","826","1920 x 1080","1920 x 1080","true","1","10","","","","",""
"null","<p style=""font-size: 80px;"">+ 0 points</p>","null","html-keyboard-response","13","496371","0.0-11.0-2.12","6152dd451286015f403f1455","j2n3sf","RS","42","M","{""name"":""Safari"",""safari"":true,""version"":""16.1"",""webkit"":true,""mac"":true,""osname"":""macOS"",""osversion"":""10.15.7"",""a"":true}","9:19:27","1","3","Test_4","70","j","0","1208","1920 x 1080","1920 x 1080","true","1","0","","","","",""
"null","<p style=""font-size: 80px;"">+ 10 points</p>","null","html-keyboard-response","14","499936","0.0-11.0-2.13","6152dd451286015f403f1455","j2n3sf","RS","42","M","{""name"":""Safari"",""safari"":true,""version"":""16.1"",""webkit"":true,""mac"":true,""osname"":""macOS"",""osversion"":""10.15.7"",""a"":true}","9:19:27","1","3","Test_3","70","f","1","1558","1920 x 1080","1920 x 1080","true","1","10","","","","",""
"null","<p style=""font-size: 80px;"">+ 10 points</p>","null","html-keyboard-response","15","503381","0.0-11.0-2.14","6152dd451286015f403f1455","j2n3sf","RS","42","M","{""name"":""Safari"",""safari"":true,""version"":""16.1"",""webkit"":true,""mac"":true,""osname"":""macOS"",""osversion"":""10.15.7"",""a"":true}","9:19:27","1","3","Test_3","70","f","1","1433.9999999999418","1920 x 1080","1920 x 1080","true","1","10","","","","",""
"null","<p style=""font-size: 80px;"">+ 10 points</p>","null","html-keyboard-response","16","507795","0.0-11.0-2.15","6152dd451286015f403f1455","j2n3sf","RS","42","M","{""name"":""Safari"",""safari"":true,""version"":""16.1"",""webkit"":true,""mac"":true,""osname"":""macOS"",""osversion"":""10.15.7"",""a"":true}","9:19:27","1","3","Test_1","70","f","1","2405","1920 x 1080","1920 x 1080","true","1","10","","","","",""
"null","<p style=""font-size: 80px;"">+ 0 points</p>","null","html-keyboard-response","17","510513","0.0-11.0-2.16","6152dd451286015f403f1455","j2n3sf","RS","42","M","{""name"":""Safari"",""safari"":true,""version"":""16.1"",""webkit"":true,""mac"":true,""osname"":""macOS"",""osversion"":""10.15.7"",""a"":true}","9:19:27","1","4","Test_1","70","j","0","711.9999999999418","1920 x 1080","1920 x 1080","true","1","0","","","","",""
"null","<p style=""font-size: 80px;"">+ 10 points</p>","null","html-keyboard-response","18","513939","0.0-11.0-2.17","6152dd451286015f403f1455","j2n3sf","RS","42","M","{""name"":""Safari"",""safari"":true,""version"":""16.1"",""webkit"":true,""mac"":true,""osname"":""macOS"",""osversion"":""10.15.7"",""a"":true}","9:19:27","1","4","Test_4","70","f","1","1417.0000000000582","1920 x 1080","1920 x 1080","true","1","10","","","","",""
"null","<p style=""font-size: 80px;"">+ 0 points</p>","null","html-keyboard-response","19","517923","0.0-11.0-2.18","6152dd451286015f403f1455","j2n3sf","RS","42","M","{""name"":""Safari"",""safari"":true,""version"":""16.1"",""webkit"":true,""mac"":true,""osname"":""macOS"",""osversion"":""10.15.7"",""a"":true}","9:19:27","1","4","Test_1","70","j","0","1977.0000000001164","1920 x 1080","1920 x 1080","true","1","0","","","","",""
"null","<p style=""font-size: 80px;"">+ 0 points</p>","null","html-keyboard-response","20","521106","0.0-11.0-2.19","6152dd451286015f403f1455","j2n3sf","RS","42","M","{""name"":""Safari"",""safari"":true,""version"":""16.1"",""webkit"":true,""mac"":true,""osname"":""macOS"",""osversion"":""10.15.7"",""a"":true}","9:19:27","1","4","Test_3","70","j","0","1175.0000000000582","1920 x 1080","1920 x 1080","true","1","0","","","","",""
"null","<p style=""font-size: 80px;"">+ 0 points</p>","null","html-keyboard-response","21","525266","0.0-11.0-2.20","6152dd451286015f403f1455","j2n3sf","RS","42","M","{""name"":""Safari"",""safari"":true,""version"":""16.1"",""webkit"":true,""mac"":true,""osname"":""macOS"",""osversion"":""10.15.7"",""a"":true}","9:19:27","1","4","Test_4","74","f","0","2152.000000000058","1920 x 1080","1920 x 1080","true","1","0","","","","",""
"null","<p style=""font-size: 80px;"">+ 0 points</p>","null","html-keyboard-response","22","528706","0.0-11.0-2.21","6152dd451286015f403f1455","j2n3sf","RS","42","M","{""name"":""Safari"",""safari"":true,""version"":""16.1"",""webkit"":true,""mac"":true,""osname"":""macOS"",""osversion"":""10.15.7"",""a"":true}","9:19:27","1","4","Test_2","74","f","0","1432.0000000001164","1920 x 1080","1920 x 1080","true","1","0","","","","",""
"null","<p style=""font-size: 80px;"">+ 10 points</p>","null","html-keyboard-response","23","531938","0.0-11.0-2.22","6152dd451286015f403f1455","j2n3sf","RS","42","M","{""name"":""Safari"",""safari"":true,""version"":""16.1"",""webkit"":true,""mac"":true,""osname"":""macOS"",""osversion"":""10.15.7"",""a"":true}","9:19:27","1","4","Test_4","70","f","1","1224","1920 x 1080","1920 x 1080","true","1","10","","","","",""
"null","<p style=""font-size: 80px;"">+ 10 points</p>","null","html-keyboard-response","24","534818","0.0-11.0-2.23","6152dd451286015f403f1455","j2n3sf","RS","42","M","{""name"":""Safari"",""safari"":true,""version"":""16.1"",""webkit"":true,""mac"":true,""osname"":""macOS"",""osversion"":""10.15.7"",""a"":true}","9:19:27","1","4","Test_4","70","f","1","873","1920 x 1080","1920 x 1080","true","1","10","","","","",""
"null","<p style=""font-size: 80px;"">+ 10 points</p>","null","html-keyboard-response","25","537842","0.0-11.0-2.24","6152dd451286015f403f1455","j2n3sf","RS","42","M","{""name"":""Safari"",""safari"":true,""version"":""16.1"",""webkit"":true,""mac"":true,""osname"":""macOS"",""osversion"":""10.15.7"",""a"":true}","9:19:27","1","4","Test_1","74","j","1","1015","1920 x 1080","1920 x 1080","true","1","10","","","","",""
"null","<p style=""font-size: 80px;"">+ 10 points</p>","null","html-keyboard-response","26","541682","0.0-11.0-2.25","6152dd451286015f403f1455","j2n3sf","RS","42","M","{""name"":""Safari"",""safari"":true,""version"":""16.1"",""webkit"":true,""mac"":true,""osname"":""macOS"",""osversion"":""10.15.7"",""a"":true}","9:19:27","1","4","Test_2","70","f","1","1833","1920 x 1080","1920 x 1080","true","1","10","","","","",""
"null","<p style=""font-size: 80px;"">+ 10 points</p>","null","html-keyboard-response","27","544738","0.0-11.0-2.26","6152dd451286015f403f1455","j2n3sf","RS","42","M","{""name"":""Safari"",""safari"":true,""version"":""16.1"",""webkit"":true,""mac"":true,""osname"":""macOS"",""osversion"":""10.15.7"",""a"":true}","9:19:27","1","4","Test_3","74","j","1","1049","1920 x 1080","1920 x 1080","true","1","10","","","","",""
"null","<p style=""font-size: 80px;"">+ 10 points</p>","null","html-keyboard-response","28","548178","0.0-11.0-2.27","6152dd451286015f403f1455","j2n3sf","RS","42","M","{""name"":""Safari"",""safari"":true,""version"":""16.1"",""webkit"":true,""mac"":true,""osname"":""macOS"",""osversion"":""10.15.7"",""a"":true}","9:19:27","1","4","Test_1","74","j","1","1433","1920 x 1080","1920 x 1080","true","1","10","","","","",""
"null","<p style=""font-size: 80px;"">+ 10 points</p>","null","html-keyboard-response","29","551491","0.0-11.0-2.28","6152dd451286015f403f1455","j2n3sf","RS","42","M","{""name"":""Safari"",""safari"":true,""version"":""16.1"",""webkit"":true,""mac"":true,""osname"":""macOS"",""osversion"":""10.15.7"",""a"":true}","9:19:27","1","4","Test_4","70","f","1","1300","1920 x 1080","1920 x 1080","true","1","10","","","","",""
"null","<p style=""font-size: 80px;"">+ 10 points</p>","null","html-keyboard-response","30","554306","0.0-11.0-2.29","6152dd451286015f403f1455","j2n3sf","RS","42","M","{""name"":""Safari"",""safari"":true,""version"":""16.1"",""webkit"":true,""mac"":true,""osname"":""macOS"",""osversion"":""10.15.7"",""a"":true}","9:19:27","1","4","Test_3","74","j","1","807.0000000001164","1920 x 1080","1920 x 1080","true","1","10","","","","",""
"null","<p style=""font-size: 80px;"">+ 10 points</p>","null","html-keyboard-response","31","557042","0.0-11.0-2.30","6152dd451286015f403f1455","j2n3sf","RS","42","M","{""name"":""Safari"",""safari"":true,""version"":""16.1"",""webkit"":true,""mac"":true,""osname"":""macOS"",""osversion"":""10.15.7"",""a"":true}","9:19:27","1","4","Test_3","74","j","1","728","1920 x 1080","1920 x 1080","true","1","10","","","","",""
"null","<p style=""font-size: 80px;"">+ 10 points</p>","null","html-keyboard-response","32","560370","0.0-11.0-2.31","6152dd451286015f403f1455","j2n3sf","RS","42","M","{""name"":""Safari"",""safari"":true,""version"":""16.1"",""webkit"":true,""mac"":true,""osname"":""macOS"",""osversion"":""10.15.7"",""a"":true}","9:19:27","1","4","Test_1","74","j","1","1320","1920 x 1080","1920 x 1080","true","1","10","","","","",""
"null","<p style=""font-size: 80px;"">+ 10 points</p>","null","html-keyboard-response","33","563651","0.0-11.0-2.32","6152dd451286015f403f1455","j2n3sf","RS","42","M","{""name"":""Safari"",""safari"":true,""version"":""16.1"",""webkit"":true,""mac"":true,""osname"":""macOS"",""osversion"":""10.15.7"",""a"":true}","9:19:27","1","4","Test_2","70","f","1","1272.9999999998836","1920 x 1080","1920 x 1080","true","1","10","","","","",""
"null","<p style=""font-size: 80px;"">+ 10 points</p>","null","html-keyboard-response","34","566562","0.0-11.0-2.33","6152dd451286015f403f1455","j2n3sf","RS","42","M","{""name"":""Safari"",""safari"":true,""version"":""16.1"",""webkit"":true,""mac"":true,""osname"":""macOS"",""osversion"":""10.15.7"",""a"":true}","9:19:27","1","4","Test_2","70","f","1","903","1920 x 1080","1920 x 1080","true","1","10","","","","",""
"null","<p style=""font-size: 80px;"">+ 10 points</p>","null","html-keyboard-response","35","569426","0.0-11.0-2.34","6152dd451286015f403f1455","j2n3sf","RS","42","M","{""name"":""Safari"",""safari"":true,""version"":""16.1"",""webkit"":true,""mac"":true,""osname"":""macOS"",""osversion"":""10.15.7"",""a"":true}","9:19:27","1","4","Test_3","74","j","1","856.0000000001164","1920 x 1080","1920 x 1080","true","1","10","","","","",""
"null","<p style=""font-size: 80px;"">+ 0 points</p>","null","html-keyboard-response","36","573346","0.0-11.0-2.35","6152dd451286015f403f1455","j2n3sf","RS","42","M","{""name"":""Safari"",""safari"":true,""version"":""16.1"",""webkit"":true,""mac"":true,""osname"":""macOS"",""osversion"":""10.15.7"",""a"":true}","9:19:27","1","4","Test_3","70","j","0","1912","1920 x 1080","1920 x 1080","true","1","0","","","","",""
"null","<p style=""font-size: 80px;"">+ 0 points</p>","null","html-keyboard-response","37","576162","0.0-11.0-2.36","6152dd451286015f403f1455","j2n3sf","RS","42","M","{""name"":""Safari"",""safari"":true,""version"":""16.1"",""webkit"":true,""mac"":true,""osname"":""macOS"",""osversion"":""10.15.7"",""a"":true}","9:19:27","1","4","Test_1","70","j","0","807.9999999998836","1920 x 1080","1920 x 1080","true","1","0","","","","",""
"null","<p style=""font-size: 80px;"">+ 0 points</p>","null","html-keyboard-response","38","579234","0.0-11.0-2.37","6152dd451286015f403f1455","j2n3sf","RS","42","M","{""name"":""Safari"",""safari"":true,""version"":""16.1"",""webkit"":true,""mac"":true,""osname"":""macOS"",""osversion"":""10.15.7"",""a"":true}","9:19:27","1","4","Test_2","74","f","0","1065","1920 x 1080","1920 x 1080","true","1","0","","","","",""
"null","<p style=""font-size: 80px;"">+ 10 points</p>","null","html-keyboard-response","39","582305","0.0-11.0-2.38","6152dd451286015f403f1455","j2n3sf","RS","42","M","{""name"":""Safari"",""safari"":true,""version"":""16.1"",""webkit"":true,""mac"":true,""osname"":""macOS"",""osversion"":""10.15.7"",""a"":true}","9:19:27","1","4","Test_4","70","f","1","1065.0000000001164","1920 x 1080","1920 x 1080","true","1","10","","","","",""
"null","<p style=""font-size: 80px;"">+ 10 points</p>","null","html-keyboard-response","40","585458","0.0-11.0-2.39","6152dd451286015f403f1455","j2n3sf","RS","42","M","{""name"":""Safari"",""safari"":true,""version"":""16.1"",""webkit"":true,""mac"":true,""osname"":""macOS"",""osversion"":""10.15.7"",""a"":true}","9:19:27","1","4","Test_2","70","f","1","1144","1920 x 1080","1920 x 1080","true","1","10","","","","",""
"null","<p style=""font-size: 80px;"">+ 0 points</p>","null","html-keyboard-response","41","588274","0.0-11.0-2.40","6152dd451286015f403f1455","j2n3sf","RS","42","M","{""name"":""Safari"",""safari"":true,""version"":""16.1"",""webkit"":true,""mac"":true,""osname"":""macOS"",""osversion"":""10.15.7"",""a"":true}","9:19:27","1","3","Test_4","70","j","0","807","1920 x 1080","1920 x 1080","true","1","0","","","","",""
"null","<p style=""font-size: 80px;"">+ 0 points</p>","null","html-keyboard-response","42","591794","0.0-11.0-2.41","6152dd451286015f403f1455","j2n3sf","RS","42","M","{""name"":""Safari"",""safari"":true,""version"":""16.1"",""webkit"":true,""mac"":true,""osname"":""macOS"",""osversion"":""10.15.7"",""a"":true}","9:19:27","1","3","Test_1","74","f","0","1511","1920 x 1080","1920 x 1080","true","1","0","","","","",""
"null","<p style=""font-size: 80px;"">+ 10 points</p>","null","html-keyboard-response","43","595506","0.0-11.0-2.42","6152dd451286015f403f1455","j2n3sf","RS","42","M","{""name"":""Safari"",""safari"":true,""version"":""16.1"",""webkit"":true,""mac"":true,""osname"":""macOS"",""osversion"":""10.15.7"",""a"":true}","9:19:27","1","3","Test_3","70","f","1","1704","1920 x 1080","1920 x 1080","true","1","10","","","","",""
"null","<p style=""font-size: 80px;"">+ 10 points</p>","null","html-keyboard-response","44","598337","0.0-11.0-2.43","6152dd451286015f403f1455","j2n3sf","RS","42","M","{""name"":""Safari"",""safari"":true,""version"":""16.1"",""webkit"":true,""mac"":true,""osname"":""macOS"",""osversion"":""10.15.7"",""a"":true}","9:19:27","1","3","Test_4","74","j","1","824","1920 x 1080","1920 x 1080","true","1","10","","","","",""
"null","<p style=""font-size: 80px;"">+ 0 points</p>","null","html-keyboard-response","45","602051","0.0-11.0-2.44","6152dd451286015f403f1455","j2n3sf","RS","42","M","{""name"":""Safari"",""safari"":true,""version"":""16.1"",""webkit"":true,""mac"":true,""osname"":""macOS"",""osversion"":""10.15.7"",""a"":true}","9:19:27","1","3","Test_2","70","j","0","1706","1920 x 1080","1920 x 1080","true","1","0","","","","",""
"null","<p style=""font-size: 80px;"">+ 10 points</p>","null","html-keyboard-response","46","605443","0.0-11.0-2.45","6152dd451286015f403f1455","j2n3sf","RS","42","M","{""name"":""Safari"",""safari"":true,""version"":""16.1"",""webkit"":true,""mac"":true,""osname"":""macOS"",""osversion"":""10.15.7"",""a"":true}","9:19:27","1","3","Test_1","70","f","1","1382","1920 x 1080","1920 x 1080","true","1","10","","","","",""
"null","<p style=""font-size: 80px;"">+ 10 points</p>","null","html-keyboard-response","47","608322","0.0-11.0-2.46","6152dd451286015f403f1455","j2n3sf","RS","42","M","{""name"":""Safari"",""safari"":true,""version"":""16.1"",""webkit"":true,""mac"":true,""osname"":""macOS"",""osversion"":""10.15.7"",""a"":true}","9:19:27","1","3","Test_3","70","f","1","870","1920 x 1080","1920 x 1080","true","1","10","","","","",""
"null","<p style=""font-size: 80px;"">+ 10 points</p>","null","html-keyboard-response","48","611697","0.0-11.0-2.47","6152dd451286015f403f1455","j2n3sf","RS","42","M","{""name"":""Safari"",""safari"":true,""version"":""16.1"",""webkit"":true,""mac"":true,""osname"":""macOS"",""osversion"":""10.15.7"",""a"":true}","9:19:27","1","3","Test_3","70","f","1","1368","1920 x 1080","1920 x 1080","true","1","10","","","","",""
"null","<p style=""font-size: 80px;"">+ 10 points</p>","null","html-keyboard-response","49","614802","0.0-11.0-2.48","6152dd451286015f403f1455","j2n3sf","RS","42","M","{""name"":""Safari"",""safari"":true,""version"":""16.1"",""webkit"":true,""mac"":true,""osname"":""macOS"",""osversion"":""10.15.7"",""a"":true}","9:19:27","1","3","Test_4","74","j","1","1096","1920 x 1080","1920 x 1080","true","1","10","","","","",""
"null","<p style=""font-size: 80px;"">+ 10 points</p>","null","html-keyboard-response","50","618577","0.0-11.0-2.49","6152dd451286015f403f1455","j2n3sf","RS","42","M","{""name"":""Safari"",""safari"":true,""version"":""16.1"",""webkit"":true,""mac"":true,""osname"":""macOS"",""osversion"":""10.15.7"",""a"":true}","9:19:27","1","3","Test_1","70","f","1","1769.0000000001164","1920 x 1080","1920 x 1080","true","1","10","","","","",""
"null","<p style=""font-size: 80px;"">+ 0 points</p>","null","html-keyboard-response","51","621890","0.0-11.0-2.50","6152dd451286015f403f1455","j2n3sf","RS","42","M","{""name"":""Safari"",""safari"":true,""version"":""16.1"",""webkit"":true,""mac"":true,""osname"":""macOS"",""osversion"":""10.15.7"",""a"":true}","9:19:27","1","3","Test_2","70","j","0","1302","1920 x 1080","1920 x 1080","true","1","0","","","","",""
"null","<p style=""font-size: 80px;"">+ 10 points</p>","null","html-keyboard-response","52","624849","0.0-11.0-2.51","6152dd451286015f403f1455","j2n3sf","RS","42","M","{""name"":""Safari"",""safari"":true,""version"":""16.1"",""webkit"":true,""mac"":true,""osname"":""macOS"",""osversion"":""10.15.7"",""a"":true}","9:19:27","1","3","Test_4","74","j","1","951","1920 x 1080","1920 x 1080","true","1","10","","","","",""
"null","<p style=""font-size: 80px;"">+ 10 points</p>","null","html-keyboard-response","53","628034","0.0-11.0-2.52","6152dd451286015f403f1455","j2n3sf","RS","42","M","{""name"":""Safari"",""safari"":true,""version"":""16.1"",""webkit"":true,""mac"":true,""osname"":""macOS"",""osversion"":""10.15.7"",""a"":true}","9:19:27","1","3","Test_2","74","j","1","1176","1920 x 1080","1920 x 1080","true","1","10","","","","",""
"null","<p style=""font-size: 80px;"">+ 10 points</p>","null","html-keyboard-response","54","631009","0.0-11.0-2.53","6152dd451286015f403f1455","j2n3sf","RS","42","M","{""name"":""Safari"",""safari"":true,""version"":""16.1"",""webkit"":true,""mac"":true,""osname"":""macOS"",""osversion"":""10.15.7"",""a"":true}","9:19:27","1","3","Test_2","74","j","1","968","1920 x 1080","1920 x 1080","true","1","10","","","","",""
"null","<p style=""font-size: 80px;"">+ 10 points</p>","null","html-keyboard-response","55","633809","0.0-11.0-2.54","6152dd451286015f403f1455","j2n3sf","RS","42","M","{""name"":""Safari"",""safari"":true,""version"":""16.1"",""webkit"":true,""mac"":true,""osname"":""macOS"",""osversion"":""10.15.7"",""a"":true}","9:19:27","1","3","Test_3","70","f","1","792","1920 x 1080","1920 x 1080","true","1","10","","","","",""
"null","<p style=""font-size: 80px;"">+ 10 points</p>","null","html-keyboard-response","56","636641","0.0-11.0-2.55","6152dd451286015f403f1455","j2n3sf","RS","42","M","{""name"":""Safari"",""safari"":true,""version"":""16.1"",""webkit"":true,""mac"":true,""osname"":""macOS"",""osversion"":""10.15.7"",""a"":true}","9:19:27","1","3","Test_3","70","f","1","825","1920 x 1080","1920 x 1080","true","1","10","","","","",""
"null","<p style=""font-size: 80px;"">+ 10 points</p>","null","html-keyboard-response","57","639507","0.0-11.0-2.56","6152dd451286015f403f1455","j2n3sf","RS","42","M","{""name"":""Safari"",""safari"":true,""version"":""16.1"",""webkit"":true,""mac"":true,""osname"":""macOS"",""osversion"":""10.15.7"",""a"":true}","9:19:27","1","3","Test_2","74","j","1","854.0000000001164","1920 x 1080","1920 x 1080","true","1","10","","","","",""
"null","<p style=""font-size: 80px;"">+ 0 points</p>","null","html-keyboard-response","58","642401","0.0-11.0-2.57","6152dd451286015f403f1455","j2n3sf","RS","42","M","{""name"":""Safari"",""safari"":true,""version"":""16.1"",""webkit"":true,""mac"":true,""osname"":""macOS"",""osversion"":""10.15.7"",""a"":true}","9:19:27","1","4","Test_2","74","f","0","886","1920 x 1080","1920 x 1080","true","1","0","","","","",""
"null","<p style=""font-size: 80px;"">+ 10 points</p>","null","html-keyboard-response","59","645713","0.0-11.0-2.58","6152dd451286015f403f1455","j2n3sf","RS","42","M","{""name"":""Safari"",""safari"":true,""version"":""16.1"",""webkit"":true,""mac"":true,""osname"":""macOS"",""osversion"":""10.15.7"",""a"":true}","9:19:27","1","4","Test_3","74","j","1","1303","1920 x 1080","1920 x 1080","true","1","10","","","","",""
"null","<p style=""font-size: 80px;"">+ 10 points</p>","null","html-keyboard-response","60","649169","0.0-11.0-2.59","6152dd451286015f403f1455","j2n3sf","RS","42","M","{""name"":""Safari"",""safari"":true,""version"":""16.1"",""webkit"":true,""mac"":true,""osname"":""macOS"",""osversion"":""10.15.7"",""a"":true}","9:19:27","1","4","Test_4","70","f","1","1449","1920 x 1080","1920 x 1080","true","1","10","","","","",""
"null","<p style=""font-size: 80px;"">+ 10 points</p>","null","html-keyboard-response","61","651841","0.0-11.0-2.60","6152dd451286015f403f1455","j2n3sf","RS","42","M","{""name"":""Safari"",""safari"":true,""version"":""16.1"",""webkit"":true,""mac"":true,""osname"":""macOS"",""osversion"":""10.15.7"",""a"":true}","9:19:27","1","4","Test_3","74","j","1","665","1920 x 1080","1920 x 1080","true","1","10","","","","",""
"null","<p style=""font-size: 80px;"">+ 10 points</p>","null","html-keyboard-response","62","654705","0.0-11.0-2.61","6152dd451286015f403f1455","j2n3sf","RS","42","M","{""name"":""Safari"",""safari"":true,""version"":""16.1"",""webkit"":true,""mac"":true,""osname"":""macOS"",""osversion"":""10.15.7"",""a"":true}","9:19:27","1","4","Test_2","70","f","1","856","1920 x 1080","1920 x 1080","true","1","10","","","","",""
"null","<p style=""font-size: 80px;"">+ 10 points</p>","null","html-keyboard-response","63","657969","0.0-11.0-2.62","6152dd451286015f403f1455","j2n3sf","RS","42","M","{""name"":""Safari"",""safari"":true,""version"":""16.1"",""webkit"":true,""mac"":true,""osname"":""macOS"",""osversion"":""10.15.7"",""a"":true}","9:19:27","1","4","Test_3","74","j","1","1257","1920 x 1080","1920 x 1080","true","1","10","","","","",""
"null","<p style=""font-size: 80px;"">+ 10 points</p>","null","html-keyboard-response","64","660832","0.0-11.0-2.63","6152dd451286015f403f1455","j2n3sf","RS","42","M","{""name"":""Safari"",""safari"":true,""version"":""16.1"",""webkit"":true,""mac"":true,""osname"":""macOS"",""osversion"":""10.15.7"",""a"":true}","9:19:27","1","4","Test_3","74","j","1","857","1920 x 1080","1920 x 1080","true","1","10","","","","",""
"null","<p style=""font-size: 80px;"">+ 10 points</p>","null","html-keyboard-response","65","664192","0.0-11.0-2.64","6152dd451286015f403f1455","j2n3sf","RS","42","M","{""name"":""Safari"",""safari"":true,""version"":""16.1"",""webkit"":true,""mac"":true,""osname"":""macOS"",""osversion"":""10.15.7"",""a"":true}","9:19:27","1","4","Test_3","74","j","1","1352","1920 x 1080","1920 x 1080","true","1","10","","","","",""
"null","<p style=""font-size: 80px;"">+ 10 points</p>","null","html-keyboard-response","66","667296","0.0-11.0-2.65","6152dd451286015f403f1455","j2n3sf","RS","42","M","{""name"":""Safari"",""safari"":true,""version"":""16.1"",""webkit"":true,""mac"":true,""osname"":""macOS"",""osversion"":""10.15.7"",""a"":true}","9:19:27","1","4","Test_4","70","f","1","1094","1920 x 1080","1920 x 1080","true","1","10","","","","",""
"null","<p style=""font-size: 80px;"">+ 10 points</p>","null","html-keyboard-response","67","670257","0.0-11.0-2.66","6152dd451286015f403f1455","j2n3sf","RS","42","M","{""name"":""Safari"",""safari"":true,""version"":""16.1"",""webkit"":true,""mac"":true,""osname"":""macOS"",""osversion"":""10.15.7"",""a"":true}","9:19:27","1","4","Test_1","74","j","1","952","1920 x 1080","1920 x 1080","true","1","10","","","","",""
"null","<p style=""font-size: 80px;"">+ 10 points</p>","null","html-keyboard-response","68","672913","0.0-11.0-2.67","6152dd451286015f403f1455","j2n3sf","RS","42","M","{""name"":""Safari"",""safari"":true,""version"":""16.1"",""webkit"":true,""mac"":true,""osname"":""macOS"",""osversion"":""10.15.7"",""a"":true}","9:19:27","1","4","Test_4","70","f","1","648","1920 x 1080","1920 x 1080","true","1","10","","","","",""
"null","<p style=""font-size: 80px;"">+ 10 points</p>","null","html-keyboard-response","69","676433","0.0-11.0-2.68","6152dd451286015f403f1455","j2n3sf","RS","42","M","{""name"":""Safari"",""safari"":true,""version"":""16.1"",""webkit"":true,""mac"":true,""osname"":""macOS"",""osversion"":""10.15.7"",""a"":true}","9:19:27","1","4","Test_2","70","f","1","1512","1920 x 1080","1920 x 1080","true","1","10","","","","",""
"null","<p style=""font-size: 80px;"">+ 10 points</p>","null","html-keyboard-response","70","679217","0.0-11.0-2.69","6152dd451286015f403f1455","j2n3sf","RS","42","M","{""name"":""Safari"",""safari"":true,""version"":""16.1"",""webkit"":true,""mac"":true,""osname"":""macOS"",""osversion"":""10.15.7"",""a"":true}","9:19:27","1","4","Test_2","70","f","1","776","1920 x 1080","1920 x 1080","true","1","10","","","","",""
"null","<p style=""font-size: 80px;"">+ 10 points</p>","null","html-keyboard-response","71","682096","0.0-11.0-2.70","6152dd451286015f403f1455","j2n3sf","RS","42","M","{""name"":""Safari"",""safari"":true,""version"":""16.1"",""webkit"":true,""mac"":true,""osname"":""macOS"",""osversion"":""10.15.7"",""a"":true}","9:19:27","1","4","Test_1","74","j","1","871.9999999998836","1920 x 1080","1920 x 1080","true","1","10","","","","",""
"null","<p style=""font-size: 80px;"">+ 10 points</p>","null","html-keyboard-response","72","685779","0.0-11.0-2.71","6152dd451286015f403f1455","j2n3sf","RS","42","M","{""name"":""Safari"",""safari"":true,""version"":""16.1"",""webkit"":true,""mac"":true,""osname"":""macOS"",""osversion"":""10.15.7"",""a"":true}","9:19:27","1","4","Test_1","74","j","1","1671.9999999998836","1920 x 1080","1920 x 1080","true","1","10","","","","",""
"null","<p style=""font-size: 80px;"">+ 10 points</p>","null","html-keyboard-response","73","688495","0.0-11.0-2.72","6152dd451286015f403f1455","j2n3sf","RS","42","M","{""name"":""Safari"",""safari"":true,""version"":""16.1"",""webkit"":true,""mac"":true,""osname"":""macOS"",""osversion"":""10.15.7"",""a"":true}","9:19:27","1","4","Test_2","70","f","1","706","1920 x 1080","1920 x 1080","true","1","10","","","","",""
"null","<p style=""font-size: 80px;"">+ 10 points</p>","null","html-keyboard-response","74","692417","0.0-11.0-2.73","6152dd451286015f403f1455","j2n3sf","RS","42","M","{""name"":""Safari"",""safari"":true,""version"":""16.1"",""webkit"":true,""mac"":true,""osname"":""macOS"",""osversion"":""10.15.7"",""a"":true}","9:19:27","1","4","Test_1","74","j","1","1913","1920 x 1080","1920 x 1080","true","1","10","","","","",""
"null","<p style=""font-size: 80px;"">+ 0 points</p>","null","html-keyboard-response","75","695761","0.0-11.0-2.74","6152dd451286015f403f1455","j2n3sf","RS","42","M","{""name"":""Safari"",""safari"":true,""version"":""16.1"",""webkit"":true,""mac"":true,""osname"":""macOS"",""osversion"":""10.15.7"",""a"":true}","9:19:27","1","4","Test_4","74","f","0","1336","1920 x 1080","1920 x 1080","true","1","0","","","","",""
"null","<p style=""font-size: 80px;"">+ 10 points</p>","null","html-keyboard-response","76","698668","0.0-11.0-2.75","6152dd451286015f403f1455","j2n3sf","RS","42","M","{""name"":""Safari"",""safari"":true,""version"":""16.1"",""webkit"":true,""mac"":true,""osname"":""macOS"",""osversion"":""10.15.7"",""a"":true}","9:19:27","1","4","Test_2","70","f","1","901.9999999998836","1920 x 1080","1920 x 1080","true","1","10","","","","",""
"null","<p style=""font-size: 80px;"">+ 10 points</p>","null","html-keyboard-response","77","702385","0.0-11.0-2.76","6152dd451286015f403f1455","j2n3sf","RS","42","M","{""name"":""Safari"",""safari"":true,""version"":""16.1"",""webkit"":true,""mac"":true,""osname"":""macOS"",""osversion"":""10.15.7"",""a"":true}","9:19:27","1","4","Test_3","74","j","1","1708.9999999998836","1920 x 1080","1920 x 1080","true","1","10","","","","",""
"null","<p style=""font-size: 80px;"">+ 10 points</p>","null","html-keyboard-response","78","705681","0.0-11.0-2.77","6152dd451286015f403f1455","j2n3sf","RS","42","M","{""name"":""Safari"",""safari"":true,""version"":""16.1"",""webkit"":true,""mac"":true,""osname"":""macOS"",""osversion"":""10.15.7"",""a"":true}","9:19:27","1","4","Test_1","74","j","1","1287","1920 x 1080","1920 x 1080","true","1","10","","","","",""
"null","<p style=""font-size: 80px;"">+ 0 points</p>","null","html-keyboard-response","79","709793","0.0-11.0-2.78","6152dd451286015f403f1455","j2n3sf","RS","42","M","{""name"":""Safari"",""safari"":true,""version"":""16.1"",""webkit"":true,""mac"":true,""osname"":""macOS"",""osversion"":""10.15.7"",""a"":true}","9:19:27","1","3","Test_3","74","f","0","2104","1920 x 1080","1920 x 1080","true","1","0","","","","",""
"null","<p style=""font-size: 80px;"">+ 10 points</p>","null","html-keyboard-response","80","712689","0.0-11.0-2.79","6152dd451286015f403f1455","j2n3sf","RS","42","M","{""name"":""Safari"",""safari"":true,""version"":""16.1"",""webkit"":true,""mac"":true,""osname"":""macOS"",""osversion"":""10.15.7"",""a"":true}","9:19:27","1","3","Test_2","74","j","1","887.9999999998836","1920 x 1080","1920 x 1080","true","1","10","","","","",""
"null","<p style=""font-size: 80px;"">+ 10 points</p>","null","html-keyboard-response","81","715488","0.0-11.0-2.80","6152dd451286015f403f1455","j2n3sf","RS","42","M","{""name"":""Safari"",""safari"":true,""version"":""16.1"",""webkit"":true,""mac"":true,""osname"":""macOS"",""osversion"":""10.15.7"",""a"":true}","9:19:27","1","3","Test_1","70","f","1","792","1920 x 1080","1920 x 1080","true","1","10","","","","",""
"null","<p style=""font-size: 80px;"">+ 10 points</p>","null","html-keyboard-response","82","718161","0.0-11.0-2.81","6152dd451286015f403f1455","j2n3sf","RS","42","M","{""name"":""Safari"",""safari"":true,""version"":""16.1"",""webkit"":true,""mac"":true,""osname"":""macOS"",""osversion"":""10.15.7"",""a"":true}","9:19:27","1","3","Test_1","70","f","1","665","1920 x 1080","1920 x 1080","true","1","10","","","","",""
"null","<p style=""font-size: 80px;"">+ 10 points</p>","null","html-keyboard-response","83","721073","0.0-11.0-2.82","6152dd451286015f403f1455","j2n3sf","RS","42","M","{""name"":""Safari"",""safari"":true,""version"":""16.1"",""webkit"":true,""mac"":true,""osname"":""macOS"",""osversion"":""10.15.7"",""a"":true}","9:19:27","1","3","Test_2","74","j","1","902","1920 x 1080","1920 x 1080","true","1","10","","","","",""
"null","<p style=""font-size: 80px;"">+ 10 points</p>","null","html-keyboard-response","84","724379","0.0-11.0-2.83","6152dd451286015f403f1455","j2n3sf","RS","42","M","{""name"":""Safari"",""safari"":true,""version"":""16.1"",""webkit"":true,""mac"":true,""osname"":""macOS"",""osversion"":""10.15.7"",""a"":true}","9:19:27","1","3","Test_4","74","j","1","1299","1920 x 1080","1920 x 1080","true","1","10","","","","",""
"null","<p style=""font-size: 80px;"">+ 10 points</p>","null","html-keyboard-response","85","727136","0.0-11.0-2.84","6152dd451286015f403f1455","j2n3sf","RS","42","M","{""name"":""Safari"",""safari"":true,""version"":""16.1"",""webkit"":true,""mac"":true,""osname"":""macOS"",""osversion"":""10.15.7"",""a"":true}","9:19:27","1","3","Test_1","70","f","1","749","1920 x 1080","1920 x 1080","true","1","10","","","","",""
"null","<p style=""font-size: 80px;"">+ 10 points</p>","null","html-keyboard-response","86","730096","0.0-11.0-2.85","6152dd451286015f403f1455","j2n3sf","RS","42","M","{""name"":""Safari"",""safari"":true,""version"":""16.1"",""webkit"":true,""mac"":true,""osname"":""macOS"",""osversion"":""10.15.7"",""a"":true}","9:19:27","1","3","Test_2","74","j","1","949.9999999998836","1920 x 1080","1920 x 1080","true","1","10","","","","",""
"null","<p style=""font-size: 80px;"">+ 10 points</p>","null","html-keyboard-response","87","733153","0.0-11.0-2.86","6152dd451286015f403f1455","j2n3sf","RS","42","M","{""name"":""Safari"",""safari"":true,""version"":""16.1"",""webkit"":true,""mac"":true,""osname"":""macOS"",""osversion"":""10.15.7"",""a"":true}","9:19:27","1","3","Test_3","70","f","1","1049","1920 x 1080","1920 x 1080","true","1","10","","","","",""
"null","<p style=""font-size: 80px;"">+ 10 points</p>","null","html-keyboard-response","88","736240","0.0-11.0-2.87","6152dd451286015f403f1455","j2n3sf","RS","42","M","{""name"":""Safari"",""safari"":true,""version"":""16.1"",""webkit"":true,""mac"":true,""osname"":""macOS"",""osversion"":""10.15.7"",""a"":true}","9:19:27","1","3","Test_4","74","j","1","1079","1920 x 1080","1920 x 1080","true","1","10","","","","",""
"null","<p style=""font-size: 80px;"">+ 10 points</p>","null","html-keyboard-response","89","739232","0.0-11.0-2.88","6152dd451286015f403f1455","j2n3sf","RS","42","M","{""name"":""Safari"",""safari"":true,""version"":""16.1"",""webkit"":true,""mac"":true,""osname"":""macOS"",""osversion"":""10.15.7"",""a"":true}","9:19:27","1","3","Test_3","70","f","1","985","1920 x 1080","1920 x 1080","true","1","10","","","","",""
"null","<p style=""font-size: 80px;"">+ 10 points</p>","null","html-keyboard-response","90","742464","0.0-11.0-2.89","6152dd451286015f403f1455","j2n3sf","RS","42","M","{""name"":""Safari"",""safari"":true,""version"":""16.1"",""webkit"":true,""mac"":true,""osname"":""macOS"",""osversion"":""10.15.7"",""a"":true}","9:19:27","1","3","Test_4","74","j","1","1225","1920 x 1080","1920 x 1080","true","1","10","","","","",""
"null","<p style=""font-size: 80px;"">+ 10 points</p>","null","html-keyboard-response","91","745119","0.0-11.0-2.90","6152dd451286015f403f1455","j2n3sf","RS","42","M","{""name"":""Safari"",""safari"":true,""version"":""16.1"",""webkit"":true,""mac"":true,""osname"":""macOS"",""osversion"":""10.15.7"",""a"":true}","9:19:27","1","3","Test_4","74","j","1","648","1920 x 1080","1920 x 1080","true","1","10","","","","",""
"null","<p style=""font-size: 80px;"">+ 10 points</p>","null","html-keyboard-response","92","747888","0.0-11.0-2.91","6152dd451286015f403f1455","j2n3sf","RS","42","M","{""name"":""Safari"",""safari"":true,""version"":""16.1"",""webkit"":true,""mac"":true,""osname"":""macOS"",""osversion"":""10.15.7"",""a"":true}","9:19:27","1","3","Test_3","70","f","1","759","1920 x 1080","1920 x 1080","true","1","10","","","","",""
"null","<p style=""font-size: 80px;"">+ 10 points</p>","null","html-keyboard-response","93","750448","0.0-11.0-2.92","6152dd451286015f403f1455","j2n3sf","RS","42","M","{""name"":""Safari"",""safari"":true,""version"":""16.1"",""webkit"":true,""mac"":true,""osname"":""macOS"",""osversion"":""10.15.7"",""a"":true}","9:19:27","1","3","Test_3","70","f","1","552.0000000001164","1920 x 1080","1920 x 1080","true","1","10","","","","",""
"null","<p style=""font-size: 80px;"">+ 10 points</p>","null","html-keyboard-response","94","754000","0.0-11.0-2.93","6152dd451286015f403f1455","j2n3sf","RS","42","M","{""name"":""Safari"",""safari"":true,""version"":""16.1"",""webkit"":true,""mac"":true,""osname"":""macOS"",""osversion"":""10.15.7"",""a"":true}","9:19:27","1","3","Test_1","70","f","1","1543","1920 x 1080","1920 x 1080","true","1","10","","","","",""
"null","<p style=""font-size: 80px;"">+ 10 points</p>","null","html-keyboard-response","95","756704","0.0-11.0-2.94","6152dd451286015f403f1455","j2n3sf","RS","42","M","{""name"":""Safari"",""safari"":true,""version"":""16.1"",""webkit"":true,""mac"":true,""osname"":""macOS"",""osversion"":""10.15.7"",""a"":true}","9:19:27","1","3","Test_4","74","j","1","697","1920 x 1080","1920 x 1080","true","1","10","","","","",""
"null","<p style=""font-size: 80px;"">+ 10 points</p>","null","html-keyboard-response","96","759712","0.0-11.0-2.95","6152dd451286015f403f1455","j2n3sf","RS","42","M","{""name"":""Safari"",""safari"":true,""version"":""16.1"",""webkit"":true,""mac"":true,""osname"":""macOS"",""osversion"":""10.15.7"",""a"":true}","9:19:27","1","3","Test_2","74","j","1","1001","1920 x 1080","1920 x 1080","true","1","10","","","","",""
"null","<p style=""font-size: 80px;"">+ 10 points</p>","null","html-keyboard-response","97","762368","0.0-11.0-2.96","6152dd451286015f403f1455","j2n3sf","RS","42","M","{""name"":""Safari"",""safari"":true,""version"":""16.1"",""webkit"":true,""mac"":true,""osname"":""macOS"",""osversion"":""10.15.7"",""a"":true}","9:19:27","1","3","Test_1","70","f","1","648","1920 x 1080","1920 x 1080","true","1","10","","","","",""
"null","<p style=""font-size: 80px;"">+ 0 points</p>","null","html-keyboard-response","98","765099","0.0-11.0-2.97","6152dd451286015f403f1455","j2n3sf","RS","42","M","{""name"":""Safari"",""safari"":true,""version"":""16.1"",""webkit"":true,""mac"":true,""osname"":""macOS"",""osversion"":""10.15.7"",""a"":true}","9:19:27","1","4","Test_4","74","f","0","723","1920 x 1080","1920 x 1080","true","1","0","","","","",""
"null","<p style=""font-size: 80px;"">+ 10 points</p>","null","html-keyboard-response","99","767904","0.0-11.0-2.98","6152dd451286015f403f1455","j2n3sf","RS","42","M","{""name"":""Safari"",""safari"":true,""version"":""16.1"",""webkit"":true,""mac"":true,""osname"":""macOS"",""osversion"":""10.15.7"",""a"":true}","9:19:27","1","4","Test_1","74","j","1","797","1920 x 1080","1920 x 1080","true","1","10","","","","",""
"null","<p style=""font-size: 80px;"">+ 10 points</p>","null","html-keyboard-response","100","770688","0.0-11.0-2.99","6152dd451286015f403f1455","j2n3sf","RS","42","M","{""name"":""Safari"",""safari"":true,""version"":""16.1"",""webkit"":true,""mac"":true,""osname"":""macOS"",""osversion"":""10.15.7"",""a"":true}","9:19:27","1","4","Test_1","74","j","1","774","1920 x 1080","1920 x 1080","true","1","10","","","","",""
"null","<p style=""font-size: 80px;"">+ 10 points</p>","null","html-keyboard-response","101","773919","0.0-11.0-2.100","6152dd451286015f403f1455","j2n3sf","RS","42","M","{""name"":""Safari"",""safari"":true,""version"":""16.1"",""webkit"":true,""mac"":true,""osname"":""macOS"",""osversion"":""10.15.7"",""a"":true}","9:19:27","1","4","Test_2","70","f","1","1223","1920 x 1080","1920 x 1080","true","1","10","","","","",""
"null","<p style=""font-size: 80px;"">+ 10 points</p>","null","html-keyboard-response","102","777071","0.0-11.0-2.101","6152dd451286015f403f1455","j2n3sf","RS","42","M","{""name"":""Safari"",""safari"":true,""version"":""16.1"",""webkit"":true,""mac"":true,""osname"":""macOS"",""osversion"":""10.15.7"",""a"":true}","9:19:27","1","4","Test_4","70","f","1","1145","1920 x 1080","1920 x 1080","true","1","10","","","","",""
"null","<p style=""font-size: 80px;"">+ 10 points</p>","null","html-keyboard-response","103","780095","0.0-11.0-2.102","6152dd451286015f403f1455","j2n3sf","RS","42","M","{""name"":""Safari"",""safari"":true,""version"":""16.1"",""webkit"":true,""mac"":true,""osname"":""macOS"",""osversion"":""10.15.7"",""a"":true}","9:19:27","1","4","Test_3","74","j","1","1016","1920 x 1080","1920 x 1080","true","1","10","","","","",""
"null","<p style=""font-size: 80px;"">+ 10 points</p>","null","html-keyboard-response","104","782994","0.0-11.0-2.103","6152dd451286015f403f1455","j2n3sf","RS","42","M","{""name"":""Safari"",""safari"":true,""version"":""16.1"",""webkit"":true,""mac"":true,""osname"":""macOS"",""osversion"":""10.15.7"",""a"":true}","9:19:27","1","4","Test_2","70","f","1","888","1920 x 1080","1920 x 1080","true","1","10","","","","",""
"null","<p style=""font-size: 80px;"">+ 10 points</p>","null","html-keyboard-response","105","785728","0.0-11.0-2.104","6152dd451286015f403f1455","j2n3sf","RS","42","M","{""name"":""Safari"",""safari"":true,""version"":""16.1"",""webkit"":true,""mac"":true,""osname"":""macOS"",""osversion"":""10.15.7"",""a"":true}","9:19:27","1","4","Test_3","74","j","1","724","1920 x 1080","1920 x 1080","true","1","10","","","","",""
"null","<p style=""font-size: 80px;"">+ 10 points</p>","null","html-keyboard-response","106","788367","0.0-11.0-2.105","6152dd451286015f403f1455","j2n3sf","RS","42","M","{""name"":""Safari"",""safari"":true,""version"":""16.1"",""webkit"":true,""mac"":true,""osname"":""macOS"",""osversion"":""10.15.7"",""a"":true}","9:19:27","1","4","Test_2","70","f","1","630","1920 x 1080","1920 x 1080","true","1","10","","","","",""
"null","<p style=""font-size: 80px;"">+ 10 points</p>","null","html-keyboard-response","107","791664","0.0-11.0-2.106","6152dd451286015f403f1455","j2n3sf","RS","42","M","{""name"":""Safari"",""safari"":true,""version"":""16.1"",""webkit"":true,""mac"":true,""osname"":""macOS"",""osversion"":""10.15.7"",""a"":true}","9:19:27","1","4","Test_4","70","f","1","1288","1920 x 1080","1920 x 1080","true","1","10","","","","",""
"null","<p style=""font-size: 80px;"">+ 10 points</p>","null","html-keyboard-response","108","794943","0.0-11.0-2.107","6152dd451286015f403f1455","j2n3sf","RS","42","M","{""name"":""Safari"",""safari"":true,""version"":""16.1"",""webkit"":true,""mac"":true,""osname"":""macOS"",""osversion"":""10.15.7"",""a"":true}","9:19:27","1","4","Test_3","74","j","1","1273","1920 x 1080","1920 x 1080","true","1","10","","","","",""
"null","<p style=""font-size: 80px;"">+ 10 points</p>","null","html-keyboard-response","109","797983","0.0-11.0-2.108","6152dd451286015f403f1455","j2n3sf","RS","42","M","{""name"":""Safari"",""safari"":true,""version"":""16.1"",""webkit"":true,""mac"":true,""osname"":""macOS"",""osversion"":""10.15.7"",""a"":true}","9:19:27","1","4","Test_2","70","f","1","1031","1920 x 1080","1920 x 1080","true","1","10","","","","",""
"null","<p style=""font-size: 80px;"">+ 0 points</p>","null","html-keyboard-response","110","837984","0.0-11.0-2.109","6152dd451286015f403f1455","j2n3sf","RS","42","M","{""name"":""Safari"",""safari"":true,""version"":""16.1"",""webkit"":true,""mac"":true,""osname"":""macOS"",""osversion"":""10.15.7"",""a"":true}","9:19:27","1","4","Test_4","74","f","0","1145.0000000001164","1920 x 1080","1920 x 1080","true","1","0","","","","",""
"null","<p style=""font-size: 80px;"">+ 10 points</p>","null","html-keyboard-response","111","840767","0.0-11.0-2.110","6152dd451286015f403f1455","j2n3sf","RS","42","M","{""name"":""Safari"",""safari"":true,""version"":""16.1"",""webkit"":true,""mac"":true,""osname"":""macOS"",""osversion"":""10.15.7"",""a"":true}","9:19:27","1","4","Test_1","74","j","1","772.0000000001164","1920 x 1080","1920 x 1080","true","1","10","","","","",""
"null","<p style=""font-size: 80px;"">+ 10 points</p>","null","html-keyboard-response","112","844191","0.0-11.0-2.111","6152dd451286015f403f1455","j2n3sf","RS","42","M","{""name"":""Safari"",""safari"":true,""version"":""16.1"",""webkit"":true,""mac"":true,""osname"":""macOS"",""osversion"":""10.15.7"",""a"":true}","9:19:27","1","4","Test_3","74","j","1","1416","1920 x 1080","1920 x 1080","true","1","10","","","","",""
"null","<p style=""font-size: 80px;"">+ 10 points</p>","null","html-keyboard-response","113","846892","0.0-11.0-2.112","6152dd451286015f403f1455","j2n3sf","RS","42","M","{""name"":""Safari"",""safari"":true,""version"":""16.1"",""webkit"":true,""mac"":true,""osname"":""macOS"",""osversion"":""10.15.7"",""a"":true}","9:19:27","1","4","Test_2","70","f","1","694","1920 x 1080","1920 x 1080","true","1","10","","","","",""
"null","<p style=""font-size: 80px;"">+ 10 points</p>","null","html-keyboard-response","114","849855","0.0-11.0-2.113","6152dd451286015f403f1455","j2n3sf","RS","42","M","{""name"":""Safari"",""safari"":true,""version"":""16.1"",""webkit"":true,""mac"":true,""osname"":""macOS"",""osversion"":""10.15.7"",""a"":true}","9:19:27","1","4","Test_3","74","j","1","955","1920 x 1080","1920 x 1080","true","1","10","","","","",""
"null","<p style=""font-size: 80px;"">+ 10 points</p>","null","html-keyboard-response","115","852880","0.0-11.0-2.114","6152dd451286015f403f1455","j2n3sf","RS","42","M","{""name"":""Safari"",""safari"":true,""version"":""16.1"",""webkit"":true,""mac"":true,""osname"":""macOS"",""osversion"":""10.15.7"",""a"":true}","9:19:27","1","4","Test_1","74","j","1","1017.9999999998836","1920 x 1080","1920 x 1080","true","1","10","","","","",""
"null","<p style=""font-size: 80px;"">+ 10 points</p>","null","html-keyboard-response","116","855710","0.0-11.0-2.115","6152dd451286015f403f1455","j2n3sf","RS","42","M","{""name"":""Safari"",""safari"":true,""version"":""16.1"",""webkit"":true,""mac"":true,""osname"":""macOS"",""osversion"":""10.15.7"",""a"":true}","9:19:27","1","4","Test_4","70","f","1","823","1920 x 1080","1920 x 1080","true","1","10","","","","",""
"null","<p style=""font-size: 80px;"">+ 10 points</p>","null","html-keyboard-response","117","858910","0.0-11.0-2.116","6152dd451286015f403f1455","j2n3sf","RS","42","M","{""name"":""Safari"",""safari"":true,""version"":""16.1"",""webkit"":true,""mac"":true,""osname"":""macOS"",""osversion"":""10.15.7"",""a"":true}","9:19:27","1","4","Test_2","70","f","1","1193.0000000001164","1920 x 1080","1920 x 1080","true","1","10","","","","",""
"null","<p style=""font-size: 80px;"">+ 10 points</p>","null","html-keyboard-response","118","862031","0.0-11.0-2.117","6152dd451286015f403f1455","j2n3sf","RS","42","M","{""name"":""Safari"",""safari"":true,""version"":""16.1"",""webkit"":true,""mac"":true,""osname"":""macOS"",""osversion"":""10.15.7"",""a"":true}","9:19:27","1","4","Test_1","74","j","1","1112","1920 x 1080","1920 x 1080","true","1","10","","","","",""
"null","<p style=""font-size: 80px;"">+ 10 points</p>","null","html-keyboard-response","119","864799","0.0-11.0-2.118","6152dd451286015f403f1455","j2n3sf","RS","42","M","{""name"":""Safari"",""safari"":true,""version"":""16.1"",""webkit"":true,""mac"":true,""osname"":""macOS"",""osversion"":""10.15.7"",""a"":true}","9:19:27","1","4","Test_4","70","f","1","757.9999999998836","1920 x 1080","1920 x 1080","true","1","10","","","","",""
"null","<p style=""font-size: 80px;"">+ 10 points</p>","null","html-keyboard-response","120","867678","0.0-11.0-2.119","6152dd451286015f403f1455","j2n3sf","RS","42","M","{""name"":""Safari"",""safari"":true,""version"":""16.1"",""webkit"":true,""mac"":true,""osname"":""macOS"",""osversion"":""10.15.7"",""a"":true}","9:19:27","1","4","Test_3","74","j","1","872","1920 x 1080","1920 x 1080","true","1","10","","","","",""
"null","<p style=""font-size: 80px;"">+ 10 points</p>","null","html-keyboard-response","121","870751","0.0-11.0-2.120","6152dd451286015f403f1455","j2n3sf","RS","42","M","{""name"":""Safari"",""safari"":true,""version"":""16.1"",""webkit"":true,""mac"":true,""osname"":""macOS"",""osversion"":""10.15.7"",""a"":true}","9:19:27","1","4","Test_1","74","j","1","1065","1920 x 1080","1920 x 1080","true","1","10","","","","",""
"null","<p style=""font-size: 80px;"">+ 0 points</p>","null","html-keyboard-response","122","873790","0.0-11.0-2.121","6152dd451286015f403f1455","j2n3sf","RS","42","M","{""name"":""Safari"",""safari"":true,""version"":""16.1"",""webkit"":true,""mac"":true,""osname"":""macOS"",""osversion"":""10.15.7"",""a"":true}","9:19:27","1","3","Test_2","70","j","0","1032","1920 x 1080","1920 x 1080","true","1","0","","","","",""
"null","<p style=""font-size: 80px;"">+ 10 points</p>","null","html-keyboard-response","123","877214","0.0-11.0-2.122","6152dd451286015f403f1455","j2n3sf","RS","42","M","{""name"":""Safari"",""safari"":true,""version"":""16.1"",""webkit"":true,""mac"":true,""osname"":""macOS"",""osversion"":""10.15.7"",""a"":true}","9:19:27","1","3","Test_2","74","j","1","1414","1920 x 1080","1920 x 1080","true","1","10","","","","",""
"null","<p style=""font-size: 80px;"">+ 10 points</p>","null","html-keyboard-response","124","880063","0.0-11.0-2.123","6152dd451286015f403f1455","j2n3sf","RS","42","M","{""name"":""Safari"",""safari"":true,""version"":""16.1"",""webkit"":true,""mac"":true,""osname"":""macOS"",""osversion"":""10.15.7"",""a"":true}","9:19:27","1","3","Test_4","74","j","1","841","1920 x 1080","1920 x 1080","true","1","10","","","","",""
"null","<p style=""font-size: 80px;"">+ 10 points</p>","null","html-keyboard-response","125","883151","0.0-11.0-2.124","6152dd451286015f403f1455","j2n3sf","RS","42","M","{""name"":""Safari"",""safari"":true,""version"":""16.1"",""webkit"":true,""mac"":true,""osname"":""macOS"",""osversion"":""10.15.7"",""a"":true}","9:19:27","1","3","Test_3","70","f","1","1079","1920 x 1080","1920 x 1080","true","1","10","","","","",""
"null","<p style=""font-size: 80px;"">+ 10 points</p>","null","html-keyboard-response","126","886238","0.0-11.0-2.125","6152dd451286015f403f1455","j2n3sf","RS","42","M","{""name"":""Safari"",""safari"":true,""version"":""16.1"",""webkit"":true,""mac"":true,""osname"":""macOS"",""osversion"":""10.15.7"",""a"":true}","9:19:27","1","3","Test_3","70","f","1","1080","1920 x 1080","1920 x 1080","true","1","10","","","","",""
"null","<p style=""font-size: 80px;"">+ 10 points</p>","null","html-keyboard-response","127","889278","0.0-11.0-2.126","6152dd451286015f403f1455","j2n3sf","RS","42","M","{""name"":""Safari"",""safari"":true,""version"":""16.1"",""webkit"":true,""mac"":true,""osname"":""macOS"",""osversion"":""10.15.7"",""a"":true}","9:19:27","1","3","Test_1","70","f","1","1031.9999999998836","1920 x 1080","1920 x 1080","true","1","10","","","","",""
"null","<p style=""font-size: 80px;"">+ 10 points</p>","null","html-keyboard-response","128","893360","0.0-11.0-2.127","6152dd451286015f403f1455","j2n3sf","RS","42","M","{""name"":""Safari"",""safari"":true,""version"":""16.1"",""webkit"":true,""mac"":true,""osname"":""macOS"",""osversion"":""10.15.7"",""a"":true}","9:19:27","1","3","Test_3","70","f","1","2074","1920 x 1080","1920 x 1080","true","1","10","","","","",""
"null","<p style=""font-size: 80px;"">+ 10 points</p>","null","html-keyboard-response","129","896223","0.0-11.0-2.128","6152dd451286015f403f1455","j2n3sf","RS","42","M","{""name"":""Safari"",""safari"":true,""version"":""16.1"",""webkit"":true,""mac"":true,""osname"":""macOS"",""osversion"":""10.15.7"",""a"":true}","9:19:27","1","3","Test_1","70","f","1","856","1920 x 1080","1920 x 1080","true","1","10","","","","",""
"null","<p style=""font-size: 80px;"">+ 10 points</p>","null","html-keyboard-response","130","898958","0.0-11.0-2.129","6152dd451286015f403f1455","j2n3sf","RS","42","M","{""name"":""Safari"",""safari"":true,""version"":""16.1"",""webkit"":true,""mac"":true,""osname"":""macOS"",""osversion"":""10.15.7"",""a"":true}","9:19:27","1","3","Test_4","74","j","1","726","1920 x 1080","1920 x 1080","true","1","10","","","","",""
"null","<p style=""font-size: 80px;"">+ 10 points</p>","null","html-keyboard-response","131","901966","0.0-11.0-2.130","6152dd451286015f403f1455","j2n3sf","RS","42","M","{""name"":""Safari"",""safari"":true,""version"":""16.1"",""webkit"":true,""mac"":true,""osname"":""macOS"",""osversion"":""10.15.7"",""a"":true}","9:19:27","1","3","Test_2","74","j","1","1000","1920 x 1080","1920 x 1080","true","1","10","","","","",""
"null","<p style=""font-size: 80px;"">+ 10 points</p>","null","html-keyboard-response","132","905678","0.0-11.0-2.131","6152dd451286015f403f1455","j2n3sf","RS","42","M","{""name"":""Safari"",""safari"":true,""version"":""16.1"",""webkit"":true,""mac"":true,""osname"":""macOS"",""osversion"":""10.15.7"",""a"":true}","9:19:27","1","3","Test_4","74","j","1","1704","1920 x 1080","1920 x 1080","true","1","10","","","","",""
"null","<p style=""font-size: 80px;"">+ 10 points</p>","null","html-keyboard-response","133","908430","0.0-11.0-2.132","6152dd451286015f403f1455","j2n3sf","RS","42","M","{""name"":""Safari"",""safari"":true,""version"":""16.1"",""webkit"":true,""mac"":true,""osname"":""macOS"",""osversion"":""10.15.7"",""a"":true}","9:19:27","1","3","Test_3","70","f","1","743","1920 x 1080","1920 x 1080","true","1","10","","","","",""
"null","<p style=""font-size: 80px;"">+ 10 points</p>","null","html-keyboard-response","134","911230","0.0-11.0-2.133","6152dd451286015f403f1455","j2n3sf","RS","42","M","{""name"":""Safari"",""safari"":true,""version"":""16.1"",""webkit"":true,""mac"":true,""osname"":""macOS"",""osversion"":""10.15.7"",""a"":true}","9:19:27","1","3","Test_2","74","j","1","791.9999999998836","1920 x 1080","1920 x 1080","true","1","10","","","","",""
"null","<p style=""font-size: 80px;"">+ 10 points</p>","null","html-keyboard-response","135","914143","0.0-11.0-2.134","6152dd451286015f403f1455","j2n3sf","RS","42","M","{""name"":""Safari"",""safari"":true,""version"":""16.1"",""webkit"":true,""mac"":true,""osname"":""macOS"",""osversion"":""10.15.7"",""a"":true}","9:19:27","1","3","Test_4","74","j","1","902.9999999998836","1920 x 1080","1920 x 1080","true","1","10","","","","",""
"null","<p style=""font-size: 80px;"">+ 10 points</p>","null","html-keyboard-response","136","916926","0.0-11.0-2.135","6152dd451286015f403f1455","j2n3sf","RS","42","M","{""name"":""Safari"",""safari"":true,""version"":""16.1"",""webkit"":true,""mac"":true,""osname"":""macOS"",""osversion"":""10.15.7"",""a"":true}","9:19:27","1","3","Test_4","74","j","1","775","1920 x 1080","1920 x 1080","true","1","10","","","","",""
"null","<p style=""font-size: 80px;"">+ 10 points</p>","null","html-keyboard-response","137","919774","0.0-11.0-2.136","6152dd451286015f403f1455","j2n3sf","RS","42","M","{""name"":""Safari"",""safari"":true,""version"":""16.1"",""webkit"":true,""mac"":true,""osname"":""macOS"",""osversion"":""10.15.7"",""a"":true}","9:19:27","1","3","Test_3","70","f","1","840","1920 x 1080","1920 x 1080","true","1","10","","","","",""
"null","<p style=""font-size: 80px;"">+ 10 points</p>","null","html-keyboard-response","138","922734","0.0-11.0-2.137","6152dd451286015f403f1455","j2n3sf","RS","42","M","{""name"":""Safari"",""safari"":true,""version"":""16.1"",""webkit"":true,""mac"":true,""osname"":""macOS"",""osversion"":""10.15.7"",""a"":true}","9:19:27","1","3","Test_2","74","j","1","952","1920 x 1080","1920 x 1080","true","1","10","","","","",""
"null","<p style=""font-size: 80px;"">+ 10 points</p>","null","html-keyboard-response","139","926030","0.0-11.0-2.138","6152dd451286015f403f1455","j2n3sf","RS","42","M","{""name"":""Safari"",""safari"":true,""version"":""16.1"",""webkit"":true,""mac"":true,""osname"":""macOS"",""osversion"":""10.15.7"",""a"":true}","9:19:27","1","3","Test_1","70","f","1","1288","1920 x 1080","1920 x 1080","true","1","10","","","","",""
"null","<p style=""font-size: 80px;"">+ 10 points</p>","null","html-keyboard-response","140","929438","0.0-11.0-2.139","6152dd451286015f403f1455","j2n3sf","RS","42","M","{""name"":""Safari"",""safari"":true,""version"":""16.1"",""webkit"":true,""mac"":true,""osname"":""macOS"",""osversion"":""10.15.7"",""a"":true}","9:19:27","1","3","Test_1","70","f","1","1399.9999999998836","1920 x 1080","1920 x 1080","true","1","10","","","","",""
"null","<p style=""font-size: 80px;"">+ 0 points</p>","null","html-keyboard-response","141","932381","0.0-11.0-2.140","6152dd451286015f403f1455","j2n3sf","RS","42","M","{""name"":""Safari"",""safari"":true,""version"":""16.1"",""webkit"":true,""mac"":true,""osname"":""macOS"",""osversion"":""10.15.7"",""a"":true}","9:19:27","1","4","Test_1","70","j","0","937","1920 x 1080","1920 x 1080","true","1","0","","","","",""
"null","<p style=""font-size: 80px;"">+ 10 points</p>","null","html-keyboard-response","142","936861","0.0-11.0-2.141","6152dd451286015f403f1455","j2n3sf","RS","42","M","{""name"":""Safari"",""safari"":true,""version"":""16.1"",""webkit"":true,""mac"":true,""osname"":""macOS"",""osversion"":""10.15.7"",""a"":true}","9:19:27","1","4","Test_2","70","f","1","2472.9999999998836","1920 x 1080","1920 x 1080","true","1","10","","","","",""
"null","<p style=""font-size: 80px;"">+ 10 points</p>","null","html-keyboard-response","143","940077","0.0-11.0-2.142","6152dd451286015f403f1455","j2n3sf","RS","42","M","{""name"":""Safari"",""safari"":true,""version"":""16.1"",""webkit"":true,""mac"":true,""osname"":""macOS"",""osversion"":""10.15.7"",""a"":true}","9:19:27","1","4","Test_2","70","f","1","1209","1920 x 1080","1920 x 1080","true","1","10","","","","",""
"null","<p style=""font-size: 80px;"">+ 10 points</p>","null","html-keyboard-response","144","942767","0.0-11.0-2.143","6152dd451286015f403f1455","j2n3sf","RS","42","M","{""name"":""Safari"",""safari"":true,""version"":""16.1"",""webkit"":true,""mac"":true,""osname"":""macOS"",""osversion"":""10.15.7"",""a"":true}","9:19:27","1","4","Test_1","74","j","1","678","1920 x 1080","1920 x 1080","true","1","10","","","","",""
"null","<p style=""font-size: 80px;"">+ 10 points</p>","null","html-keyboard-response","145","945438","0.0-11.0-2.144","6152dd451286015f403f1455","j2n3sf","RS","42","M","{""name"":""Safari"",""safari"":true,""version"":""16.1"",""webkit"":true,""mac"":true,""osname"":""macOS"",""osversion"":""10.15.7"",""a"":true}","9:19:27","1","4","Test_1","74","j","1","662","1920 x 1080","1920 x 1080","true","1","10","","","","",""
"null","<p style=""font-size: 80px;"">+ 10 points</p>","null","html-keyboard-response","146","948654","0.0-11.0-2.145","6152dd451286015f403f1455","j2n3sf","RS","42","M","{""name"":""Safari"",""safari"":true,""version"":""16.1"",""webkit"":true,""mac"":true,""osname"":""macOS"",""osversion"":""10.15.7"",""a"":true}","9:19:27","1","4","Test_3","74","j","1","1207","1920 x 1080","1920 x 1080","true","1","10","","","","",""
"null","<p style=""font-size: 80px;"">+ 10 points</p>","null","html-keyboard-response","147","952061","0.0-11.0-2.146","6152dd451286015f403f1455","j2n3sf","RS","42","M","{""name"":""Safari"",""safari"":true,""version"":""16.1"",""webkit"":true,""mac"":true,""osname"":""macOS"",""osversion"":""10.15.7"",""a"":true}","9:19:27","1","4","Test_1","74","j","1","1400.0000000001164","1920 x 1080","1920 x 1080","true","1","10","","","","",""
"null","<p style=""font-size: 80px;"">+ 10 points</p>","null","html-keyboard-response","148","955038","0.0-11.0-2.147","6152dd451286015f403f1455","j2n3sf","RS","42","M","{""name"":""Safari"",""safari"":true,""version"":""16.1"",""webkit"":true,""mac"":true,""osname"":""macOS"",""osversion"":""10.15.7"",""a"":true}","9:19:27","1","4","Test_4","70","f","1","970","1920 x 1080","1920 x 1080","true","1","10","","","","",""
"null","<p style=""font-size: 80px;"">+ 10 points</p>","null","html-keyboard-response","149","958109","0.0-11.0-2.148","6152dd451286015f403f1455","j2n3sf","RS","42","M","{""name"":""Safari"",""safari"":true,""version"":""16.1"",""webkit"":true,""mac"":true,""osname"":""macOS"",""osversion"":""10.15.7"",""a"":true}","9:19:27","1","4","Test_2","70","f","1","1064","1920 x 1080","1920 x 1080","true","1","10","","","","",""
"null","<p style=""font-size: 80px;"">+ 0 points</p>","null","html-keyboard-response","150","960861","0.0-11.0-2.149","6152dd451286015f403f1455","j2n3sf","RS","42","M","{""name"":""Safari"",""safari"":true,""version"":""16.1"",""webkit"":true,""mac"":true,""osname"":""macOS"",""osversion"":""10.15.7"",""a"":true}","9:19:27","1","4","Test_4","74","f","0","745","1920 x 1080","1920 x 1080","true","1","0","","","","",""
"null","<p style=""font-size: 80px;"">+ 10 points</p>","null","html-keyboard-response","151","964317","0.0-11.0-2.150","6152dd451286015f403f1455","j2n3sf","RS","42","M","{""name"":""Safari"",""safari"":true,""version"":""16.1"",""webkit"":true,""mac"":true,""osname"":""macOS"",""osversion"":""10.15.7"",""a"":true}","9:19:27","1","4","Test_3","74","j","1","1447.9999999998836","1920 x 1080","1920 x 1080","true","1","10","","","","",""
