"rt","stimulus","key_press","trial_type","trial_index","time_elapsed","internal_node_id","Prolific_ID","random_ID","initials","age","gender","pc_info","start_time","Phase","Rule","Stimulus","Response","CorrResp","Accuracy","ResponseTime","screen_resolution","window_resolution","focus","relevant","Points","responses","question_order","rev_check","butterfly_check","passed_practice"
"null","<p style=""font-size: 80px;"">+ 10 points</p>","null","html-keyboard-response","1","60501","0.0-7.0-2.0","571cc797e1d2ec0012a689a0","a5atyk","NG","36","F","{""name"":""Chrome"",""chrome"":true,""version"":""106.0"",""blink"":true,""mac"":true,""osname"":""macOS"",""osversion"":""10.15.7"",""a"":true}","9:21:21","0","1","Practice_3","70","f","1","4118.099999904633","2240 x 1260","2240 x 1260","true","1","10","","","","",""
"null","<p style=""font-size: 80px;"">+ 10 points</p>","null","html-keyboard-response","2","63742","0.0-7.0-2.1","571cc797e1d2ec0012a689a0","a5atyk","NG","36","F","{""name"":""Chrome"",""chrome"":true,""version"":""106.0"",""blink"":true,""mac"":true,""osname"":""macOS"",""osversion"":""10.15.7"",""a"":true}","9:21:21","0","1","Practice_4","74","j","1","1228.3000001907349","2240 x 1260","2240 x 1260","true","1","10","","","","",""
"null","<p style=""font-size: 80px;"">+ 10 points</p>","null","html-keyboard-response","3","67055","0.0-7.0-2.2","571cc797e1d2ec0012a689a0","a5atyk","NG","36","F","{""name"":""Chrome"",""chrome"":true,""version"":""106.0"",""blink"":true,""mac"":true,""osname"":""macOS"",""osversion"":""10.15.7"",""a"":true}","9:21:21","0","1","Practice_2","74","j","1","1301.7999999523163","2240 x 1260","2240 x 1260","true","1","10","","","","",""
"null","<p style=""font-size: 80px;"">+ 10 points</p>","null","html-keyboard-response","4","71843","0.0-7.0-2.3","571cc797e1d2ec0012a689a0","a5atyk","NG","36","F","{""name"":""Chrome"",""chrome"":true,""version"":""106.0"",""blink"":true,""mac"":true,""osname"":""macOS"",""osversion"":""10.15.7"",""a"":true}","9:21:21","0","1","Practice_4","74","j","1","2778.100000143051","2240 x 1260","2240 x 1260","true","1","10","","","","",""
"null","<p style=""font-size: 80px;"">+ 10 points</p>","null","html-keyboard-response","5","75163","0.0-7.0-2.4","571cc797e1d2ec0012a689a0","a5atyk","NG","36","F","{""name"":""Chrome"",""chrome"":true,""version"":""106.0"",""blink"":true,""mac"":true,""osname"":""macOS"",""osversion"":""10.15.7"",""a"":true}","9:21:21","0","1","Practice_3","70","f","1","1314","2240 x 1260","2240 x 1260","true","1","10","","","","",""
"null","<p style=""font-size: 80px;"">+ 10 points</p>","null","html-keyboard-response","6","77895","0.0-7.0-2.5","571cc797e1d2ec0012a689a0","a5atyk","NG","36","F","{""name"":""Chrome"",""chrome"":true,""version"":""106.0"",""blink"":true,""mac"":true,""osname"":""macOS"",""osversion"":""10.15.7"",""a"":true}","9:21:21","0","1","Practice_3","70","f","1","724.7999999523163","2240 x 1260","2240 x 1260","true","1","10","","","","",""
"null","<p style=""font-size: 80px;"">+ 10 points</p>","null","html-keyboard-response","7","80988","0.0-7.0-2.6","571cc797e1d2ec0012a689a0","a5atyk","NG","36","F","{""name"":""Chrome"",""chrome"":true,""version"":""106.0"",""blink"":true,""mac"":true,""osname"":""macOS"",""osversion"":""10.15.7"",""a"":true}","9:21:21","0","1","Practice_2","74","j","1","1085.3999998569489","2240 x 1260","2240 x 1260","true","1","10","","","","",""
"null","<p style=""font-size: 80px;"">+ 10 points</p>","null","html-keyboard-response","8","83689","0.0-7.0-2.7","571cc797e1d2ec0012a689a0","a5atyk","NG","36","F","{""name"":""Chrome"",""chrome"":true,""version"":""106.0"",""blink"":true,""mac"":true,""osname"":""macOS"",""osversion"":""10.15.7"",""a"":true}","9:21:21","0","1","Practice_2","74","j","1","688.5999999046326","2240 x 1260","2240 x 1260","true","1","10","","","","",""
"null","<p style=""font-size: 80px;"">+ 10 points</p>","null","html-keyboard-response","9","86541","0.0-7.0-2.8","571cc797e1d2ec0012a689a0","a5atyk","NG","36","F","{""name"":""Chrome"",""chrome"":true,""version"":""106.0"",""blink"":true,""mac"":true,""osname"":""macOS"",""osversion"":""10.15.7"",""a"":true}","9:21:21","0","1","Practice_1","70","f","1","842.6000001430511","2240 x 1260","2240 x 1260","true","1","10","","","","",""
"null","<p style=""font-size: 80px;"">+ 10 points</p>","null","html-keyboard-response","10","89455","0.0-7.0-2.9","571cc797e1d2ec0012a689a0","a5atyk","NG","36","F","{""name"":""Chrome"",""chrome"":true,""version"":""106.0"",""blink"":true,""mac"":true,""osname"":""macOS"",""osversion"":""10.15.7"",""a"":true}","9:21:21","0","1","Practice_1","70","f","1","902.4000000953674","2240 x 1260","2240 x 1260","true","1","10","","","","",""
"null","<p style=""font-size: 80px;"">+ 10 points</p>","null","html-keyboard-response","11","92362","0.0-7.0-2.10","571cc797e1d2ec0012a689a0","a5atyk","NG","36","F","{""name"":""Chrome"",""chrome"":true,""version"":""106.0"",""blink"":true,""mac"":true,""osname"":""macOS"",""osversion"":""10.15.7"",""a"":true}","9:21:21","0","1","Practice_1","70","f","1","896.0999999046326","2240 x 1260","2240 x 1260","true","1","10","","","","",""
"null","<p style=""font-size: 80px;"">+ 10 points</p>","null","html-keyboard-response","12","95361","0.0-7.0-2.11","571cc797e1d2ec0012a689a0","a5atyk","NG","36","F","{""name"":""Chrome"",""chrome"":true,""version"":""106.0"",""blink"":true,""mac"":true,""osname"":""macOS"",""osversion"":""10.15.7"",""a"":true}","9:21:21","0","1","Practice_4","74","j","1","987.2000000476837","2240 x 1260","2240 x 1260","true","1","10","","","","",""
"null","<p style=""font-size: 80px;"">+ 10 points</p>","null","html-keyboard-response","13","99018","0.0-7.0-2.12","571cc797e1d2ec0012a689a0","a5atyk","NG","36","F","{""name"":""Chrome"",""chrome"":true,""version"":""106.0"",""blink"":true,""mac"":true,""osname"":""macOS"",""osversion"":""10.15.7"",""a"":true}","9:21:21","0","1","Practice_1","70","f","1","1652.1999998092651","2240 x 1260","2240 x 1260","true","1","10","","","","",""
"null","<p style=""font-size: 80px;"">+ 10 points</p>","null","html-keyboard-response","14","101869","0.0-7.0-2.13","571cc797e1d2ec0012a689a0","a5atyk","NG","36","F","{""name"":""Chrome"",""chrome"":true,""version"":""106.0"",""blink"":true,""mac"":true,""osname"":""macOS"",""osversion"":""10.15.7"",""a"":true}","9:21:21","0","1","Practice_2","74","j","1","841","2240 x 1260","2240 x 1260","true","1","10","","","","",""
"null","<p style=""font-size: 80px;"">+ 10 points</p>","null","html-keyboard-response","15","105069","0.0-7.0-2.14","571cc797e1d2ec0012a689a0","a5atyk","NG","36","F","{""name"":""Chrome"",""chrome"":true,""version"":""106.0"",""blink"":true,""mac"":true,""osname"":""macOS"",""osversion"":""10.15.7"",""a"":true}","9:21:21","0","1","Practice_3","70","f","1","1190.5999999046326","2240 x 1260","2240 x 1260","true","1","10","","","","",""
"null","<p style=""font-size: 80px;"">+ 10 points</p>","null","html-keyboard-response","16","108558","0.0-7.0-2.15","571cc797e1d2ec0012a689a0","a5atyk","NG","36","F","{""name"":""Chrome"",""chrome"":true,""version"":""106.0"",""blink"":true,""mac"":true,""osname"":""macOS"",""osversion"":""10.15.7"",""a"":true}","9:21:21","0","1","Practice_1","70","f","1","1480.7999999523163","2240 x 1260","2240 x 1260","true","1","10","","","","",""
"null","<p style=""font-size: 80px;"">+ 10 points</p>","null","html-keyboard-response","17","111755","0.0-7.0-2.16","571cc797e1d2ec0012a689a0","a5atyk","NG","36","F","{""name"":""Chrome"",""chrome"":true,""version"":""106.0"",""blink"":true,""mac"":true,""osname"":""macOS"",""osversion"":""10.15.7"",""a"":true}","9:21:21","0","1","Practice_4","74","j","1","1185.5999999046326","2240 x 1260","2240 x 1260","true","1","10","","","","",""
"null","<p style=""font-size: 80px;"">+ 10 points</p>","null","html-keyboard-response","18","114634","0.0-7.0-2.17","571cc797e1d2ec0012a689a0","a5atyk","NG","36","F","{""name"":""Chrome"",""chrome"":true,""version"":""106.0"",""blink"":true,""mac"":true,""osname"":""macOS"",""osversion"":""10.15.7"",""a"":true}","9:21:21","0","1","Practice_3","70","f","1","869.5","2240 x 1260","2240 x 1260","true","1","10","","","","",""
"null","<p style=""font-size: 80px;"">+ 10 points</p>","null","html-keyboard-response","19","117979","0.0-7.0-2.18","571cc797e1d2ec0012a689a0","a5atyk","NG","36","F","{""name"":""Chrome"",""chrome"":true,""version"":""106.0"",""blink"":true,""mac"":true,""osname"":""macOS"",""osversion"":""10.15.7"",""a"":true}","9:21:21","0","1","Practice_2","74","j","1","1335.4000000953674","2240 x 1260","2240 x 1260","true","1","10","","","","",""
"null","<p style=""font-size: 80px;"">+ 10 points</p>","null","html-keyboard-response","20","121759","0.0-7.0-2.19","571cc797e1d2ec0012a689a0","a5atyk","NG","36","F","{""name"":""Chrome"",""chrome"":true,""version"":""106.0"",""blink"":true,""mac"":true,""osname"":""macOS"",""osversion"":""10.15.7"",""a"":true}","9:21:21","0","1","Practice_4","74","j","1","1774","2240 x 1260","2240 x 1260","true","1","10","","","","",""
"null","<p style=""font-size: 80px;"">+ 0 points</p>","null","html-keyboard-response","21","124880","0.0-7.0-2.20","571cc797e1d2ec0012a689a0","a5atyk","NG","36","F","{""name"":""Chrome"",""chrome"":true,""version"":""106.0"",""blink"":true,""mac"":true,""osname"":""macOS"",""osversion"":""10.15.7"",""a"":true}","9:21:21","0","2","Practice_3","70","j","0","1111.0999999046326","2240 x 1260","2240 x 1260","true","1","0","","","","",""
"null","<p style=""font-size: 80px;"">+ 0 points</p>","null","html-keyboard-response","22","128569","0.0-7.0-2.21","571cc797e1d2ec0012a689a0","a5atyk","NG","36","F","{""name"":""Chrome"",""chrome"":true,""version"":""106.0"",""blink"":true,""mac"":true,""osname"":""macOS"",""osversion"":""10.15.7"",""a"":true}","9:21:21","0","2","Practice_4","74","f","0","1681.0999999046326","2240 x 1260","2240 x 1260","true","1","0","","","","",""
"null","<p style=""font-size: 80px;"">+ 10 points</p>","null","html-keyboard-response","23","131811","0.0-7.0-2.22","571cc797e1d2ec0012a689a0","a5atyk","NG","36","F","{""name"":""Chrome"",""chrome"":true,""version"":""106.0"",""blink"":true,""mac"":true,""osname"":""macOS"",""osversion"":""10.15.7"",""a"":true}","9:21:21","0","2","Practice_4","70","f","1","1230.5999999046326","2240 x 1260","2240 x 1260","true","1","10","","","","",""
"null","<p style=""font-size: 80px;"">+ 10 points</p>","null","html-keyboard-response","24","135229","0.0-7.0-2.23","571cc797e1d2ec0012a689a0","a5atyk","NG","36","F","{""name"":""Chrome"",""chrome"":true,""version"":""106.0"",""blink"":true,""mac"":true,""osname"":""macOS"",""osversion"":""10.15.7"",""a"":true}","9:21:21","0","2","Practice_4","70","f","1","1414.1999998092651","2240 x 1260","2240 x 1260","true","1","10","","","","",""
"null","<p style=""font-size: 80px;"">+ 10 points</p>","null","html-keyboard-response","25","138650","0.0-7.0-2.24","571cc797e1d2ec0012a689a0","a5atyk","NG","36","F","{""name"":""Chrome"",""chrome"":true,""version"":""106.0"",""blink"":true,""mac"":true,""osname"":""macOS"",""osversion"":""10.15.7"",""a"":true}","9:21:21","0","2","Practice_3","74","j","1","1409.5","2240 x 1260","2240 x 1260","true","1","10","","","","",""
"null","<p style=""font-size: 80px;"">+ 10 points</p>","null","html-keyboard-response","26","141886","0.0-7.0-2.25","571cc797e1d2ec0012a689a0","a5atyk","NG","36","F","{""name"":""Chrome"",""chrome"":true,""version"":""106.0"",""blink"":true,""mac"":true,""osname"":""macOS"",""osversion"":""10.15.7"",""a"":true}","9:21:21","0","2","Practice_4","70","f","1","1230.3000001907349","2240 x 1260","2240 x 1260","true","1","10","","","","",""
"null","<p style=""font-size: 80px;"">+ 10 points</p>","null","html-keyboard-response","27","145580","0.0-7.0-2.26","571cc797e1d2ec0012a689a0","a5atyk","NG","36","F","{""name"":""Chrome"",""chrome"":true,""version"":""106.0"",""blink"":true,""mac"":true,""osname"":""macOS"",""osversion"":""10.15.7"",""a"":true}","9:21:21","0","2","Practice_2","70","f","1","1684.7999999523163","2240 x 1260","2240 x 1260","true","1","10","","","","",""
"null","<p style=""font-size: 80px;"">+ 10 points</p>","null","html-keyboard-response","28","149182","0.0-7.0-2.27","571cc797e1d2ec0012a689a0","a5atyk","NG","36","F","{""name"":""Chrome"",""chrome"":true,""version"":""106.0"",""blink"":true,""mac"":true,""osname"":""macOS"",""osversion"":""10.15.7"",""a"":true}","9:21:21","0","2","Practice_3","74","j","1","1590","2240 x 1260","2240 x 1260","true","1","10","","","","",""
"null","<p style=""font-size: 80px;"">+ 10 points</p>","null","html-keyboard-response","29","152779","0.0-7.0-2.28","571cc797e1d2ec0012a689a0","a5atyk","NG","36","F","{""name"":""Chrome"",""chrome"":true,""version"":""106.0"",""blink"":true,""mac"":true,""osname"":""macOS"",""osversion"":""10.15.7"",""a"":true}","9:21:21","0","2","Practice_1","74","j","1","1590.2999999523163","2240 x 1260","2240 x 1260","true","1","10","","","","",""
"null","<p style=""font-size: 80px;"">+ 10 points</p>","null","html-keyboard-response","30","156053","0.0-7.0-2.29","571cc797e1d2ec0012a689a0","a5atyk","NG","36","F","{""name"":""Chrome"",""chrome"":true,""version"":""106.0"",""blink"":true,""mac"":true,""osname"":""macOS"",""osversion"":""10.15.7"",""a"":true}","9:21:21","0","2","Practice_2","70","f","1","1261.2999999523163","2240 x 1260","2240 x 1260","true","1","10","","","","",""
"null","<p style=""font-size: 80px;"">+ 10 points</p>","null","html-keyboard-response","31","159385","0.0-7.0-2.30","571cc797e1d2ec0012a689a0","a5atyk","NG","36","F","{""name"":""Chrome"",""chrome"":true,""version"":""106.0"",""blink"":true,""mac"":true,""osname"":""macOS"",""osversion"":""10.15.7"",""a"":true}","9:21:21","0","2","Practice_1","74","j","1","1320.7000000476837","2240 x 1260","2240 x 1260","true","1","10","","","","",""
"null","<p style=""font-size: 80px;"">+ 10 points</p>","null","html-keyboard-response","32","164655","0.0-7.0-2.31","571cc797e1d2ec0012a689a0","a5atyk","NG","36","F","{""name"":""Chrome"",""chrome"":true,""version"":""106.0"",""blink"":true,""mac"":true,""osname"":""macOS"",""osversion"":""10.15.7"",""a"":true}","9:21:21","0","2","Practice_2","70","f","1","3260.4000000953674","2240 x 1260","2240 x 1260","true","1","10","","","","",""
"null","<p style=""font-size: 80px;"">+ 10 points</p>","null","html-keyboard-response","33","168079","0.0-7.0-2.32","571cc797e1d2ec0012a689a0","a5atyk","NG","36","F","{""name"":""Chrome"",""chrome"":true,""version"":""106.0"",""blink"":true,""mac"":true,""osname"":""macOS"",""osversion"":""10.15.7"",""a"":true}","9:21:21","0","2","Practice_1","74","j","1","1414.8999998569489","2240 x 1260","2240 x 1260","true","1","10","","","","",""
"null","<p style=""font-size: 80px;"">+ 10 points</p>","null","html-keyboard-response","34","171978","0.0-7.0-2.33","571cc797e1d2ec0012a689a0","a5atyk","NG","36","F","{""name"":""Chrome"",""chrome"":true,""version"":""106.0"",""blink"":true,""mac"":true,""osname"":""macOS"",""osversion"":""10.15.7"",""a"":true}","9:21:21","0","2","Practice_2","70","f","1","1895.0999999046326","2240 x 1260","2240 x 1260","true","1","10","","","","",""
"null","<p style=""font-size: 80px;"">+ 10 points</p>","null","html-keyboard-response","35","175577","0.0-7.0-2.34","571cc797e1d2ec0012a689a0","a5atyk","NG","36","F","{""name"":""Chrome"",""chrome"":true,""version"":""106.0"",""blink"":true,""mac"":true,""osname"":""macOS"",""osversion"":""10.15.7"",""a"":true}","9:21:21","0","2","Practice_1","74","j","1","1590.2000000476837","2240 x 1260","2240 x 1260","true","1","10","","","","",""
"null","<p style=""font-size: 80px;"">+ 10 points</p>","null","html-keyboard-response","36","181103","0.0-7.0-2.35","571cc797e1d2ec0012a689a0","a5atyk","NG","36","F","{""name"":""Chrome"",""chrome"":true,""version"":""106.0"",""blink"":true,""mac"":true,""osname"":""macOS"",""osversion"":""10.15.7"",""a"":true}","9:21:21","0","2","Practice_3","74","j","1","3516.5999999046326","2240 x 1260","2240 x 1260","true","1","10","","","","",""
"null","<p style=""font-size: 80px;"">+ 10 points</p>","null","html-keyboard-response","37","184308","0.0-7.0-2.36","571cc797e1d2ec0012a689a0","a5atyk","NG","36","F","{""name"":""Chrome"",""chrome"":true,""version"":""106.0"",""blink"":true,""mac"":true,""osname"":""macOS"",""osversion"":""10.15.7"",""a"":true}","9:21:21","0","2","Practice_4","70","f","1","1200.9000000953674","2240 x 1260","2240 x 1260","true","1","10","","","","",""
"null","<p style=""font-size: 80px;"">+ 0 points</p>","null","html-keyboard-response","38","188032","0.0-7.0-2.37","571cc797e1d2ec0012a689a0","a5atyk","NG","36","F","{""name"":""Chrome"",""chrome"":true,""version"":""106.0"",""blink"":true,""mac"":true,""osname"":""macOS"",""osversion"":""10.15.7"",""a"":true}","9:21:21","0","2","Practice_1","70","j","0","1713.2999999523163","2240 x 1260","2240 x 1260","true","1","0","","","","",""
"null","<p style=""font-size: 80px;"">+ 10 points</p>","null","html-keyboard-response","39","191541","0.0-7.0-2.38","571cc797e1d2ec0012a689a0","a5atyk","NG","36","F","{""name"":""Chrome"",""chrome"":true,""version"":""106.0"",""blink"":true,""mac"":true,""osname"":""macOS"",""osversion"":""10.15.7"",""a"":true}","9:21:21","0","2","Practice_3","74","j","1","1499.0999999046326","2240 x 1260","2240 x 1260","true","1","10","","","","",""
"null","<p style=""font-size: 80px;"">+ 10 points</p>","null","html-keyboard-response","40","195492","0.0-7.0-2.39","571cc797e1d2ec0012a689a0","a5atyk","NG","36","F","{""name"":""Chrome"",""chrome"":true,""version"":""106.0"",""blink"":true,""mac"":true,""osname"":""macOS"",""osversion"":""10.15.7"",""a"":true}","9:21:21","0","2","Practice_2","70","f","1","1935","2240 x 1260","2240 x 1260","true","1","10","","","","",""
"12434.599999904633","","","survey-multi-choice","127","207932","0.0-8.0","571cc797e1d2ec0012a689a0","a5atyk","NG","36","F","{""name"":""Chrome"",""chrome"":true,""version"":""106.0"",""blink"":true,""mac"":true,""osname"":""macOS"",""osversion"":""10.15.7"",""a"":true}","9:21:21","","","","","","","","","","","1","","{""Q0"":""The red one"",""Q1"":""1""}","[0,1]","1","The red one","2"
"null","<p style=""font-size: 80px;"">+ 0 points</p>","null","html-keyboard-response","1","217280","0.0-11.0-2.0","571cc797e1d2ec0012a689a0","a5atyk","NG","36","F","{""name"":""Chrome"",""chrome"":true,""version"":""106.0"",""blink"":true,""mac"":true,""osname"":""macOS"",""osversion"":""10.15.7"",""a"":true}","9:21:21","1","4","Test_3","70","j","0","1095.0999999046326","2240 x 1260","2240 x 1260","true","1","0","","","","",""
"null","<p style=""font-size: 80px;"">+ 10 points</p>","null","html-keyboard-response","2","221122","0.0-11.0-2.1","571cc797e1d2ec0012a689a0","a5atyk","NG","36","F","{""name"":""Chrome"",""chrome"":true,""version"":""106.0"",""blink"":true,""mac"":true,""osname"":""macOS"",""osversion"":""10.15.7"",""a"":true}","9:21:21","1","4","Test_4","70","f","1","1829.2000000476837","2240 x 1260","2240 x 1260","true","1","10","","","","",""
"null","<p style=""font-size: 80px;"">+ 0 points</p>","null","html-keyboard-response","3","224811","0.0-11.0-2.2","571cc797e1d2ec0012a689a0","a5atyk","NG","36","F","{""name"":""Chrome"",""chrome"":true,""version"":""106.0"",""blink"":true,""mac"":true,""osname"":""macOS"",""osversion"":""10.15.7"",""a"":true}","9:21:21","1","4","Test_2","74","f","0","1677","2240 x 1260","2240 x 1260","true","1","0","","","","",""
"null","<p style=""font-size: 80px;"">+ 0 points</p>","null","html-keyboard-response","4","228020","0.0-11.0-2.3","571cc797e1d2ec0012a689a0","a5atyk","NG","36","F","{""name"":""Chrome"",""chrome"":true,""version"":""106.0"",""blink"":true,""mac"":true,""osname"":""macOS"",""osversion"":""10.15.7"",""a"":true}","9:21:21","1","4","Test_1","70","j","0","1201.7999999523163","2240 x 1260","2240 x 1260","true","1","0","","","","",""
"null","<p style=""font-size: 80px;"">+ 0 points</p>","null","html-keyboard-response","5","231198","0.0-11.0-2.4","571cc797e1d2ec0012a689a0","a5atyk","NG","36","F","{""name"":""Chrome"",""chrome"":true,""version"":""106.0"",""blink"":true,""mac"":true,""osname"":""macOS"",""osversion"":""10.15.7"",""a"":true}","9:21:21","1","4","Test_2","74","f","0","1168.7000000476837","2240 x 1260","2240 x 1260","true","1","0","","","","",""
"null","<p style=""font-size: 80px;"">+ 10 points</p>","null","html-keyboard-response","6","235536","0.0-11.0-2.5","571cc797e1d2ec0012a689a0","a5atyk","NG","36","F","{""name"":""Chrome"",""chrome"":true,""version"":""106.0"",""blink"":true,""mac"":true,""osname"":""macOS"",""osversion"":""10.15.7"",""a"":true}","9:21:21","1","4","Test_3","74","j","1","2330.7000000476837","2240 x 1260","2240 x 1260","true","1","10","","","","",""
"null","<p style=""font-size: 80px;"">+ 10 points</p>","null","html-keyboard-response","7","239746","0.0-11.0-2.6","571cc797e1d2ec0012a689a0","a5atyk","NG","36","F","{""name"":""Chrome"",""chrome"":true,""version"":""106.0"",""blink"":true,""mac"":true,""osname"":""macOS"",""osversion"":""10.15.7"",""a"":true}","9:21:21","1","4","Test_1","74","j","1","2206.0999999046326","2240 x 1260","2240 x 1260","true","1","10","","","","",""
"null","<p style=""font-size: 80px;"">+ 10 points</p>","null","html-keyboard-response","8","244338","0.0-11.0-2.7","571cc797e1d2ec0012a689a0","a5atyk","NG","36","F","{""name"":""Chrome"",""chrome"":true,""version"":""106.0"",""blink"":true,""mac"":true,""osname"":""macOS"",""osversion"":""10.15.7"",""a"":true}","9:21:21","1","4","Test_2","70","f","1","2580.7000000476837","2240 x 1260","2240 x 1260","true","1","10","","","","",""
"null","<p style=""font-size: 80px;"">+ 10 points</p>","null","html-keyboard-response","9","247039","0.0-11.0-2.8","571cc797e1d2ec0012a689a0","a5atyk","NG","36","F","{""name"":""Chrome"",""chrome"":true,""version"":""106.0"",""blink"":true,""mac"":true,""osname"":""macOS"",""osversion"":""10.15.7"",""a"":true}","9:21:21","1","4","Test_1","74","j","1","690.5","2240 x 1260","2240 x 1260","true","1","10","","","","",""
"null","<p style=""font-size: 80px;"">+ 0 points</p>","null","html-keyboard-response","10","251365","0.0-11.0-2.9","571cc797e1d2ec0012a689a0","a5atyk","NG","36","F","{""name"":""Chrome"",""chrome"":true,""version"":""106.0"",""blink"":true,""mac"":true,""osname"":""macOS"",""osversion"":""10.15.7"",""a"":true}","9:21:21","1","4","Test_4","74","f","0","2312.800000190735","2240 x 1260","2240 x 1260","true","1","0","","","","",""
"null","<p style=""font-size: 80px;"">+ 10 points</p>","null","html-keyboard-response","11","255501","0.0-11.0-2.10","571cc797e1d2ec0012a689a0","a5atyk","NG","36","F","{""name"":""Chrome"",""chrome"":true,""version"":""106.0"",""blink"":true,""mac"":true,""osname"":""macOS"",""osversion"":""10.15.7"",""a"":true}","9:21:21","1","4","Test_4","70","f","1","2127.600000143051","2240 x 1260","2240 x 1260","true","1","10","","","","",""
"null","<p style=""font-size: 80px;"">+ 10 points</p>","null","html-keyboard-response","12","258858","0.0-11.0-2.11","571cc797e1d2ec0012a689a0","a5atyk","NG","36","F","{""name"":""Chrome"",""chrome"":true,""version"":""106.0"",""blink"":true,""mac"":true,""osname"":""macOS"",""osversion"":""10.15.7"",""a"":true}","9:21:21","1","4","Test_2","70","f","1","1346.9000000953674","2240 x 1260","2240 x 1260","true","1","10","","","","",""
"null","<p style=""font-size: 80px;"">+ 0 points</p>","null","html-keyboard-response","13","262340","0.0-11.0-2.12","571cc797e1d2ec0012a689a0","a5atyk","NG","36","F","{""name"":""Chrome"",""chrome"":true,""version"":""106.0"",""blink"":true,""mac"":true,""osname"":""macOS"",""osversion"":""10.15.7"",""a"":true}","9:21:21","1","4","Test_4","74","f","0","1472.9000000953674","2240 x 1260","2240 x 1260","true","1","0","","","","",""
"null","<p style=""font-size: 80px;"">+ 10 points</p>","null","html-keyboard-response","14","265434","0.0-11.0-2.13","571cc797e1d2ec0012a689a0","a5atyk","NG","36","F","{""name"":""Chrome"",""chrome"":true,""version"":""106.0"",""blink"":true,""mac"":true,""osname"":""macOS"",""osversion"":""10.15.7"",""a"":true}","9:21:21","1","4","Test_2","70","f","1","1081.9000000953674","2240 x 1260","2240 x 1260","true","1","10","","","","",""
"null","<p style=""font-size: 80px;"">+ 10 points</p>","null","html-keyboard-response","15","268582","0.0-11.0-2.14","571cc797e1d2ec0012a689a0","a5atyk","NG","36","F","{""name"":""Chrome"",""chrome"":true,""version"":""106.0"",""blink"":true,""mac"":true,""osname"":""macOS"",""osversion"":""10.15.7"",""a"":true}","9:21:21","1","4","Test_1","74","j","1","1139.2999999523163","2240 x 1260","2240 x 1260","true","1","10","","","","",""
"null","<p style=""font-size: 80px;"">+ 10 points</p>","null","html-keyboard-response","16","272182","0.0-11.0-2.15","571cc797e1d2ec0012a689a0","a5atyk","NG","36","F","{""name"":""Chrome"",""chrome"":true,""version"":""106.0"",""blink"":true,""mac"":true,""osname"":""macOS"",""osversion"":""10.15.7"",""a"":true}","9:21:21","1","4","Test_4","70","f","1","1587.2000000476837","2240 x 1260","2240 x 1260","true","1","10","","","","",""
"null","<p style=""font-size: 80px;"">+ 10 points</p>","null","html-keyboard-response","17","275332","0.0-11.0-2.16","571cc797e1d2ec0012a689a0","a5atyk","NG","36","F","{""name"":""Chrome"",""chrome"":true,""version"":""106.0"",""blink"":true,""mac"":true,""osname"":""macOS"",""osversion"":""10.15.7"",""a"":true}","9:21:21","1","4","Test_1","74","j","1","1138.7999999523163","2240 x 1260","2240 x 1260","true","1","10","","","","",""
"null","<p style=""font-size: 80px;"">+ 10 points</p>","null","html-keyboard-response","18","278992","0.0-11.0-2.17","571cc797e1d2ec0012a689a0","a5atyk","NG","36","F","{""name"":""Chrome"",""chrome"":true,""version"":""106.0"",""blink"":true,""mac"":true,""osname"":""macOS"",""osversion"":""10.15.7"",""a"":true}","9:21:21","1","4","Test_3","74","j","1","1651.1000001430511","2240 x 1260","2240 x 1260","true","1","10","","","","",""
"null","<p style=""font-size: 80px;"">+ 10 points</p>","null","html-keyboard-response","19","282202","0.0-11.0-2.18","571cc797e1d2ec0012a689a0","a5atyk","NG","36","F","{""name"":""Chrome"",""chrome"":true,""version"":""106.0"",""blink"":true,""mac"":true,""osname"":""macOS"",""osversion"":""10.15.7"",""a"":true}","9:21:21","1","4","Test_3","74","j","1","1197.8999998569489","2240 x 1260","2240 x 1260","true","1","10","","","","",""
"null","<p style=""font-size: 80px;"">+ 10 points</p>","null","html-keyboard-response","20","285323","0.0-11.0-2.19","571cc797e1d2ec0012a689a0","a5atyk","NG","36","F","{""name"":""Chrome"",""chrome"":true,""version"":""106.0"",""blink"":true,""mac"":true,""osname"":""macOS"",""osversion"":""10.15.7"",""a"":true}","9:21:21","1","4","Test_3","74","j","1","1105.7999999523163","2240 x 1260","2240 x 1260","true","1","10","","","","",""
"null","<p style=""font-size: 80px;"">+ 0 points</p>","null","html-keyboard-response","21","287869","0.0-11.0-2.20","571cc797e1d2ec0012a689a0","a5atyk","NG","36","F","{""name"":""Chrome"",""chrome"":true,""version"":""106.0"",""blink"":true,""mac"":true,""osname"":""macOS"",""osversion"":""10.15.7"",""a"":true}","9:21:21","1","3","Test_3","74","f","0","537.3000001907349","2240 x 1260","2240 x 1260","true","1","0","","","","",""
"null","<p style=""font-size: 80px;"">+ 0 points</p>","null","html-keyboard-response","22","291832","0.0-11.0-2.21","571cc797e1d2ec0012a689a0","a5atyk","NG","36","F","{""name"":""Chrome"",""chrome"":true,""version"":""106.0"",""blink"":true,""mac"":true,""osname"":""macOS"",""osversion"":""10.15.7"",""a"":true}","9:21:21","1","3","Test_1","74","f","0","1955.2999999523163","2240 x 1260","2240 x 1260","true","1","0","","","","",""
"null","<p style=""font-size: 80px;"">+ 10 points</p>","null","html-keyboard-response","23","294923","0.0-11.0-2.22","571cc797e1d2ec0012a689a0","a5atyk","NG","36","F","{""name"":""Chrome"",""chrome"":true,""version"":""106.0"",""blink"":true,""mac"":true,""osname"":""macOS"",""osversion"":""10.15.7"",""a"":true}","9:21:21","1","3","Test_2","74","j","1","1079.1999998092651","2240 x 1260","2240 x 1260","true","1","10","","","","",""
"null","<p style=""font-size: 80px;"">+ 10 points</p>","null","html-keyboard-response","24","298254","0.0-11.0-2.23","571cc797e1d2ec0012a689a0","a5atyk","NG","36","F","{""name"":""Chrome"",""chrome"":true,""version"":""106.0"",""blink"":true,""mac"":true,""osname"":""macOS"",""osversion"":""10.15.7"",""a"":true}","9:21:21","1","3","Test_3","70","f","1","1320.5999999046326","2240 x 1260","2240 x 1260","true","1","10","","","","",""
"null","<p style=""font-size: 80px;"">+ 10 points</p>","null","html-keyboard-response","25","301762","0.0-11.0-2.24","571cc797e1d2ec0012a689a0","a5atyk","NG","36","F","{""name"":""Chrome"",""chrome"":true,""version"":""106.0"",""blink"":true,""mac"":true,""osname"":""macOS"",""osversion"":""10.15.7"",""a"":true}","9:21:21","1","3","Test_1","70","f","1","1495.4000000953674","2240 x 1260","2240 x 1260","true","1","10","","","","",""
"null","<p style=""font-size: 80px;"">+ 10 points</p>","null","html-keyboard-response","26","305062","0.0-11.0-2.25","571cc797e1d2ec0012a689a0","a5atyk","NG","36","F","{""name"":""Chrome"",""chrome"":true,""version"":""106.0"",""blink"":true,""mac"":true,""osname"":""macOS"",""osversion"":""10.15.7"",""a"":true}","9:21:21","1","3","Test_3","70","f","1","1290.7000000476837","2240 x 1260","2240 x 1260","true","1","10","","","","",""
"null","<p style=""font-size: 80px;"">+ 10 points</p>","null","html-keyboard-response","27","307999","0.0-11.0-2.26","571cc797e1d2ec0012a689a0","a5atyk","NG","36","F","{""name"":""Chrome"",""chrome"":true,""version"":""106.0"",""blink"":true,""mac"":true,""osname"":""macOS"",""osversion"":""10.15.7"",""a"":true}","9:21:21","1","3","Test_3","70","f","1","927.7999999523163","2240 x 1260","2240 x 1260","true","1","10","","","","",""
"null","<p style=""font-size: 80px;"">+ 10 points</p>","null","html-keyboard-response","28","310759","0.0-11.0-2.27","571cc797e1d2ec0012a689a0","a5atyk","NG","36","F","{""name"":""Chrome"",""chrome"":true,""version"":""106.0"",""blink"":true,""mac"":true,""osname"":""macOS"",""osversion"":""10.15.7"",""a"":true}","9:21:21","1","3","Test_2","74","j","1","746.7000000476837","2240 x 1260","2240 x 1260","true","1","10","","","","",""
"null","<p style=""font-size: 80px;"">+ 0 points</p>","null","html-keyboard-response","29","313850","0.0-11.0-2.28","571cc797e1d2ec0012a689a0","a5atyk","NG","36","F","{""name"":""Chrome"",""chrome"":true,""version"":""106.0"",""blink"":true,""mac"":true,""osname"":""macOS"",""osversion"":""10.15.7"",""a"":true}","9:21:21","1","3","Test_4","70","j","0","1081.0999999046326","2240 x 1260","2240 x 1260","true","1","0","","","","",""
"null","<p style=""font-size: 80px;"">+ 0 points</p>","null","html-keyboard-response","30","316849","0.0-11.0-2.29","571cc797e1d2ec0012a689a0","a5atyk","NG","36","F","{""name"":""Chrome"",""chrome"":true,""version"":""106.0"",""blink"":true,""mac"":true,""osname"":""macOS"",""osversion"":""10.15.7"",""a"":true}","9:21:21","1","3","Test_1","74","f","0","990.3999998569489","2240 x 1260","2240 x 1260","true","1","0","","","","",""
"null","<p style=""font-size: 80px;"">+ 10 points</p>","null","html-keyboard-response","31","319550","0.0-11.0-2.30","571cc797e1d2ec0012a689a0","a5atyk","NG","36","F","{""name"":""Chrome"",""chrome"":true,""version"":""106.0"",""blink"":true,""mac"":true,""osname"":""macOS"",""osversion"":""10.15.7"",""a"":true}","9:21:21","1","3","Test_1","70","f","1","695","2240 x 1260","2240 x 1260","true","1","10","","","","",""
"null","<p style=""font-size: 80px;"">+ 10 points</p>","null","html-keyboard-response","32","322403","0.0-11.0-2.31","571cc797e1d2ec0012a689a0","a5atyk","NG","36","F","{""name"":""Chrome"",""chrome"":true,""version"":""106.0"",""blink"":true,""mac"":true,""osname"":""macOS"",""osversion"":""10.15.7"",""a"":true}","9:21:21","1","3","Test_4","74","j","1","842","2240 x 1260","2240 x 1260","true","1","10","","","","",""
"null","<p style=""font-size: 80px;"">+ 10 points</p>","null","html-keyboard-response","33","325672","0.0-11.0-2.32","571cc797e1d2ec0012a689a0","a5atyk","NG","36","F","{""name"":""Chrome"",""chrome"":true,""version"":""106.0"",""blink"":true,""mac"":true,""osname"":""macOS"",""osversion"":""10.15.7"",""a"":true}","9:21:21","1","3","Test_2","74","j","1","1255.9000000953674","2240 x 1260","2240 x 1260","true","1","10","","","","",""
"null","<p style=""font-size: 80px;"">+ 10 points</p>","null","html-keyboard-response","34","328909","0.0-11.0-2.33","571cc797e1d2ec0012a689a0","a5atyk","NG","36","F","{""name"":""Chrome"",""chrome"":true,""version"":""106.0"",""blink"":true,""mac"":true,""osname"":""macOS"",""osversion"":""10.15.7"",""a"":true}","9:21:21","1","3","Test_2","74","j","1","1231.7999999523163","2240 x 1260","2240 x 1260","true","1","10","","","","",""
"null","<p style=""font-size: 80px;"">+ 0 points</p>","null","html-keyboard-response","35","333383","0.0-11.0-2.34","571cc797e1d2ec0012a689a0","a5atyk","NG","36","F","{""name"":""Chrome"",""chrome"":true,""version"":""106.0"",""blink"":true,""mac"":true,""osname"":""macOS"",""osversion"":""10.15.7"",""a"":true}","9:21:21","1","3","Test_4","70","j","0","2461.2999999523163","2240 x 1260","2240 x 1260","true","1","0","","","","",""
"null","<p style=""font-size: 80px;"">+ 10 points</p>","null","html-keyboard-response","36","335930","0.0-11.0-2.35","571cc797e1d2ec0012a689a0","a5atyk","NG","36","F","{""name"":""Chrome"",""chrome"":true,""version"":""106.0"",""blink"":true,""mac"":true,""osname"":""macOS"",""osversion"":""10.15.7"",""a"":true}","9:21:21","1","3","Test_4","74","j","1","538.0999999046326","2240 x 1260","2240 x 1260","true","1","10","","","","",""
"null","<p style=""font-size: 80px;"">+ 10 points</p>","null","html-keyboard-response","37","338542","0.0-11.0-2.36","571cc797e1d2ec0012a689a0","a5atyk","NG","36","F","{""name"":""Chrome"",""chrome"":true,""version"":""106.0"",""blink"":true,""mac"":true,""osname"":""macOS"",""osversion"":""10.15.7"",""a"":true}","9:21:21","1","3","Test_4","74","j","1","599.0999999046326","2240 x 1260","2240 x 1260","true","1","10","","","","",""
"null","<p style=""font-size: 80px;"">+ 10 points</p>","null","html-keyboard-response","38","341120","0.0-11.0-2.37","571cc797e1d2ec0012a689a0","a5atyk","NG","36","F","{""name"":""Chrome"",""chrome"":true,""version"":""106.0"",""blink"":true,""mac"":true,""osname"":""macOS"",""osversion"":""10.15.7"",""a"":true}","9:21:21","1","3","Test_4","74","j","1","570","2240 x 1260","2240 x 1260","true","1","10","","","","",""
"null","<p style=""font-size: 80px;"">+ 10 points</p>","null","html-keyboard-response","39","344148","0.0-11.0-2.38","571cc797e1d2ec0012a689a0","a5atyk","NG","36","F","{""name"":""Chrome"",""chrome"":true,""version"":""106.0"",""blink"":true,""mac"":true,""osname"":""macOS"",""osversion"":""10.15.7"",""a"":true}","9:21:21","1","3","Test_1","70","f","1","1018.4000000953674","2240 x 1260","2240 x 1260","true","1","10","","","","",""
"null","<p style=""font-size: 80px;"">+ 10 points</p>","null","html-keyboard-response","40","347602","0.0-11.0-2.39","571cc797e1d2ec0012a689a0","a5atyk","NG","36","F","{""name"":""Chrome"",""chrome"":true,""version"":""106.0"",""blink"":true,""mac"":true,""osname"":""macOS"",""osversion"":""10.15.7"",""a"":true}","9:21:21","1","3","Test_2","74","j","1","1445.6999998092651","2240 x 1260","2240 x 1260","true","1","10","","","","",""
"null","<p style=""font-size: 80px;"">+ 10 points</p>","null","html-keyboard-response","41","350449","0.0-11.0-2.40","571cc797e1d2ec0012a689a0","a5atyk","NG","36","F","{""name"":""Chrome"",""chrome"":true,""version"":""106.0"",""blink"":true,""mac"":true,""osname"":""macOS"",""osversion"":""10.15.7"",""a"":true}","9:21:21","1","3","Test_3","70","f","1","837.5","2240 x 1260","2240 x 1260","true","1","10","","","","",""
"null","<p style=""font-size: 80px;"">+ 10 points</p>","null","html-keyboard-response","42","353631","0.0-11.0-2.41","571cc797e1d2ec0012a689a0","a5atyk","NG","36","F","{""name"":""Chrome"",""chrome"":true,""version"":""106.0"",""blink"":true,""mac"":true,""osname"":""macOS"",""osversion"":""10.15.7"",""a"":true}","9:21:21","1","3","Test_3","70","f","1","1169.5","2240 x 1260","2240 x 1260","true","1","10","","","","",""
"null","<p style=""font-size: 80px;"">+ 10 points</p>","null","html-keyboard-response","43","356629","0.0-11.0-2.42","571cc797e1d2ec0012a689a0","a5atyk","NG","36","F","{""name"":""Chrome"",""chrome"":true,""version"":""106.0"",""blink"":true,""mac"":true,""osname"":""macOS"",""osversion"":""10.15.7"",""a"":true}","9:21:21","1","3","Test_2","74","j","1","989.2000000476837","2240 x 1260","2240 x 1260","true","1","10","","","","",""
"null","<p style=""font-size: 80px;"">+ 10 points</p>","null","html-keyboard-response","44","359479","0.0-11.0-2.43","571cc797e1d2ec0012a689a0","a5atyk","NG","36","F","{""name"":""Chrome"",""chrome"":true,""version"":""106.0"",""blink"":true,""mac"":true,""osname"":""macOS"",""osversion"":""10.15.7"",""a"":true}","9:21:21","1","3","Test_1","70","f","1","840.3000001907349","2240 x 1260","2240 x 1260","true","1","10","","","","",""
"null","<p style=""font-size: 80px;"">+ 0 points</p>","null","html-keyboard-response","45","362332","0.0-11.0-2.44","571cc797e1d2ec0012a689a0","a5atyk","NG","36","F","{""name"":""Chrome"",""chrome"":true,""version"":""106.0"",""blink"":true,""mac"":true,""osname"":""macOS"",""osversion"":""10.15.7"",""a"":true}","9:21:21","1","4","Test_4","74","f","0","842.2000000476837","2240 x 1260","2240 x 1260","true","1","0","","","","",""
"null","<p style=""font-size: 80px;"">+ 10 points</p>","null","html-keyboard-response","46","365482","0.0-11.0-2.45","571cc797e1d2ec0012a689a0","a5atyk","NG","36","F","{""name"":""Chrome"",""chrome"":true,""version"":""106.0"",""blink"":true,""mac"":true,""osname"":""macOS"",""osversion"":""10.15.7"",""a"":true}","9:21:21","1","4","Test_1","74","j","1","1139","2240 x 1260","2240 x 1260","true","1","10","","","","",""
"null","<p style=""font-size: 80px;"">+ 0 points</p>","null","html-keyboard-response","47","368568","0.0-11.0-2.46","571cc797e1d2ec0012a689a0","a5atyk","NG","36","F","{""name"":""Chrome"",""chrome"":true,""version"":""106.0"",""blink"":true,""mac"":true,""osname"":""macOS"",""osversion"":""10.15.7"",""a"":true}","9:21:21","1","4","Test_1","70","j","0","1076.7999999523163","2240 x 1260","2240 x 1260","true","1","0","","","","",""
"null","<p style=""font-size: 80px;"">+ 0 points</p>","null","html-keyboard-response","48","371166","0.0-11.0-2.47","571cc797e1d2ec0012a689a0","a5atyk","NG","36","F","{""name"":""Chrome"",""chrome"":true,""version"":""106.0"",""blink"":true,""mac"":true,""osname"":""macOS"",""osversion"":""10.15.7"",""a"":true}","9:21:21","1","4","Test_4","74","f","0","586.7999999523163","2240 x 1260","2240 x 1260","true","1","0","","","","",""
"null","<p style=""font-size: 80px;"">+ 0 points</p>","null","html-keyboard-response","49","373989","0.0-11.0-2.48","571cc797e1d2ec0012a689a0","a5atyk","NG","36","F","{""name"":""Chrome"",""chrome"":true,""version"":""106.0"",""blink"":true,""mac"":true,""osname"":""macOS"",""osversion"":""10.15.7"",""a"":true}","9:21:21","1","4","Test_1","70","j","0","812.1000001430511","2240 x 1260","2240 x 1260","true","1","0","","","","",""
"null","<p style=""font-size: 80px;"">+ 10 points</p>","null","html-keyboard-response","50","376969","0.0-11.0-2.49","571cc797e1d2ec0012a689a0","a5atyk","NG","36","F","{""name"":""Chrome"",""chrome"":true,""version"":""106.0"",""blink"":true,""mac"":true,""osname"":""macOS"",""osversion"":""10.15.7"",""a"":true}","9:21:21","1","4","Test_4","70","f","1","971","2240 x 1260","2240 x 1260","true","1","10","","","","",""
"null","<p style=""font-size: 80px;"">+ 10 points</p>","null","html-keyboard-response","51","379703","0.0-11.0-2.50","571cc797e1d2ec0012a689a0","a5atyk","NG","36","F","{""name"":""Chrome"",""chrome"":true,""version"":""106.0"",""blink"":true,""mac"":true,""osname"":""macOS"",""osversion"":""10.15.7"",""a"":true}","9:21:21","1","4","Test_4","70","f","1","725.9000000953674","2240 x 1260","2240 x 1260","true","1","10","","","","",""
"null","<p style=""font-size: 80px;"">+ 10 points</p>","null","html-keyboard-response","52","382763","0.0-11.0-2.51","571cc797e1d2ec0012a689a0","a5atyk","NG","36","F","{""name"":""Chrome"",""chrome"":true,""version"":""106.0"",""blink"":true,""mac"":true,""osname"":""macOS"",""osversion"":""10.15.7"",""a"":true}","9:21:21","1","4","Test_3","74","j","1","1046.7999999523163","2240 x 1260","2240 x 1260","true","1","10","","","","",""
"null","<p style=""font-size: 80px;"">+ 10 points</p>","null","html-keyboard-response","53","385670","0.0-11.0-2.52","571cc797e1d2ec0012a689a0","a5atyk","NG","36","F","{""name"":""Chrome"",""chrome"":true,""version"":""106.0"",""blink"":true,""mac"":true,""osname"":""macOS"",""osversion"":""10.15.7"",""a"":true}","9:21:21","1","4","Test_2","70","f","1","899.2000000476837","2240 x 1260","2240 x 1260","true","1","10","","","","",""
"null","<p style=""font-size: 80px;"">+ 10 points</p>","null","html-keyboard-response","54","388640","0.0-11.0-2.53","571cc797e1d2ec0012a689a0","a5atyk","NG","36","F","{""name"":""Chrome"",""chrome"":true,""version"":""106.0"",""blink"":true,""mac"":true,""osname"":""macOS"",""osversion"":""10.15.7"",""a"":true}","9:21:21","1","4","Test_1","74","j","1","960.2000000476837","2240 x 1260","2240 x 1260","true","1","10","","","","",""
"null","<p style=""font-size: 80px;"">+ 0 points</p>","null","html-keyboard-response","55","392538","0.0-11.0-2.54","571cc797e1d2ec0012a689a0","a5atyk","NG","36","F","{""name"":""Chrome"",""chrome"":true,""version"":""106.0"",""blink"":true,""mac"":true,""osname"":""macOS"",""osversion"":""10.15.7"",""a"":true}","9:21:21","1","4","Test_3","70","j","0","1887.7000000476837","2240 x 1260","2240 x 1260","true","1","0","","","","",""
"null","<p style=""font-size: 80px;"">+ 10 points</p>","null","html-keyboard-response","56","395088","0.0-11.0-2.55","571cc797e1d2ec0012a689a0","a5atyk","NG","36","F","{""name"":""Chrome"",""chrome"":true,""version"":""106.0"",""blink"":true,""mac"":true,""osname"":""macOS"",""osversion"":""10.15.7"",""a"":true}","9:21:21","1","4","Test_3","74","j","1","540.6999998092651","2240 x 1260","2240 x 1260","true","1","10","","","","",""
"null","<p style=""font-size: 80px;"">+ 10 points</p>","null","html-keyboard-response","57","397876","0.0-11.0-2.56","571cc797e1d2ec0012a689a0","a5atyk","NG","36","F","{""name"":""Chrome"",""chrome"":true,""version"":""106.0"",""blink"":true,""mac"":true,""osname"":""macOS"",""osversion"":""10.15.7"",""a"":true}","9:21:21","1","4","Test_4","70","f","1","780.5","2240 x 1260","2240 x 1260","true","1","10","","","","",""
"null","<p style=""font-size: 80px;"">+ 10 points</p>","null","html-keyboard-response","58","400494","0.0-11.0-2.57","571cc797e1d2ec0012a689a0","a5atyk","NG","36","F","{""name"":""Chrome"",""chrome"":true,""version"":""106.0"",""blink"":true,""mac"":true,""osname"":""macOS"",""osversion"":""10.15.7"",""a"":true}","9:21:21","1","4","Test_3","74","j","1","607.5999999046326","2240 x 1260","2240 x 1260","true","1","10","","","","",""
"null","<p style=""font-size: 80px;"">+ 10 points</p>","null","html-keyboard-response","59","403283","0.0-11.0-2.58","571cc797e1d2ec0012a689a0","a5atyk","NG","36","F","{""name"":""Chrome"",""chrome"":true,""version"":""106.0"",""blink"":true,""mac"":true,""osname"":""macOS"",""osversion"":""10.15.7"",""a"":true}","9:21:21","1","4","Test_2","70","f","1","775.1999998092651","2240 x 1260","2240 x 1260","true","1","10","","","","",""
"null","<p style=""font-size: 80px;"">+ 10 points</p>","null","html-keyboard-response","60","406189","0.0-11.0-2.59","571cc797e1d2ec0012a689a0","a5atyk","NG","36","F","{""name"":""Chrome"",""chrome"":true,""version"":""106.0"",""blink"":true,""mac"":true,""osname"":""macOS"",""osversion"":""10.15.7"",""a"":true}","9:21:21","1","4","Test_2","70","f","1","894.5999999046326","2240 x 1260","2240 x 1260","true","1","10","","","","",""
"null","<p style=""font-size: 80px;"">+ 10 points</p>","null","html-keyboard-response","61","409249","0.0-11.0-2.60","571cc797e1d2ec0012a689a0","a5atyk","NG","36","F","{""name"":""Chrome"",""chrome"":true,""version"":""106.0"",""blink"":true,""mac"":true,""osname"":""macOS"",""osversion"":""10.15.7"",""a"":true}","9:21:21","1","4","Test_2","70","f","1","1047.4000000953674","2240 x 1260","2240 x 1260","true","1","10","","","","",""
"null","<p style=""font-size: 80px;"">+ 0 points</p>","null","html-keyboard-response","62","412191","0.0-11.0-2.61","571cc797e1d2ec0012a689a0","a5atyk","NG","36","F","{""name"":""Chrome"",""chrome"":true,""version"":""106.0"",""blink"":true,""mac"":true,""osname"":""macOS"",""osversion"":""10.15.7"",""a"":true}","9:21:21","1","3","Test_4","70","j","0","928","2240 x 1260","2240 x 1260","true","1","0","","","","",""
"null","<p style=""font-size: 80px;"">+ 0 points</p>","null","html-keyboard-response","63","415701","0.0-11.0-2.62","571cc797e1d2ec0012a689a0","a5atyk","NG","36","F","{""name"":""Chrome"",""chrome"":true,""version"":""106.0"",""blink"":true,""mac"":true,""osname"":""macOS"",""osversion"":""10.15.7"",""a"":true}","9:21:21","1","3","Test_2","70","j","0","1498.2999999523163","2240 x 1260","2240 x 1260","true","1","0","","","","",""
"null","<p style=""font-size: 80px;"">+ 10 points</p>","null","html-keyboard-response","64","418878","0.0-11.0-2.63","571cc797e1d2ec0012a689a0","a5atyk","NG","36","F","{""name"":""Chrome"",""chrome"":true,""version"":""106.0"",""blink"":true,""mac"":true,""osname"":""macOS"",""osversion"":""10.15.7"",""a"":true}","9:21:21","1","3","Test_1","70","f","1","1167.5","2240 x 1260","2240 x 1260","true","1","10","","","","",""
"null","<p style=""font-size: 80px;"">+ 0 points</p>","null","html-keyboard-response","65","421548","0.0-11.0-2.64","571cc797e1d2ec0012a689a0","a5atyk","NG","36","F","{""name"":""Chrome"",""chrome"":true,""version"":""106.0"",""blink"":true,""mac"":true,""osname"":""macOS"",""osversion"":""10.15.7"",""a"":true}","9:21:21","1","3","Test_1","74","f","0","661.5","2240 x 1260","2240 x 1260","true","1","0","","","","",""
"null","<p style=""font-size: 80px;"">+ 10 points</p>","null","html-keyboard-response","66","424760","0.0-11.0-2.65","571cc797e1d2ec0012a689a0","a5atyk","NG","36","F","{""name"":""Chrome"",""chrome"":true,""version"":""106.0"",""blink"":true,""mac"":true,""osname"":""macOS"",""osversion"":""10.15.7"",""a"":true}","9:21:21","1","3","Test_2","74","j","1","1204","2240 x 1260","2240 x 1260","true","1","10","","","","",""
"null","<p style=""font-size: 80px;"">+ 10 points</p>","null","html-keyboard-response","67","428270","0.0-11.0-2.66","571cc797e1d2ec0012a689a0","a5atyk","NG","36","F","{""name"":""Chrome"",""chrome"":true,""version"":""106.0"",""blink"":true,""mac"":true,""osname"":""macOS"",""osversion"":""10.15.7"",""a"":true}","9:21:21","1","3","Test_3","70","f","1","1504.5","2240 x 1260","2240 x 1260","true","1","10","","","","",""
"null","<p style=""font-size: 80px;"">+ 10 points</p>","null","html-keyboard-response","68","431149","0.0-11.0-2.67","571cc797e1d2ec0012a689a0","a5atyk","NG","36","F","{""name"":""Chrome"",""chrome"":true,""version"":""106.0"",""blink"":true,""mac"":true,""osname"":""macOS"",""osversion"":""10.15.7"",""a"":true}","9:21:21","1","3","Test_2","74","j","1","871.4000000953674","2240 x 1260","2240 x 1260","true","1","10","","","","",""
"null","<p style=""font-size: 80px;"">+ 10 points</p>","null","html-keyboard-response","69","434057","0.0-11.0-2.68","571cc797e1d2ec0012a689a0","a5atyk","NG","36","F","{""name"":""Chrome"",""chrome"":true,""version"":""106.0"",""blink"":true,""mac"":true,""osname"":""macOS"",""osversion"":""10.15.7"",""a"":true}","9:21:21","1","3","Test_2","74","j","1","898.2999999523163","2240 x 1260","2240 x 1260","true","1","10","","","","",""
"null","<p style=""font-size: 80px;"">+ 10 points</p>","null","html-keyboard-response","70","437691","0.0-11.0-2.69","571cc797e1d2ec0012a689a0","a5atyk","NG","36","F","{""name"":""Chrome"",""chrome"":true,""version"":""106.0"",""blink"":true,""mac"":true,""osname"":""macOS"",""osversion"":""10.15.7"",""a"":true}","9:21:21","1","3","Test_4","74","j","1","1621.0999999046326","2240 x 1260","2240 x 1260","true","1","10","","","","",""
"null","<p style=""font-size: 80px;"">+ 10 points</p>","null","html-keyboard-response","71","441231","0.0-11.0-2.70","571cc797e1d2ec0012a689a0","a5atyk","NG","36","F","{""name"":""Chrome"",""chrome"":true,""version"":""106.0"",""blink"":true,""mac"":true,""osname"":""macOS"",""osversion"":""10.15.7"",""a"":true}","9:21:21","1","3","Test_3","70","f","1","1531.9000000953674","2240 x 1260","2240 x 1260","true","1","10","","","","",""
"null","<p style=""font-size: 80px;"">+ 10 points</p>","null","html-keyboard-response","72","444481","0.0-11.0-2.71","571cc797e1d2ec0012a689a0","a5atyk","NG","36","F","{""name"":""Chrome"",""chrome"":true,""version"":""106.0"",""blink"":true,""mac"":true,""osname"":""macOS"",""osversion"":""10.15.7"",""a"":true}","9:21:21","1","3","Test_1","70","f","1","1242.5","2240 x 1260","2240 x 1260","true","1","10","","","","",""
"null","<p style=""font-size: 80px;"">+ 10 points</p>","null","html-keyboard-response","73","447409","0.0-11.0-2.72","571cc797e1d2ec0012a689a0","a5atyk","NG","36","F","{""name"":""Chrome"",""chrome"":true,""version"":""106.0"",""blink"":true,""mac"":true,""osname"":""macOS"",""osversion"":""10.15.7"",""a"":true}","9:21:21","1","3","Test_4","74","j","1","923.7999999523163","2240 x 1260","2240 x 1260","true","1","10","","","","",""
"null","<p style=""font-size: 80px;"">+ 10 points</p>","null","html-keyboard-response","74","450288","0.0-11.0-2.73","571cc797e1d2ec0012a689a0","a5atyk","NG","36","F","{""name"":""Chrome"",""chrome"":true,""version"":""106.0"",""blink"":true,""mac"":true,""osname"":""macOS"",""osversion"":""10.15.7"",""a"":true}","9:21:21","1","3","Test_3","70","f","1","873.2999999523163","2240 x 1260","2240 x 1260","true","1","10","","","","",""
"null","<p style=""font-size: 80px;"">+ 10 points</p>","null","html-keyboard-response","75","453170","0.0-11.0-2.74","571cc797e1d2ec0012a689a0","a5atyk","NG","36","F","{""name"":""Chrome"",""chrome"":true,""version"":""106.0"",""blink"":true,""mac"":true,""osname"":""macOS"",""osversion"":""10.15.7"",""a"":true}","9:21:21","1","3","Test_3","70","f","1","871.8000001907349","2240 x 1260","2240 x 1260","true","1","10","","","","",""
"null","<p style=""font-size: 80px;"">+ 10 points</p>","null","html-keyboard-response","76","455782","0.0-11.0-2.75","571cc797e1d2ec0012a689a0","a5atyk","NG","36","F","{""name"":""Chrome"",""chrome"":true,""version"":""106.0"",""blink"":true,""mac"":true,""osname"":""macOS"",""osversion"":""10.15.7"",""a"":true}","9:21:21","1","3","Test_4","74","j","1","599.4000000953674","2240 x 1260","2240 x 1260","true","1","10","","","","",""
"null","<p style=""font-size: 80px;"">+ 10 points</p>","null","html-keyboard-response","77","458841","0.0-11.0-2.76","571cc797e1d2ec0012a689a0","a5atyk","NG","36","F","{""name"":""Chrome"",""chrome"":true,""version"":""106.0"",""blink"":true,""mac"":true,""osname"":""macOS"",""osversion"":""10.15.7"",""a"":true}","9:21:21","1","3","Test_1","70","f","1","1050.2000000476837","2240 x 1260","2240 x 1260","true","1","10","","","","",""
"null","<p style=""font-size: 80px;"">+ 10 points</p>","null","html-keyboard-response","78","462919","0.0-11.0-2.77","571cc797e1d2ec0012a689a0","a5atyk","NG","36","F","{""name"":""Chrome"",""chrome"":true,""version"":""106.0"",""blink"":true,""mac"":true,""osname"":""macOS"",""osversion"":""10.15.7"",""a"":true}","9:21:21","1","3","Test_3","70","f","1","2067.7000000476837","2240 x 1260","2240 x 1260","true","1","10","","","","",""
"null","<p style=""font-size: 80px;"">+ 0 points</p>","null","html-keyboard-response","79","466162","0.0-11.0-2.78","571cc797e1d2ec0012a689a0","a5atyk","NG","36","F","{""name"":""Chrome"",""chrome"":true,""version"":""106.0"",""blink"":true,""mac"":true,""osname"":""macOS"",""osversion"":""10.15.7"",""a"":true}","9:21:21","1","3","Test_1","74","f","0","1231.6999998092651","2240 x 1260","2240 x 1260","true","1","0","","","","",""
"null","<p style=""font-size: 80px;"">+ 10 points</p>","null","html-keyboard-response","80","468979","0.0-11.0-2.79","571cc797e1d2ec0012a689a0","a5atyk","NG","36","F","{""name"":""Chrome"",""chrome"":true,""version"":""106.0"",""blink"":true,""mac"":true,""osname"":""macOS"",""osversion"":""10.15.7"",""a"":true}","9:21:21","1","3","Test_1","70","f","1","806.5999999046326","2240 x 1260","2240 x 1260","true","1","10","","","","",""
"null","<p style=""font-size: 80px;"">+ 10 points</p>","null","html-keyboard-response","81","471889","0.0-11.0-2.80","571cc797e1d2ec0012a689a0","a5atyk","NG","36","F","{""name"":""Chrome"",""chrome"":true,""version"":""106.0"",""blink"":true,""mac"":true,""osname"":""macOS"",""osversion"":""10.15.7"",""a"":true}","9:21:21","1","3","Test_4","74","j","1","902.5999999046326","2240 x 1260","2240 x 1260","true","1","10","","","","",""
"null","<p style=""font-size: 80px;"">+ 10 points</p>","null","html-keyboard-response","82","474807","0.0-11.0-2.81","571cc797e1d2ec0012a689a0","a5atyk","NG","36","F","{""name"":""Chrome"",""chrome"":true,""version"":""106.0"",""blink"":true,""mac"":true,""osname"":""macOS"",""osversion"":""10.15.7"",""a"":true}","9:21:21","1","3","Test_4","74","j","1","902.7999999523163","2240 x 1260","2240 x 1260","true","1","10","","","","",""
"null","<p style=""font-size: 80px;"">+ 0 points</p>","null","html-keyboard-response","83","477563","0.0-11.0-2.82","571cc797e1d2ec0012a689a0","a5atyk","NG","36","F","{""name"":""Chrome"",""chrome"":true,""version"":""106.0"",""blink"":true,""mac"":true,""osname"":""macOS"",""osversion"":""10.15.7"",""a"":true}","9:21:21","1","4","Test_3","70","j","0","744.2000000476837","2240 x 1260","2240 x 1260","true","1","0","","","","",""
"null","<p style=""font-size: 80px;"">+ 10 points</p>","null","html-keyboard-response","84","480377","0.0-11.0-2.83","571cc797e1d2ec0012a689a0","a5atyk","NG","36","F","{""name"":""Chrome"",""chrome"":true,""version"":""106.0"",""blink"":true,""mac"":true,""osname"":""macOS"",""osversion"":""10.15.7"",""a"":true}","9:21:21","1","4","Test_2","70","f","1","804.8999998569489","2240 x 1260","2240 x 1260","true","1","10","","","","",""
"null","<p style=""font-size: 80px;"">+ 10 points</p>","null","html-keyboard-response","85","483954","0.0-11.0-2.84","571cc797e1d2ec0012a689a0","a5atyk","NG","36","F","{""name"":""Chrome"",""chrome"":true,""version"":""106.0"",""blink"":true,""mac"":true,""osname"":""macOS"",""osversion"":""10.15.7"",""a"":true}","9:21:21","1","4","Test_1","74","j","1","1565.5","2240 x 1260","2240 x 1260","true","1","10","","","","",""
"null","<p style=""font-size: 80px;"">+ 0 points</p>","null","html-keyboard-response","86","486768","0.0-11.0-2.85","571cc797e1d2ec0012a689a0","a5atyk","NG","36","F","{""name"":""Chrome"",""chrome"":true,""version"":""106.0"",""blink"":true,""mac"":true,""osname"":""macOS"",""osversion"":""10.15.7"",""a"":true}","9:21:21","1","4","Test_4","74","f","0","805.6000001430511","2240 x 1260","2240 x 1260","true","1","0","","","","",""
"null","<p style=""font-size: 80px;"">+ 0 points</p>","null","html-keyboard-response","87","490489","0.0-11.0-2.86","571cc797e1d2ec0012a689a0","a5atyk","NG","36","F","{""name"":""Chrome"",""chrome"":true,""version"":""106.0"",""blink"":true,""mac"":true,""osname"":""macOS"",""osversion"":""10.15.7"",""a"":true}","9:21:21","1","4","Test_1","70","j","0","1711.9000000953674","2240 x 1260","2240 x 1260","true","1","0","","","","",""
"null","<p style=""font-size: 80px;"">+ 10 points</p>","null","html-keyboard-response","88","493283","0.0-11.0-2.87","571cc797e1d2ec0012a689a0","a5atyk","NG","36","F","{""name"":""Chrome"",""chrome"":true,""version"":""106.0"",""blink"":true,""mac"":true,""osname"":""macOS"",""osversion"":""10.15.7"",""a"":true}","9:21:21","1","4","Test_4","70","f","1","781.0999999046326","2240 x 1260","2240 x 1260","true","1","10","","","","",""
"null","<p style=""font-size: 80px;"">+ 10 points</p>","null","html-keyboard-response","89","496670","0.0-11.0-2.88","571cc797e1d2ec0012a689a0","a5atyk","NG","36","F","{""name"":""Chrome"",""chrome"":true,""version"":""106.0"",""blink"":true,""mac"":true,""osname"":""macOS"",""osversion"":""10.15.7"",""a"":true}","9:21:21","1","4","Test_3","74","j","1","1374.7000000476837","2240 x 1260","2240 x 1260","true","1","10","","","","",""
"null","<p style=""font-size: 80px;"">+ 0 points</p>","null","html-keyboard-response","90","499526","0.0-11.0-2.89","571cc797e1d2ec0012a689a0","a5atyk","NG","36","F","{""name"":""Chrome"",""chrome"":true,""version"":""106.0"",""blink"":true,""mac"":true,""osname"":""macOS"",""osversion"":""10.15.7"",""a"":true}","9:21:21","1","4","Test_1","70","j","0","845.8999998569489","2240 x 1260","2240 x 1260","true","1","0","","","","",""
"null","<p style=""font-size: 80px;"">+ 0 points</p>","null","html-keyboard-response","91","502268","0.0-11.0-2.90","571cc797e1d2ec0012a689a0","a5atyk","NG","36","F","{""name"":""Chrome"",""chrome"":true,""version"":""106.0"",""blink"":true,""mac"":true,""osname"":""macOS"",""osversion"":""10.15.7"",""a"":true}","9:21:21","1","4","Test_4","74","f","0","729","2240 x 1260","2240 x 1260","true","1","0","","","","",""
"null","<p style=""font-size: 80px;"">+ 0 points</p>","null","html-keyboard-response","92","506393","0.0-11.0-2.91","571cc797e1d2ec0012a689a0","a5atyk","NG","36","F","{""name"":""Chrome"",""chrome"":true,""version"":""106.0"",""blink"":true,""mac"":true,""osname"":""macOS"",""osversion"":""10.15.7"",""a"":true}","9:21:21","1","4","Test_2","74","f","0","2117.100000143051","2240 x 1260","2240 x 1260","true","1","0","","","","",""
"null","<p style=""font-size: 80px;"">+ 10 points</p>","null","html-keyboard-response","93","508877","0.0-11.0-2.92","571cc797e1d2ec0012a689a0","a5atyk","NG","36","F","{""name"":""Chrome"",""chrome"":true,""version"":""106.0"",""blink"":true,""mac"":true,""osname"":""macOS"",""osversion"":""10.15.7"",""a"":true}","9:21:21","1","4","Test_2","70","f","1","477.2999999523163","2240 x 1260","2240 x 1260","true","1","10","","","","",""
"null","<p style=""font-size: 80px;"">+ 10 points</p>","null","html-keyboard-response","94","511760","0.0-11.0-2.93","571cc797e1d2ec0012a689a0","a5atyk","NG","36","F","{""name"":""Chrome"",""chrome"":true,""version"":""106.0"",""blink"":true,""mac"":true,""osname"":""macOS"",""osversion"":""10.15.7"",""a"":true}","9:21:21","1","4","Test_3","74","j","1","877.1000001430511","2240 x 1260","2240 x 1260","true","1","10","","","","",""
"null","<p style=""font-size: 80px;"">+ 10 points</p>","null","html-keyboard-response","95","514761","0.0-11.0-2.94","571cc797e1d2ec0012a689a0","a5atyk","NG","36","F","{""name"":""Chrome"",""chrome"":true,""version"":""106.0"",""blink"":true,""mac"":true,""osname"":""macOS"",""osversion"":""10.15.7"",""a"":true}","9:21:21","1","4","Test_3","74","j","1","993.2000000476837","2240 x 1260","2240 x 1260","true","1","10","","","","",""
"null","<p style=""font-size: 80px;"">+ 0 points</p>","null","html-keyboard-response","96","517609","0.0-11.0-2.95","571cc797e1d2ec0012a689a0","a5atyk","NG","36","F","{""name"":""Chrome"",""chrome"":true,""version"":""106.0"",""blink"":true,""mac"":true,""osname"":""macOS"",""osversion"":""10.15.7"",""a"":true}","9:21:21","1","4","Test_1","70","j","0","835.9000000953674","2240 x 1260","2240 x 1260","true","1","0","","","","",""
"null","<p style=""font-size: 80px;"">+ 0 points</p>","null","html-keyboard-response","97","520404","0.0-11.0-2.96","571cc797e1d2ec0012a689a0","a5atyk","NG","36","F","{""name"":""Chrome"",""chrome"":true,""version"":""106.0"",""blink"":true,""mac"":true,""osname"":""macOS"",""osversion"":""10.15.7"",""a"":true}","9:21:21","1","4","Test_4","74","f","0","781.2999999523163","2240 x 1260","2240 x 1260","true","1","0","","","","",""
"null","<p style=""font-size: 80px;"">+ 10 points</p>","null","html-keyboard-response","98","522937","0.0-11.0-2.97","571cc797e1d2ec0012a689a0","a5atyk","NG","36","F","{""name"":""Chrome"",""chrome"":true,""version"":""106.0"",""blink"":true,""mac"":true,""osname"":""macOS"",""osversion"":""10.15.7"",""a"":true}","9:21:21","1","3","Test_1","70","f","1","521.0999999046326","2240 x 1260","2240 x 1260","true","1","10","","","","",""
"null","<p style=""font-size: 80px;"">+ 10 points</p>","null","html-keyboard-response","99","526162","0.0-11.0-2.98","571cc797e1d2ec0012a689a0","a5atyk","NG","36","F","{""name"":""Chrome"",""chrome"":true,""version"":""106.0"",""blink"":true,""mac"":true,""osname"":""macOS"",""osversion"":""10.15.7"",""a"":true}","9:21:21","1","3","Test_3","70","f","1","1215.2000000476837","2240 x 1260","2240 x 1260","true","1","10","","","","",""
"null","<p style=""font-size: 80px;"">+ 0 points</p>","null","html-keyboard-response","100","529429","0.0-11.0-2.99","571cc797e1d2ec0012a689a0","a5atyk","NG","36","F","{""name"":""Chrome"",""chrome"":true,""version"":""106.0"",""blink"":true,""mac"":true,""osname"":""macOS"",""osversion"":""10.15.7"",""a"":true}","9:21:21","1","3","Test_1","74","f","0","1260.0999999046326","2240 x 1260","2240 x 1260","true","1","0","","","","",""
"null","<p style=""font-size: 80px;"">+ 0 points</p>","null","html-keyboard-response","101","532040","0.0-11.0-2.100","571cc797e1d2ec0012a689a0","a5atyk","NG","36","F","{""name"":""Chrome"",""chrome"":true,""version"":""106.0"",""blink"":true,""mac"":true,""osname"":""macOS"",""osversion"":""10.15.7"",""a"":true}","9:21:21","1","3","Test_2","70","j","0","600.5","2240 x 1260","2240 x 1260","true","1","0","","","","",""
"null","<p style=""font-size: 80px;"">+ 10 points</p>","null","html-keyboard-response","102","534654","0.0-11.0-2.101","571cc797e1d2ec0012a689a0","a5atyk","NG","36","F","{""name"":""Chrome"",""chrome"":true,""version"":""106.0"",""blink"":true,""mac"":true,""osname"":""macOS"",""osversion"":""10.15.7"",""a"":true}","9:21:21","1","3","Test_4","74","j","1","601.5","2240 x 1260","2240 x 1260","true","1","10","","","","",""
"null","<p style=""font-size: 80px;"">+ 10 points</p>","null","html-keyboard-response","103","537198","0.0-11.0-2.102","571cc797e1d2ec0012a689a0","a5atyk","NG","36","F","{""name"":""Chrome"",""chrome"":true,""version"":""106.0"",""blink"":true,""mac"":true,""osname"":""macOS"",""osversion"":""10.15.7"",""a"":true}","9:21:21","1","3","Test_4","74","j","1","536.1999998092651","2240 x 1260","2240 x 1260","true","1","10","","","","",""
"null","<p style=""font-size: 80px;"">+ 0 points</p>","null","html-keyboard-response","104","540290","0.0-11.0-2.103","571cc797e1d2ec0012a689a0","a5atyk","NG","36","F","{""name"":""Chrome"",""chrome"":true,""version"":""106.0"",""blink"":true,""mac"":true,""osname"":""macOS"",""osversion"":""10.15.7"",""a"":true}","9:21:21","1","3","Test_2","70","j","0","1084.5999999046326","2240 x 1260","2240 x 1260","true","1","0","","","","",""
"null","<p style=""font-size: 80px;"">+ 10 points</p>","null","html-keyboard-response","105","542780","0.0-11.0-2.104","571cc797e1d2ec0012a689a0","a5atyk","NG","36","F","{""name"":""Chrome"",""chrome"":true,""version"":""106.0"",""blink"":true,""mac"":true,""osname"":""macOS"",""osversion"":""10.15.7"",""a"":true}","9:21:21","1","3","Test_4","74","j","1","480.59999990463257","2240 x 1260","2240 x 1260","true","1","10","","","","",""
"null","<p style=""font-size: 80px;"">+ 10 points</p>","null","html-keyboard-response","106","545659","0.0-11.0-2.105","571cc797e1d2ec0012a689a0","a5atyk","NG","36","F","{""name"":""Chrome"",""chrome"":true,""version"":""106.0"",""blink"":true,""mac"":true,""osname"":""macOS"",""osversion"":""10.15.7"",""a"":true}","9:21:21","1","3","Test_2","74","j","1","866.2999999523163","2240 x 1260","2240 x 1260","true","1","10","","","","",""
"null","<p style=""font-size: 80px;"">+ 10 points</p>","null","html-keyboard-response","107","548568","0.0-11.0-2.106","571cc797e1d2ec0012a689a0","a5atyk","NG","36","F","{""name"":""Chrome"",""chrome"":true,""version"":""106.0"",""blink"":true,""mac"":true,""osname"":""macOS"",""osversion"":""10.15.7"",""a"":true}","9:21:21","1","3","Test_3","70","f","1","898.9000000953674","2240 x 1260","2240 x 1260","true","1","10","","","","",""
"null","<p style=""font-size: 80px;"">+ 10 points</p>","null","html-keyboard-response","108","551929","0.0-11.0-2.107","571cc797e1d2ec0012a689a0","a5atyk","NG","36","F","{""name"":""Chrome"",""chrome"":true,""version"":""106.0"",""blink"":true,""mac"":true,""osname"":""macOS"",""osversion"":""10.15.7"",""a"":true}","9:21:21","1","3","Test_1","70","f","1","1351.7999999523163","2240 x 1260","2240 x 1260","true","1","10","","","","",""
"null","<p style=""font-size: 80px;"">+ 10 points</p>","null","html-keyboard-response","109","554626","0.0-11.0-2.108","571cc797e1d2ec0012a689a0","a5atyk","NG","36","F","{""name"":""Chrome"",""chrome"":true,""version"":""106.0"",""blink"":true,""mac"":true,""osname"":""macOS"",""osversion"":""10.15.7"",""a"":true}","9:21:21","1","3","Test_1","70","f","1","693","2240 x 1260","2240 x 1260","true","1","10","","","","",""
"null","<p style=""font-size: 80px;"">+ 0 points</p>","null","html-keyboard-response","110","647030","0.0-11.0-2.109","571cc797e1d2ec0012a689a0","a5atyk","NG","36","F","{""name"":""Chrome"",""chrome"":true,""version"":""106.0"",""blink"":true,""mac"":true,""osname"":""macOS"",""osversion"":""10.15.7"",""a"":true}","9:21:21","1","3","Test_3","74","f","0","3286.5","2240 x 1260","1232 x 1051","true","1","0","","","","",""
"null","<p style=""font-size: 80px;"">+ 10 points</p>","null","html-keyboard-response","111","649580","0.0-11.0-2.110","571cc797e1d2ec0012a689a0","a5atyk","NG","36","F","{""name"":""Chrome"",""chrome"":true,""version"":""106.0"",""blink"":true,""mac"":true,""osname"":""macOS"",""osversion"":""10.15.7"",""a"":true}","9:21:21","1","3","Test_3","70","f","1","537.1999998092651","2240 x 1260","1232 x 1051","true","1","10","","","","",""
"null","<p style=""font-size: 80px;"">+ 10 points</p>","null","html-keyboard-response","112","652006","0.0-11.0-2.111","571cc797e1d2ec0012a689a0","a5atyk","NG","36","F","{""name"":""Chrome"",""chrome"":true,""version"":""106.0"",""blink"":true,""mac"":true,""osname"":""macOS"",""osversion"":""10.15.7"",""a"":true}","9:21:21","1","3","Test_4","74","j","1","423.7999999523163","2240 x 1260","1232 x 1051","true","1","10","","","","",""
"null","<p style=""font-size: 80px;"">+ 10 points</p>","null","html-keyboard-response","113","654842","0.0-11.0-2.112","571cc797e1d2ec0012a689a0","a5atyk","NG","36","F","{""name"":""Chrome"",""chrome"":true,""version"":""106.0"",""blink"":true,""mac"":true,""osname"":""macOS"",""osversion"":""10.15.7"",""a"":true}","9:21:21","1","3","Test_2","74","j","1","827.2999999523163","2240 x 1260","1232 x 1051","true","1","10","","","","",""
"null","<p style=""font-size: 80px;"">+ 10 points</p>","null","html-keyboard-response","114","657887","0.0-11.0-2.113","571cc797e1d2ec0012a689a0","a5atyk","NG","36","F","{""name"":""Chrome"",""chrome"":true,""version"":""106.0"",""blink"":true,""mac"":true,""osname"":""macOS"",""osversion"":""10.15.7"",""a"":true}","9:21:21","1","3","Test_3","70","f","1","1038","2240 x 1260","1232 x 1051","true","1","10","","","","",""
"null","<p style=""font-size: 80px;"">+ 10 points</p>","null","html-keyboard-response","115","660356","0.0-11.0-2.114","571cc797e1d2ec0012a689a0","a5atyk","NG","36","F","{""name"":""Chrome"",""chrome"":true,""version"":""106.0"",""blink"":true,""mac"":true,""osname"":""macOS"",""osversion"":""10.15.7"",""a"":true}","9:21:21","1","3","Test_4","74","j","1","458.19999980926514","2240 x 1260","1232 x 1051","true","1","10","","","","",""
"null","<p style=""font-size: 80px;"">+ 10 points</p>","null","html-keyboard-response","116","663261","0.0-11.0-2.115","571cc797e1d2ec0012a689a0","a5atyk","NG","36","F","{""name"":""Chrome"",""chrome"":true,""version"":""106.0"",""blink"":true,""mac"":true,""osname"":""macOS"",""osversion"":""10.15.7"",""a"":true}","9:21:21","1","3","Test_2","74","j","1","897.6999998092651","2240 x 1260","1232 x 1051","true","1","10","","","","",""
"null","<p style=""font-size: 80px;"">+ 10 points</p>","null","html-keyboard-response","117","666829","0.0-11.0-2.116","571cc797e1d2ec0012a689a0","a5atyk","NG","36","F","{""name"":""Chrome"",""chrome"":true,""version"":""106.0"",""blink"":true,""mac"":true,""osname"":""macOS"",""osversion"":""10.15.7"",""a"":true}","9:21:21","1","3","Test_1","70","f","1","1558.7999999523163","2240 x 1260","1232 x 1051","true","1","10","","","","",""
"null","<p style=""font-size: 80px;"">+ 0 points</p>","null","html-keyboard-response","118","669589","0.0-11.0-2.117","571cc797e1d2ec0012a689a0","a5atyk","NG","36","F","{""name"":""Chrome"",""chrome"":true,""version"":""106.0"",""blink"":true,""mac"":true,""osname"":""macOS"",""osversion"":""10.15.7"",""a"":true}","9:21:21","1","4","Test_3","70","j","0","747.1000001430511","2240 x 1260","1232 x 1051","true","1","0","","","","",""
"null","<p style=""font-size: 80px;"">+ 10 points</p>","null","html-keyboard-response","119","672856","0.0-11.0-2.118","571cc797e1d2ec0012a689a0","a5atyk","NG","36","F","{""name"":""Chrome"",""chrome"":true,""version"":""106.0"",""blink"":true,""mac"":true,""osname"":""macOS"",""osversion"":""10.15.7"",""a"":true}","9:21:21","1","4","Test_1","74","j","1","1257.6000001430511","2240 x 1260","1232 x 1051","true","1","10","","","","",""
"null","<p style=""font-size: 80px;"">+ 10 points</p>","null","html-keyboard-response","120","675589","0.0-11.0-2.119","571cc797e1d2ec0012a689a0","a5atyk","NG","36","F","{""name"":""Chrome"",""chrome"":true,""version"":""106.0"",""blink"":true,""mac"":true,""osname"":""macOS"",""osversion"":""10.15.7"",""a"":true}","9:21:21","1","4","Test_1","74","j","1","720.2000000476837","2240 x 1260","1232 x 1051","true","1","10","","","","",""
"null","<p style=""font-size: 80px;"">+ 10 points</p>","null","html-keyboard-response","121","679672","0.0-11.0-2.120","571cc797e1d2ec0012a689a0","a5atyk","NG","36","F","{""name"":""Chrome"",""chrome"":true,""version"":""106.0"",""blink"":true,""mac"":true,""osname"":""macOS"",""osversion"":""10.15.7"",""a"":true}","9:21:21","1","4","Test_2","70","f","1","2073.7999999523163","2240 x 1260","1232 x 1051","true","1","10","","","","",""
"null","<p style=""font-size: 80px;"">+ 10 points</p>","null","html-keyboard-response","122","683056","0.0-11.0-2.121","571cc797e1d2ec0012a689a0","a5atyk","NG","36","F","{""name"":""Chrome"",""chrome"":true,""version"":""106.0"",""blink"":true,""mac"":true,""osname"":""macOS"",""osversion"":""10.15.7"",""a"":true}","9:21:21","1","4","Test_4","70","f","1","1375.4000000953674","2240 x 1260","1232 x 1051","true","1","10","","","","",""
"null","<p style=""font-size: 80px;"">+ 0 points</p>","null","html-keyboard-response","123","685849","0.0-11.0-2.122","571cc797e1d2ec0012a689a0","a5atyk","NG","36","F","{""name"":""Chrome"",""chrome"":true,""version"":""106.0"",""blink"":true,""mac"":true,""osname"":""macOS"",""osversion"":""10.15.7"",""a"":true}","9:21:21","1","4","Test_2","74","f","0","786.2000000476837","2240 x 1260","1232 x 1051","true","1","0","","","","",""
"null","<p style=""font-size: 80px;"">+ 10 points</p>","null","html-keyboard-response","124","688906","0.0-11.0-2.123","571cc797e1d2ec0012a689a0","a5atyk","NG","36","F","{""name"":""Chrome"",""chrome"":true,""version"":""106.0"",""blink"":true,""mac"":true,""osname"":""macOS"",""osversion"":""10.15.7"",""a"":true}","9:21:21","1","4","Test_1","74","j","1","1047","2240 x 1260","1232 x 1051","true","1","10","","","","",""
"null","<p style=""font-size: 80px;"">+ 0 points</p>","null","html-keyboard-response","125","693638","0.0-11.0-2.124","571cc797e1d2ec0012a689a0","a5atyk","NG","36","F","{""name"":""Chrome"",""chrome"":true,""version"":""106.0"",""blink"":true,""mac"":true,""osname"":""macOS"",""osversion"":""10.15.7"",""a"":true}","9:21:21","1","4","Test_1","70","j","0","2721.199999809265","2240 x 1260","1232 x 1051","true","1","0","","","","",""
"null","<p style=""font-size: 80px;"">+ 10 points</p>","null","html-keyboard-response","126","696676","0.0-11.0-2.125","571cc797e1d2ec0012a689a0","a5atyk","NG","36","F","{""name"":""Chrome"",""chrome"":true,""version"":""106.0"",""blink"":true,""mac"":true,""osname"":""macOS"",""osversion"":""10.15.7"",""a"":true}","9:21:21","1","4","Test_4","70","f","1","1031.2000000476837","2240 x 1260","1232 x 1051","true","1","10","","","","",""
"null","<p style=""font-size: 80px;"">+ 10 points</p>","null","html-keyboard-response","127","699799","0.0-11.0-2.126","571cc797e1d2ec0012a689a0","a5atyk","NG","36","F","{""name"":""Chrome"",""chrome"":true,""version"":""106.0"",""blink"":true,""mac"":true,""osname"":""macOS"",""osversion"":""10.15.7"",""a"":true}","9:21:21","1","4","Test_3","74","j","1","1115.1000001430511","2240 x 1260","1232 x 1051","true","1","10","","","","",""
"null","<p style=""font-size: 80px;"">+ 10 points</p>","null","html-keyboard-response","128","702319","0.0-11.0-2.127","571cc797e1d2ec0012a689a0","a5atyk","NG","36","F","{""name"":""Chrome"",""chrome"":true,""version"":""106.0"",""blink"":true,""mac"":true,""osname"":""macOS"",""osversion"":""10.15.7"",""a"":true}","9:21:21","1","4","Test_3","74","j","1","515.0999999046326","2240 x 1260","1232 x 1051","true","1","10","","","","",""
"null","<p style=""font-size: 80px;"">+ 10 points</p>","null","html-keyboard-response","129","705653","0.0-11.0-2.128","571cc797e1d2ec0012a689a0","a5atyk","NG","36","F","{""name"":""Chrome"",""chrome"":true,""version"":""106.0"",""blink"":true,""mac"":true,""osname"":""macOS"",""osversion"":""10.15.7"",""a"":true}","9:21:21","1","4","Test_2","70","f","1","1322.4000000953674","2240 x 1260","1232 x 1051","true","1","10","","","","",""
"null","<p style=""font-size: 80px;"">+ 10 points</p>","null","html-keyboard-response","130","708856","0.0-11.0-2.129","571cc797e1d2ec0012a689a0","a5atyk","NG","36","F","{""name"":""Chrome"",""chrome"":true,""version"":""106.0"",""blink"":true,""mac"":true,""osname"":""macOS"",""osversion"":""10.15.7"",""a"":true}","9:21:21","1","4","Test_4","70","f","1","1198.1000001430511","2240 x 1260","1232 x 1051","true","1","10","","","","",""
"null","<p style=""font-size: 80px;"">+ 10 points</p>","null","html-keyboard-response","131","712997","0.0-11.0-2.130","571cc797e1d2ec0012a689a0","a5atyk","NG","36","F","{""name"":""Chrome"",""chrome"":true,""version"":""106.0"",""blink"":true,""mac"":true,""osname"":""macOS"",""osversion"":""10.15.7"",""a"":true}","9:21:21","1","4","Test_2","70","f","1","2127.600000143051","2240 x 1260","1232 x 1051","true","1","10","","","","",""
"null","<p style=""font-size: 80px;"">+ 10 points</p>","null","html-keyboard-response","132","716121","0.0-11.0-2.131","571cc797e1d2ec0012a689a0","a5atyk","NG","36","F","{""name"":""Chrome"",""chrome"":true,""version"":""106.0"",""blink"":true,""mac"":true,""osname"":""macOS"",""osversion"":""10.15.7"",""a"":true}","9:21:21","1","4","Test_4","70","f","1","1115.5999999046326","2240 x 1260","1232 x 1051","true","1","10","","","","",""
"null","<p style=""font-size: 80px;"">+ 0 points</p>","null","html-keyboard-response","133","718937","0.0-11.0-2.132","571cc797e1d2ec0012a689a0","a5atyk","NG","36","F","{""name"":""Chrome"",""chrome"":true,""version"":""106.0"",""blink"":true,""mac"":true,""osname"":""macOS"",""osversion"":""10.15.7"",""a"":true}","9:21:21","1","3","Test_4","70","j","0","809.7000000476837","2240 x 1260","1232 x 1051","true","1","0","","","","",""
"null","<p style=""font-size: 80px;"">+ 10 points</p>","null","html-keyboard-response","134","721820","0.0-11.0-2.133","571cc797e1d2ec0012a689a0","a5atyk","NG","36","F","{""name"":""Chrome"",""chrome"":true,""version"":""106.0"",""blink"":true,""mac"":true,""osname"":""macOS"",""osversion"":""10.15.7"",""a"":true}","9:21:21","1","3","Test_1","70","f","1","877.1000001430511","2240 x 1260","1232 x 1051","true","1","10","","","","",""
"null","<p style=""font-size: 80px;"">+ 10 points</p>","null","html-keyboard-response","135","725006","0.0-11.0-2.134","571cc797e1d2ec0012a689a0","a5atyk","NG","36","F","{""name"":""Chrome"",""chrome"":true,""version"":""106.0"",""blink"":true,""mac"":true,""osname"":""macOS"",""osversion"":""10.15.7"",""a"":true}","9:21:21","1","3","Test_1","70","f","1","1177.8000001907349","2240 x 1260","1232 x 1051","true","1","10","","","","",""
"null","<p style=""font-size: 80px;"">+ 0 points</p>","null","html-keyboard-response","136","728360","0.0-11.0-2.135","571cc797e1d2ec0012a689a0","a5atyk","NG","36","F","{""name"":""Chrome"",""chrome"":true,""version"":""106.0"",""blink"":true,""mac"":true,""osname"":""macOS"",""osversion"":""10.15.7"",""a"":true}","9:21:21","1","3","Test_4","70","j","0","1342.7999999523163","2240 x 1260","1232 x 1051","true","1","0","","","","",""
"null","<p style=""font-size: 80px;"">+ 10 points</p>","null","html-keyboard-response","137","731539","0.0-11.0-2.136","571cc797e1d2ec0012a689a0","a5atyk","NG","36","F","{""name"":""Chrome"",""chrome"":true,""version"":""106.0"",""blink"":true,""mac"":true,""osname"":""macOS"",""osversion"":""10.15.7"",""a"":true}","9:21:21","1","3","Test_3","70","f","1","1169.2999999523163","2240 x 1260","1232 x 1051","true","1","10","","","","",""
"null","<p style=""font-size: 80px;"">+ 10 points</p>","null","html-keyboard-response","138","734029","0.0-11.0-2.137","571cc797e1d2ec0012a689a0","a5atyk","NG","36","F","{""name"":""Chrome"",""chrome"":true,""version"":""106.0"",""blink"":true,""mac"":true,""osname"":""macOS"",""osversion"":""10.15.7"",""a"":true}","9:21:21","1","3","Test_4","74","j","1","480.59999990463257","2240 x 1260","1232 x 1051","true","1","10","","","","",""
"null","<p style=""font-size: 80px;"">+ 10 points</p>","null","html-keyboard-response","139","737059","0.0-11.0-2.138","571cc797e1d2ec0012a689a0","a5atyk","NG","36","F","{""name"":""Chrome"",""chrome"":true,""version"":""106.0"",""blink"":true,""mac"":true,""osname"":""macOS"",""osversion"":""10.15.7"",""a"":true}","9:21:21","1","3","Test_3","70","f","1","1023.5","2240 x 1260","1232 x 1051","true","1","10","","","","",""
"null","<p style=""font-size: 80px;"">+ 10 points</p>","null","html-keyboard-response","140","740387","0.0-11.0-2.139","571cc797e1d2ec0012a689a0","a5atyk","NG","36","F","{""name"":""Chrome"",""chrome"":true,""version"":""106.0"",""blink"":true,""mac"":true,""osname"":""macOS"",""osversion"":""10.15.7"",""a"":true}","9:21:21","1","3","Test_2","74","j","1","1316.4000000953674","2240 x 1260","1232 x 1051","true","1","10","","","","",""
"null","<p style=""font-size: 80px;"">+ 10 points</p>","null","html-keyboard-response","141","743359","0.0-11.0-2.140","571cc797e1d2ec0012a689a0","a5atyk","NG","36","F","{""name"":""Chrome"",""chrome"":true,""version"":""106.0"",""blink"":true,""mac"":true,""osname"":""macOS"",""osversion"":""10.15.7"",""a"":true}","9:21:21","1","3","Test_2","74","j","1","962.7999999523163","2240 x 1260","1232 x 1051","true","1","10","","","","",""
"null","<p style=""font-size: 80px;"">+ 0 points</p>","null","html-keyboard-response","142","747211","0.0-11.0-2.141","571cc797e1d2ec0012a689a0","a5atyk","NG","36","F","{""name"":""Chrome"",""chrome"":true,""version"":""106.0"",""blink"":true,""mac"":true,""osname"":""macOS"",""osversion"":""10.15.7"",""a"":true}","9:21:21","1","3","Test_3","74","f","0","1840.9000000953674","2240 x 1260","1232 x 1051","true","1","0","","","","",""
"null","<p style=""font-size: 80px;"">+ 10 points</p>","null","html-keyboard-response","143","750256","0.0-11.0-2.142","571cc797e1d2ec0012a689a0","a5atyk","NG","36","F","{""name"":""Chrome"",""chrome"":true,""version"":""106.0"",""blink"":true,""mac"":true,""osname"":""macOS"",""osversion"":""10.15.7"",""a"":true}","9:21:21","1","3","Test_3","70","f","1","1040.2999999523163","2240 x 1260","1232 x 1051","true","1","10","","","","",""
"null","<p style=""font-size: 80px;"">+ 10 points</p>","null","html-keyboard-response","144","753261","0.0-11.0-2.143","571cc797e1d2ec0012a689a0","a5atyk","NG","36","F","{""name"":""Chrome"",""chrome"":true,""version"":""106.0"",""blink"":true,""mac"":true,""osname"":""macOS"",""osversion"":""10.15.7"",""a"":true}","9:21:21","1","3","Test_4","74","j","1","992.2999999523163","2240 x 1260","1232 x 1051","true","1","10","","","","",""
"null","<p style=""font-size: 80px;"">+ 10 points</p>","null","html-keyboard-response","145","756076","0.0-11.0-2.144","571cc797e1d2ec0012a689a0","a5atyk","NG","36","F","{""name"":""Chrome"",""chrome"":true,""version"":""106.0"",""blink"":true,""mac"":true,""osname"":""macOS"",""osversion"":""10.15.7"",""a"":true}","9:21:21","1","3","Test_1","70","f","1","807","2240 x 1260","1232 x 1051","true","1","10","","","","",""
"null","<p style=""font-size: 80px;"">+ 10 points</p>","null","html-keyboard-response","146","758779","0.0-11.0-2.145","571cc797e1d2ec0012a689a0","a5atyk","NG","36","F","{""name"":""Chrome"",""chrome"":true,""version"":""106.0"",""blink"":true,""mac"":true,""osname"":""macOS"",""osversion"":""10.15.7"",""a"":true}","9:21:21","1","3","Test_1","70","f","1","696.7000000476837","2240 x 1260","1232 x 1051","true","1","10","","","","",""
"null","<p style=""font-size: 80px;"">+ 10 points</p>","null","html-keyboard-response","147","761509","0.0-11.0-2.146","571cc797e1d2ec0012a689a0","a5atyk","NG","36","F","{""name"":""Chrome"",""chrome"":true,""version"":""106.0"",""blink"":true,""mac"":true,""osname"":""macOS"",""osversion"":""10.15.7"",""a"":true}","9:21:21","1","3","Test_4","74","j","1","726","2240 x 1260","1232 x 1051","true","1","10","","","","",""
"null","<p style=""font-size: 80px;"">+ 10 points</p>","null","html-keyboard-response","148","764268","0.0-11.0-2.147","571cc797e1d2ec0012a689a0","a5atyk","NG","36","F","{""name"":""Chrome"",""chrome"":true,""version"":""106.0"",""blink"":true,""mac"":true,""osname"":""macOS"",""osversion"":""10.15.7"",""a"":true}","9:21:21","1","3","Test_1","70","f","1","751.2999999523163","2240 x 1260","1232 x 1051","true","1","10","","","","",""
"null","<p style=""font-size: 80px;"">+ 10 points</p>","null","html-keyboard-response","149","767390","0.0-11.0-2.148","571cc797e1d2ec0012a689a0","a5atyk","NG","36","F","{""name"":""Chrome"",""chrome"":true,""version"":""106.0"",""blink"":true,""mac"":true,""osname"":""macOS"",""osversion"":""10.15.7"",""a"":true}","9:21:21","1","3","Test_3","70","f","1","1113.7999999523163","2240 x 1260","1232 x 1051","true","1","10","","","","",""
"null","<p style=""font-size: 80px;"">+ 10 points</p>","null","html-keyboard-response","150","770542","0.0-11.0-2.149","571cc797e1d2ec0012a689a0","a5atyk","NG","36","F","{""name"":""Chrome"",""chrome"":true,""version"":""106.0"",""blink"":true,""mac"":true,""osname"":""macOS"",""osversion"":""10.15.7"",""a"":true}","9:21:21","1","3","Test_1","70","f","1","1144.4000000953674","2240 x 1260","1232 x 1051","true","1","10","","","","",""
"null","<p style=""font-size: 80px;"">+ 10 points</p>","null","html-keyboard-response","151","773551","0.0-11.0-2.150","571cc797e1d2ec0012a689a0","a5atyk","NG","36","F","{""name"":""Chrome"",""chrome"":true,""version"":""106.0"",""blink"":true,""mac"":true,""osname"":""macOS"",""osversion"":""10.15.7"",""a"":true}","9:21:21","1","3","Test_2","74","j","1","1005.7000000476837","2240 x 1260","1232 x 1051","true","1","10","","","","",""
"null","<p style=""font-size: 80px;"">+ 10 points</p>","null","html-keyboard-response","152","776420","0.0-11.0-2.151","571cc797e1d2ec0012a689a0","a5atyk","NG","36","F","{""name"":""Chrome"",""chrome"":true,""version"":""106.0"",""blink"":true,""mac"":true,""osname"":""macOS"",""osversion"":""10.15.7"",""a"":true}","9:21:21","1","3","Test_2","74","j","1","861.2000000476837","2240 x 1260","1232 x 1051","true","1","10","","","","",""
"null","<p style=""font-size: 80px;"">+ 0 points</p>","null","html-keyboard-response","153","779090","0.0-11.0-2.152","571cc797e1d2ec0012a689a0","a5atyk","NG","36","F","{""name"":""Chrome"",""chrome"":true,""version"":""106.0"",""blink"":true,""mac"":true,""osname"":""macOS"",""osversion"":""10.15.7"",""a"":true}","9:21:21","1","3","Test_4","70","j","0","663.7000000476837","2240 x 1260","1232 x 1051","true","1","0","","","","",""
"null","<p style=""font-size: 80px;"">+ 10 points</p>","null","html-keyboard-response","154","781789","0.0-11.0-2.153","571cc797e1d2ec0012a689a0","a5atyk","NG","36","F","{""name"":""Chrome"",""chrome"":true,""version"":""106.0"",""blink"":true,""mac"":true,""osname"":""macOS"",""osversion"":""10.15.7"",""a"":true}","9:21:21","1","3","Test_2","74","j","1","692.5","2240 x 1260","1232 x 1051","true","1","10","","","","",""
"null","<p style=""font-size: 80px;"">+ 10 points</p>","null","html-keyboard-response","155","784790","0.0-11.0-2.154","571cc797e1d2ec0012a689a0","a5atyk","NG","36","F","{""name"":""Chrome"",""chrome"":true,""version"":""106.0"",""blink"":true,""mac"":true,""osname"":""macOS"",""osversion"":""10.15.7"",""a"":true}","9:21:21","1","3","Test_2","74","j","1","994.3999998569489","2240 x 1260","1232 x 1051","true","1","10","","","","",""
"null","<p style=""font-size: 80px;"">+ 0 points</p>","null","html-keyboard-response","156","788995","0.0-11.0-2.155","571cc797e1d2ec0012a689a0","a5atyk","NG","36","F","{""name"":""Chrome"",""chrome"":true,""version"":""106.0"",""blink"":true,""mac"":true,""osname"":""macOS"",""osversion"":""10.15.7"",""a"":true}","9:21:21","1","4","Test_4","74","f","0","2195.399999856949","2240 x 1260","1232 x 1051","true","1","0","","","","",""
"null","<p style=""font-size: 80px;"">+ 0 points</p>","null","html-keyboard-response","157","791781","0.0-11.0-2.156","571cc797e1d2ec0012a689a0","a5atyk","NG","36","F","{""name"":""Chrome"",""chrome"":true,""version"":""106.0"",""blink"":true,""mac"":true,""osname"":""macOS"",""osversion"":""10.15.7"",""a"":true}","9:21:21","1","4","Test_1","70","j","0","778.2000000476837","2240 x 1260","1232 x 1051","true","1","0","","","","",""
"null","<p style=""font-size: 80px;"">+ 10 points</p>","null","html-keyboard-response","158","794492","0.0-11.0-2.157","571cc797e1d2ec0012a689a0","a5atyk","NG","36","F","{""name"":""Chrome"",""chrome"":true,""version"":""106.0"",""blink"":true,""mac"":true,""osname"":""macOS"",""osversion"":""10.15.7"",""a"":true}","9:21:21","1","4","Test_1","74","j","1","704","2240 x 1260","1232 x 1051","true","1","10","","","","",""
"null","<p style=""font-size: 80px;"">+ 10 points</p>","null","html-keyboard-response","159","797450","0.0-11.0-2.158","571cc797e1d2ec0012a689a0","a5atyk","NG","36","F","{""name"":""Chrome"",""chrome"":true,""version"":""106.0"",""blink"":true,""mac"":true,""osname"":""macOS"",""osversion"":""10.15.7"",""a"":true}","9:21:21","1","4","Test_1","74","j","1","952.7999999523163","2240 x 1260","1232 x 1051","true","1","10","","","","",""
"null","<p style=""font-size: 80px;"">+ 10 points</p>","null","html-keyboard-response","160","800179","0.0-11.0-2.159","571cc797e1d2ec0012a689a0","a5atyk","NG","36","F","{""name"":""Chrome"",""chrome"":true,""version"":""106.0"",""blink"":true,""mac"":true,""osname"":""macOS"",""osversion"":""10.15.7"",""a"":true}","9:21:21","1","4","Test_1","74","j","1","720.8000001907349","2240 x 1260","1232 x 1051","true","1","10","","","","",""
"null","<p style=""font-size: 80px;"">+ 0 points</p>","null","html-keyboard-response","161","802939","0.0-11.0-2.160","571cc797e1d2ec0012a689a0","a5atyk","NG","36","F","{""name"":""Chrome"",""chrome"":true,""version"":""106.0"",""blink"":true,""mac"":true,""osname"":""macOS"",""osversion"":""10.15.7"",""a"":true}","9:21:21","1","4","Test_3","70","j","0","747.5","2240 x 1260","1232 x 1051","true","1","0","","","","",""
"null","<p style=""font-size: 80px;"">+ 0 points</p>","null","html-keyboard-response","162","805436","0.0-11.0-2.161","571cc797e1d2ec0012a689a0","a5atyk","NG","36","F","{""name"":""Chrome"",""chrome"":true,""version"":""106.0"",""blink"":true,""mac"":true,""osname"":""macOS"",""osversion"":""10.15.7"",""a"":true}","9:21:21","1","4","Test_4","74","f","0","487.7000000476837","2240 x 1260","1232 x 1051","true","1","0","","","","",""
"null","<p style=""font-size: 80px;"">+ 10 points</p>","null","html-keyboard-response","163","808427","0.0-11.0-2.162","571cc797e1d2ec0012a689a0","a5atyk","NG","36","F","{""name"":""Chrome"",""chrome"":true,""version"":""106.0"",""blink"":true,""mac"":true,""osname"":""macOS"",""osversion"":""10.15.7"",""a"":true}","9:21:21","1","4","Test_4","70","f","1","982.6999998092651","2240 x 1260","1232 x 1051","true","1","10","","","","",""
"null","<p style=""font-size: 80px;"">+ 10 points</p>","null","html-keyboard-response","164","811848","0.0-11.0-2.163","571cc797e1d2ec0012a689a0","a5atyk","NG","36","F","{""name"":""Chrome"",""chrome"":true,""version"":""106.0"",""blink"":true,""mac"":true,""osname"":""macOS"",""osversion"":""10.15.7"",""a"":true}","9:21:21","1","4","Test_2","70","f","1","1410.4000000953674","2240 x 1260","1232 x 1051","true","1","10","","","","",""
"null","<p style=""font-size: 80px;"">+ 0 points</p>","null","html-keyboard-response","165","814611","0.0-11.0-2.164","571cc797e1d2ec0012a689a0","a5atyk","NG","36","F","{""name"":""Chrome"",""chrome"":true,""version"":""106.0"",""blink"":true,""mac"":true,""osname"":""macOS"",""osversion"":""10.15.7"",""a"":true}","9:21:21","1","4","Test_4","74","f","0","757","2240 x 1260","1232 x 1051","true","1","0","","","","",""
"null","<p style=""font-size: 80px;"">+ 0 points</p>","null","html-keyboard-response","166","817279","0.0-11.0-2.165","571cc797e1d2ec0012a689a0","a5atyk","NG","36","F","{""name"":""Chrome"",""chrome"":true,""version"":""106.0"",""blink"":true,""mac"":true,""osname"":""macOS"",""osversion"":""10.15.7"",""a"":true}","9:21:21","1","4","Test_3","70","j","0","658.2000000476837","2240 x 1260","1232 x 1051","true","1","0","","","","",""
"null","<p style=""font-size: 80px;"">+ 10 points</p>","null","html-keyboard-response","167","820247","0.0-11.0-2.166","571cc797e1d2ec0012a689a0","a5atyk","NG","36","F","{""name"":""Chrome"",""chrome"":true,""version"":""106.0"",""blink"":true,""mac"":true,""osname"":""macOS"",""osversion"":""10.15.7"",""a"":true}","9:21:21","1","4","Test_2","70","f","1","961.7999999523163","2240 x 1260","1232 x 1051","true","1","10","","","","",""
"null","<p style=""font-size: 80px;"">+ 0 points</p>","null","html-keyboard-response","168","823069","0.0-11.0-2.167","571cc797e1d2ec0012a689a0","a5atyk","NG","36","F","{""name"":""Chrome"",""chrome"":true,""version"":""106.0"",""blink"":true,""mac"":true,""osname"":""macOS"",""osversion"":""10.15.7"",""a"":true}","9:21:21","1","4","Test_2","74","f","0","815.5999999046326","2240 x 1260","1232 x 1051","true","1","0","","","","",""
"null","<p style=""font-size: 80px;"">+ 0 points</p>","null","html-keyboard-response","169","825680","0.0-11.0-2.168","571cc797e1d2ec0012a689a0","a5atyk","NG","36","F","{""name"":""Chrome"",""chrome"":true,""version"":""106.0"",""blink"":true,""mac"":true,""osname"":""macOS"",""osversion"":""10.15.7"",""a"":true}","9:21:21","1","4","Test_3","70","j","0","603.1000001430511","2240 x 1260","1232 x 1051","true","1","0","","","","",""
"null","<p style=""font-size: 80px;"">+ 0 points</p>","null","html-keyboard-response","170","828165","0.0-11.0-2.169","571cc797e1d2ec0012a689a0","a5atyk","NG","36","F","{""name"":""Chrome"",""chrome"":true,""version"":""106.0"",""blink"":true,""mac"":true,""osname"":""macOS"",""osversion"":""10.15.7"",""a"":true}","9:21:21","1","4","Test_2","74","f","0","483.09999990463257","2240 x 1260","1232 x 1051","true","1","0","","","","",""
"null","<p style=""font-size: 80px;"">+ 10 points</p>","null","html-keyboard-response","171","830806","0.0-11.0-2.170","571cc797e1d2ec0012a689a0","a5atyk","NG","36","F","{""name"":""Chrome"",""chrome"":true,""version"":""106.0"",""blink"":true,""mac"":true,""osname"":""macOS"",""osversion"":""10.15.7"",""a"":true}","9:21:21","1","4","Test_1","74","j","1","632.2999999523163","2240 x 1260","1232 x 1051","true","1","10","","","","",""
"null","<p style=""font-size: 80px;"">+ 0 points</p>","null","html-keyboard-response","172","833990","0.0-11.0-2.171","571cc797e1d2ec0012a689a0","a5atyk","NG","36","F","{""name"":""Chrome"",""chrome"":true,""version"":""106.0"",""blink"":true,""mac"":true,""osname"":""macOS"",""osversion"":""10.15.7"",""a"":true}","9:21:21","1","4","Test_3","70","j","0","1174.9000000953674","2240 x 1260","1232 x 1051","true","1","0","","","","",""
"null","<p style=""font-size: 80px;"">+ 0 points</p>","null","html-keyboard-response","173","837350","0.0-11.0-2.172","571cc797e1d2ec0012a689a0","a5atyk","NG","36","F","{""name"":""Chrome"",""chrome"":true,""version"":""106.0"",""blink"":true,""mac"":true,""osname"":""macOS"",""osversion"":""10.15.7"",""a"":true}","9:21:21","1","4","Test_2","74","f","0","1347","2240 x 1260","1232 x 1051","true","1","0","","","","",""
"null","<p style=""font-size: 80px;"">+ 10 points</p>","null","html-keyboard-response","174","840172","0.0-11.0-2.173","571cc797e1d2ec0012a689a0","a5atyk","NG","36","F","{""name"":""Chrome"",""chrome"":true,""version"":""106.0"",""blink"":true,""mac"":true,""osname"":""macOS"",""osversion"":""10.15.7"",""a"":true}","9:21:21","1","4","Test_3","74","j","1","811.4000000953674","2240 x 1260","1232 x 1051","true","1","10","","","","",""
"null","<p style=""font-size: 80px;"">+ 10 points</p>","null","html-keyboard-response","175","843140","0.0-11.0-2.174","571cc797e1d2ec0012a689a0","a5atyk","NG","36","F","{""name"":""Chrome"",""chrome"":true,""version"":""106.0"",""blink"":true,""mac"":true,""osname"":""macOS"",""osversion"":""10.15.7"",""a"":true}","9:21:21","1","4","Test_4","70","f","1","958.4000000953674","2240 x 1260","1232 x 1051","true","1","10","","","","",""
"null","<p style=""font-size: 80px;"">+ 0 points</p>","null","html-keyboard-response","176","845870","0.0-11.0-2.175","571cc797e1d2ec0012a689a0","a5atyk","NG","36","F","{""name"":""Chrome"",""chrome"":true,""version"":""106.0"",""blink"":true,""mac"":true,""osname"":""macOS"",""osversion"":""10.15.7"",""a"":true}","9:21:21","1","4","Test_4","74","f","0","724","2240 x 1260","1232 x 1051","true","1","0","","","","",""
"null","<p style=""font-size: 80px;"">+ 10 points</p>","null","html-keyboard-response","177","848513","0.0-11.0-2.176","571cc797e1d2ec0012a689a0","a5atyk","NG","36","F","{""name"":""Chrome"",""chrome"":true,""version"":""106.0"",""blink"":true,""mac"":true,""osname"":""macOS"",""osversion"":""10.15.7"",""a"":true}","9:21:21","1","3","Test_3","70","f","1","634.4000000953674","2240 x 1260","1232 x 1051","true","1","10","","","","",""
"null","<p style=""font-size: 80px;"">+ 0 points</p>","null","html-keyboard-response","178","851931","0.0-11.0-2.177","571cc797e1d2ec0012a689a0","a5atyk","NG","36","F","{""name"":""Chrome"",""chrome"":true,""version"":""106.0"",""blink"":true,""mac"":true,""osname"":""macOS"",""osversion"":""10.15.7"",""a"":true}","9:21:21","1","3","Test_1","74","f","0","1412","2240 x 1260","1232 x 1051","true","1","0","","","","",""
"null","<p style=""font-size: 80px;"">+ 0 points</p>","null","html-keyboard-response","179","854692","0.0-11.0-2.178","571cc797e1d2ec0012a689a0","a5atyk","NG","36","F","{""name"":""Chrome"",""chrome"":true,""version"":""106.0"",""blink"":true,""mac"":true,""osname"":""macOS"",""osversion"":""10.15.7"",""a"":true}","9:21:21","1","3","Test_2","70","j","0","756.1000001430511","2240 x 1260","1232 x 1051","true","1","0","","","","",""
"null","<p style=""font-size: 80px;"">+ 10 points</p>","null","html-keyboard-response","180","857330","0.0-11.0-2.179","571cc797e1d2ec0012a689a0","a5atyk","NG","36","F","{""name"":""Chrome"",""chrome"":true,""version"":""106.0"",""blink"":true,""mac"":true,""osname"":""macOS"",""osversion"":""10.15.7"",""a"":true}","9:21:21","1","3","Test_2","74","j","1","627","2240 x 1260","1232 x 1051","true","1","10","","","","",""
"null","<p style=""font-size: 80px;"">+ 0 points</p>","null","html-keyboard-response","181","859790","0.0-11.0-2.180","571cc797e1d2ec0012a689a0","a5atyk","NG","36","F","{""name"":""Chrome"",""chrome"":true,""version"":""106.0"",""blink"":true,""mac"":true,""osname"":""macOS"",""osversion"":""10.15.7"",""a"":true}","9:21:21","1","3","Test_3","74","f","0","448.59999990463257","2240 x 1260","1232 x 1051","true","1","0","","","","",""
"null","<p style=""font-size: 80px;"">+ 10 points</p>","null","html-keyboard-response","182","862523","0.0-11.0-2.181","571cc797e1d2ec0012a689a0","a5atyk","NG","36","F","{""name"":""Chrome"",""chrome"":true,""version"":""106.0"",""blink"":true,""mac"":true,""osname"":""macOS"",""osversion"":""10.15.7"",""a"":true}","9:21:21","1","3","Test_1","70","f","1","723.5999999046326","2240 x 1260","1232 x 1051","true","1","10","","","","",""
"null","<p style=""font-size: 80px;"">+ 10 points</p>","null","html-keyboard-response","183","865289","0.0-11.0-2.182","571cc797e1d2ec0012a689a0","a5atyk","NG","36","F","{""name"":""Chrome"",""chrome"":true,""version"":""106.0"",""blink"":true,""mac"":true,""osname"":""macOS"",""osversion"":""10.15.7"",""a"":true}","9:21:21","1","3","Test_4","74","j","1","752.9000000953674","2240 x 1260","1232 x 1051","true","1","10","","","","",""
"null","<p style=""font-size: 80px;"">+ 10 points</p>","null","html-keyboard-response","184","867922","0.0-11.0-2.183","571cc797e1d2ec0012a689a0","a5atyk","NG","36","F","{""name"":""Chrome"",""chrome"":true,""version"":""106.0"",""blink"":true,""mac"":true,""osname"":""macOS"",""osversion"":""10.15.7"",""a"":true}","9:21:21","1","3","Test_3","70","f","1","621.7000000476837","2240 x 1260","1232 x 1051","true","1","10","","","","",""
"null","<p style=""font-size: 80px;"">+ 10 points</p>","null","html-keyboard-response","185","870680","0.0-11.0-2.184","571cc797e1d2ec0012a689a0","a5atyk","NG","36","F","{""name"":""Chrome"",""chrome"":true,""version"":""106.0"",""blink"":true,""mac"":true,""osname"":""macOS"",""osversion"":""10.15.7"",""a"":true}","9:21:21","1","3","Test_3","70","f","1","750.2000000476837","2240 x 1260","1232 x 1051","true","1","10","","","","",""
"null","<p style=""font-size: 80px;"">+ 0 points</p>","null","html-keyboard-response","186","873382","0.0-11.0-2.185","571cc797e1d2ec0012a689a0","a5atyk","NG","36","F","{""name"":""Chrome"",""chrome"":true,""version"":""106.0"",""blink"":true,""mac"":true,""osname"":""macOS"",""osversion"":""10.15.7"",""a"":true}","9:21:21","1","3","Test_2","70","j","0","686.7000000476837","2240 x 1260","1232 x 1051","true","1","0","","","","",""
"null","<p style=""font-size: 80px;"">+ 10 points</p>","null","html-keyboard-response","187","875959","0.0-11.0-2.186","571cc797e1d2ec0012a689a0","a5atyk","NG","36","F","{""name"":""Chrome"",""chrome"":true,""version"":""106.0"",""blink"":true,""mac"":true,""osname"":""macOS"",""osversion"":""10.15.7"",""a"":true}","9:21:21","1","3","Test_3","70","f","1","565.2000000476837","2240 x 1260","1232 x 1051","true","1","10","","","","",""
"null","<p style=""font-size: 80px;"">+ 0 points</p>","null","html-keyboard-response","188","878660","0.0-11.0-2.187","571cc797e1d2ec0012a689a0","a5atyk","NG","36","F","{""name"":""Chrome"",""chrome"":true,""version"":""106.0"",""blink"":true,""mac"":true,""osname"":""macOS"",""osversion"":""10.15.7"",""a"":true}","9:21:21","1","3","Test_1","74","f","0","688.7000000476837","2240 x 1260","1232 x 1051","true","1","0","","","","",""
