"rt","stimulus","key_press","trial_type","trial_index","time_elapsed","internal_node_id","Prolific_ID","random_ID","initials","age","gender","pc_info","start_time","Phase","Rule","Stimulus","Response","CorrResp","Accuracy","ResponseTime","screen_resolution","window_resolution","focus","relevant","Points","responses","question_order","rev_check","butterfly_check","passed_practice"
"null","<p style=""font-size: 80px;"">+ 10 points</p>","null","html-keyboard-response","1","42154","0.0-7.0-2.0","5ed7d4019c64e70c16dc327a","v2o6hc","HC","28","F","{""name"":""Chrome"",""chrome"":true,""version"":""106.0"",""blink"":true,""windows"":true,""osname"":""Windows"",""osversion"":""10"",""a"":true}","9:23:6","0","1","Practice_1","70","f","1","984.2999999523163","1280 x 720","1280 x 720","true","1","10","","","","",""
"null","<p style=""font-size: 80px;"">+ 10 points</p>","null","html-keyboard-response","2","45305","0.0-7.0-2.1","5ed7d4019c64e70c16dc327a","v2o6hc","HC","28","F","{""name"":""Chrome"",""chrome"":true,""version"":""106.0"",""blink"":true,""windows"":true,""osname"":""Windows"",""osversion"":""10"",""a"":true}","9:23:6","0","1","Practice_4","74","j","1","1117.5999999046326","1280 x 720","1280 x 720","true","1","10","","","","",""
"null","<p style=""font-size: 80px;"">+ 0 points</p>","null","html-keyboard-response","3","48710","0.0-7.0-2.2","5ed7d4019c64e70c16dc327a","v2o6hc","HC","28","F","{""name"":""Chrome"",""chrome"":true,""version"":""106.0"",""blink"":true,""windows"":true,""osname"":""Windows"",""osversion"":""10"",""a"":true}","9:23:6","0","1","Practice_2","70","j","0","1388.7000000476837","1280 x 720","1280 x 720","true","1","0","","","","",""
"null","<p style=""font-size: 80px;"">+ 10 points</p>","null","html-keyboard-response","4","52771","0.0-7.0-2.3","5ed7d4019c64e70c16dc327a","v2o6hc","HC","28","F","{""name"":""Chrome"",""chrome"":true,""version"":""106.0"",""blink"":true,""windows"":true,""osname"":""Windows"",""osversion"":""10"",""a"":true}","9:23:6","0","1","Practice_3","70","f","1","2039.1000001430511","1280 x 720","1280 x 720","true","1","10","","","","",""
"null","<p style=""font-size: 80px;"">+ 10 points</p>","null","html-keyboard-response","5","56197","0.0-7.0-2.4","5ed7d4019c64e70c16dc327a","v2o6hc","HC","28","F","{""name"":""Chrome"",""chrome"":true,""version"":""106.0"",""blink"":true,""windows"":true,""osname"":""Windows"",""osversion"":""10"",""a"":true}","9:23:6","0","1","Practice_2","74","j","1","1411.2999999523163","1280 x 720","1280 x 720","true","1","10","","","","",""
"null","<p style=""font-size: 80px;"">+ 0 points</p>","null","html-keyboard-response","6","58972","0.0-7.0-2.5","5ed7d4019c64e70c16dc327a","v2o6hc","HC","28","F","{""name"":""Chrome"",""chrome"":true,""version"":""106.0"",""blink"":true,""windows"":true,""osname"":""Windows"",""osversion"":""10"",""a"":true}","9:23:6","0","1","Practice_3","74","f","0","765.0999999046326","1280 x 720","1280 x 720","true","1","0","","","","",""
"null","<p style=""font-size: 80px;"">+ 10 points</p>","null","html-keyboard-response","7","61845","0.0-7.0-2.6","5ed7d4019c64e70c16dc327a","v2o6hc","HC","28","F","{""name"":""Chrome"",""chrome"":true,""version"":""106.0"",""blink"":true,""windows"":true,""osname"":""Windows"",""osversion"":""10"",""a"":true}","9:23:6","0","1","Practice_2","74","j","1","862.2999999523163","1280 x 720","1280 x 720","true","1","10","","","","",""
"null","<p style=""font-size: 80px;"">+ 10 points</p>","null","html-keyboard-response","8","64554","0.0-7.0-2.7","5ed7d4019c64e70c16dc327a","v2o6hc","HC","28","F","{""name"":""Chrome"",""chrome"":true,""version"":""106.0"",""blink"":true,""windows"":true,""osname"":""Windows"",""osversion"":""10"",""a"":true}","9:23:6","0","1","Practice_4","74","j","1","677.1999998092651","1280 x 720","1280 x 720","true","1","10","","","","",""
"null","<p style=""font-size: 80px;"">+ 10 points</p>","null","html-keyboard-response","9","67266","0.0-7.0-2.8","5ed7d4019c64e70c16dc327a","v2o6hc","HC","28","F","{""name"":""Chrome"",""chrome"":true,""version"":""106.0"",""blink"":true,""windows"":true,""osname"":""Windows"",""osversion"":""10"",""a"":true}","9:23:6","0","1","Practice_4","74","j","1","701.2999999523163","1280 x 720","1280 x 720","true","1","10","","","","",""
"null","<p style=""font-size: 80px;"">+ 10 points</p>","null","html-keyboard-response","10","69808","0.0-7.0-2.9","5ed7d4019c64e70c16dc327a","v2o6hc","HC","28","F","{""name"":""Chrome"",""chrome"":true,""version"":""106.0"",""blink"":true,""windows"":true,""osname"":""Windows"",""osversion"":""10"",""a"":true}","9:23:6","0","1","Practice_3","70","f","1","511.09999990463257","1280 x 720","1280 x 720","true","1","10","","","","",""
"null","<p style=""font-size: 80px;"">+ 10 points</p>","null","html-keyboard-response","11","72624","0.0-7.0-2.10","5ed7d4019c64e70c16dc327a","v2o6hc","HC","28","F","{""name"":""Chrome"",""chrome"":true,""version"":""106.0"",""blink"":true,""windows"":true,""osname"":""Windows"",""osversion"":""10"",""a"":true}","9:23:6","0","1","Practice_2","74","j","1","781.7000000476837","1280 x 720","1280 x 720","true","1","10","","","","",""
"null","<p style=""font-size: 80px;"">+ 10 points</p>","null","html-keyboard-response","12","75465","0.0-7.0-2.11","5ed7d4019c64e70c16dc327a","v2o6hc","HC","28","F","{""name"":""Chrome"",""chrome"":true,""version"":""106.0"",""blink"":true,""windows"":true,""osname"":""Windows"",""osversion"":""10"",""a"":true}","9:23:6","0","1","Practice_1","70","f","1","805.7000000476837","1280 x 720","1280 x 720","true","1","10","","","","",""
"null","<p style=""font-size: 80px;"">+ 10 points</p>","null","html-keyboard-response","13","78111","0.0-7.0-2.12","5ed7d4019c64e70c16dc327a","v2o6hc","HC","28","F","{""name"":""Chrome"",""chrome"":true,""version"":""106.0"",""blink"":true,""windows"":true,""osname"":""Windows"",""osversion"":""10"",""a"":true}","9:23:6","0","1","Practice_1","70","f","1","607.5","1280 x 720","1280 x 720","true","1","10","","","","",""
"null","<p style=""font-size: 80px;"">+ 10 points</p>","null","html-keyboard-response","14","80636","0.0-7.0-2.13","5ed7d4019c64e70c16dc327a","v2o6hc","HC","28","F","{""name"":""Chrome"",""chrome"":true,""version"":""106.0"",""blink"":true,""windows"":true,""osname"":""Windows"",""osversion"":""10"",""a"":true}","9:23:6","0","1","Practice_2","74","j","1","514.5","1280 x 720","1280 x 720","true","1","10","","","","",""
"null","<p style=""font-size: 80px;"">+ 10 points</p>","null","html-keyboard-response","15","83594","0.0-7.0-2.14","5ed7d4019c64e70c16dc327a","v2o6hc","HC","28","F","{""name"":""Chrome"",""chrome"":true,""version"":""106.0"",""blink"":true,""windows"":true,""osname"":""Windows"",""osversion"":""10"",""a"":true}","9:23:6","0","1","Practice_3","70","f","1","938.4000000953674","1280 x 720","1280 x 720","true","1","10","","","","",""
"null","<p style=""font-size: 80px;"">+ 10 points</p>","null","html-keyboard-response","16","86269","0.0-7.0-2.15","5ed7d4019c64e70c16dc327a","v2o6hc","HC","28","F","{""name"":""Chrome"",""chrome"":true,""version"":""106.0"",""blink"":true,""windows"":true,""osname"":""Windows"",""osversion"":""10"",""a"":true}","9:23:6","0","1","Practice_3","70","f","1","663.7999999523163","1280 x 720","1280 x 720","true","1","10","","","","",""
"null","<p style=""font-size: 80px;"">+ 10 points</p>","null","html-keyboard-response","17","89098","0.0-7.0-2.16","5ed7d4019c64e70c16dc327a","v2o6hc","HC","28","F","{""name"":""Chrome"",""chrome"":true,""version"":""106.0"",""blink"":true,""windows"":true,""osname"":""Windows"",""osversion"":""10"",""a"":true}","9:23:6","0","1","Practice_1","70","f","1","816.5","1280 x 720","1280 x 720","true","1","10","","","","",""
"null","<p style=""font-size: 80px;"">+ 10 points</p>","null","html-keyboard-response","18","91544","0.0-7.0-2.17","5ed7d4019c64e70c16dc327a","v2o6hc","HC","28","F","{""name"":""Chrome"",""chrome"":true,""version"":""106.0"",""blink"":true,""windows"":true,""osname"":""Windows"",""osversion"":""10"",""a"":true}","9:23:6","0","1","Practice_1","70","f","1","410","1280 x 720","1280 x 720","true","1","10","","","","",""
"null","<p style=""font-size: 80px;"">+ 10 points</p>","null","html-keyboard-response","19","94274","0.0-7.0-2.18","5ed7d4019c64e70c16dc327a","v2o6hc","HC","28","F","{""name"":""Chrome"",""chrome"":true,""version"":""106.0"",""blink"":true,""windows"":true,""osname"":""Windows"",""osversion"":""10"",""a"":true}","9:23:6","0","1","Practice_4","74","j","1","714.5","1280 x 720","1280 x 720","true","1","10","","","","",""
"null","<p style=""font-size: 80px;"">+ 10 points</p>","null","html-keyboard-response","20","96907","0.0-7.0-2.19","5ed7d4019c64e70c16dc327a","v2o6hc","HC","28","F","{""name"":""Chrome"",""chrome"":true,""version"":""106.0"",""blink"":true,""windows"":true,""osname"":""Windows"",""osversion"":""10"",""a"":true}","9:23:6","0","1","Practice_4","74","j","1","600.5999999046326","1280 x 720","1280 x 720","true","1","10","","","","",""
"null","<p style=""font-size: 80px;"">+ 0 points</p>","null","html-keyboard-response","21","99738","0.0-7.0-2.20","5ed7d4019c64e70c16dc327a","v2o6hc","HC","28","F","{""name"":""Chrome"",""chrome"":true,""version"":""106.0"",""blink"":true,""windows"":true,""osname"":""Windows"",""osversion"":""10"",""a"":true}","9:23:6","0","2","Practice_2","74","f","0","802.0999999046326","1280 x 720","1280 x 720","true","1","0","","","","",""
"null","<p style=""font-size: 80px;"">+ 0 points</p>","null","html-keyboard-response","22","102163","0.0-7.0-2.21","5ed7d4019c64e70c16dc327a","v2o6hc","HC","28","F","{""name"":""Chrome"",""chrome"":true,""version"":""106.0"",""blink"":true,""windows"":true,""osname"":""Windows"",""osversion"":""10"",""a"":true}","9:23:6","0","2","Practice_1","70","j","0","403.7999999523163","1280 x 720","1280 x 720","true","1","0","","","","",""
"null","<p style=""font-size: 80px;"">+ 10 points</p>","null","html-keyboard-response","23","105442","0.0-7.0-2.22","5ed7d4019c64e70c16dc327a","v2o6hc","HC","28","F","{""name"":""Chrome"",""chrome"":true,""version"":""106.0"",""blink"":true,""windows"":true,""osname"":""Windows"",""osversion"":""10"",""a"":true}","9:23:6","0","2","Practice_1","74","j","1","1245.7000000476837","1280 x 720","1280 x 720","true","1","10","","","","",""
"null","<p style=""font-size: 80px;"">+ 10 points</p>","null","html-keyboard-response","24","108808","0.0-7.0-2.23","5ed7d4019c64e70c16dc327a","v2o6hc","HC","28","F","{""name"":""Chrome"",""chrome"":true,""version"":""106.0"",""blink"":true,""windows"":true,""osname"":""Windows"",""osversion"":""10"",""a"":true}","9:23:6","0","2","Practice_3","74","j","1","1348.7999999523163","1280 x 720","1280 x 720","true","1","10","","","","",""
"null","<p style=""font-size: 80px;"">+ 10 points</p>","null","html-keyboard-response","25","111969","0.0-7.0-2.24","5ed7d4019c64e70c16dc327a","v2o6hc","HC","28","F","{""name"":""Chrome"",""chrome"":true,""version"":""106.0"",""blink"":true,""windows"":true,""osname"":""Windows"",""osversion"":""10"",""a"":true}","9:23:6","0","2","Practice_3","74","j","1","1137.9000000953674","1280 x 720","1280 x 720","true","1","10","","","","",""
"null","<p style=""font-size: 80px;"">+ 10 points</p>","null","html-keyboard-response","26","115431","0.0-7.0-2.25","5ed7d4019c64e70c16dc327a","v2o6hc","HC","28","F","{""name"":""Chrome"",""chrome"":true,""version"":""106.0"",""blink"":true,""windows"":true,""osname"":""Windows"",""osversion"":""10"",""a"":true}","9:23:6","0","2","Practice_2","70","f","1","1441.7000000476837","1280 x 720","1280 x 720","true","1","10","","","","",""
"null","<p style=""font-size: 80px;"">+ 10 points</p>","null","html-keyboard-response","27","118081","0.0-7.0-2.26","5ed7d4019c64e70c16dc327a","v2o6hc","HC","28","F","{""name"":""Chrome"",""chrome"":true,""version"":""106.0"",""blink"":true,""windows"":true,""osname"":""Windows"",""osversion"":""10"",""a"":true}","9:23:6","0","2","Practice_1","74","j","1","614.0999999046326","1280 x 720","1280 x 720","true","1","10","","","","",""
"null","<p style=""font-size: 80px;"">+ 0 points</p>","null","html-keyboard-response","28","120786","0.0-7.0-2.27","5ed7d4019c64e70c16dc327a","v2o6hc","HC","28","F","{""name"":""Chrome"",""chrome"":true,""version"":""106.0"",""blink"":true,""windows"":true,""osname"":""Windows"",""osversion"":""10"",""a"":true}","9:23:6","0","2","Practice_4","74","f","0","682.6000001430511","1280 x 720","1280 x 720","true","1","0","","","","",""
"null","<p style=""font-size: 80px;"">+ 10 points</p>","null","html-keyboard-response","29","124353","0.0-7.0-2.28","5ed7d4019c64e70c16dc327a","v2o6hc","HC","28","F","{""name"":""Chrome"",""chrome"":true,""version"":""106.0"",""blink"":true,""windows"":true,""osname"":""Windows"",""osversion"":""10"",""a"":true}","9:23:6","0","2","Practice_2","70","f","1","1536.5","1280 x 720","1280 x 720","true","1","10","","","","",""
"null","<p style=""font-size: 80px;"">+ 10 points</p>","null","html-keyboard-response","30","127406","0.0-7.0-2.29","5ed7d4019c64e70c16dc327a","v2o6hc","HC","28","F","{""name"":""Chrome"",""chrome"":true,""version"":""106.0"",""blink"":true,""windows"":true,""osname"":""Windows"",""osversion"":""10"",""a"":true}","9:23:6","0","2","Practice_3","74","j","1","1011.7000000476837","1280 x 720","1280 x 720","true","1","10","","","","",""
"null","<p style=""font-size: 80px;"">+ 10 points</p>","null","html-keyboard-response","31","130268","0.0-7.0-2.30","5ed7d4019c64e70c16dc327a","v2o6hc","HC","28","F","{""name"":""Chrome"",""chrome"":true,""version"":""106.0"",""blink"":true,""windows"":true,""osname"":""Windows"",""osversion"":""10"",""a"":true}","9:23:6","0","2","Practice_3","74","j","1","819.2999999523163","1280 x 720","1280 x 720","true","1","10","","","","",""
"null","<p style=""font-size: 80px;"">+ 10 points</p>","null","html-keyboard-response","32","133462","0.0-7.0-2.31","5ed7d4019c64e70c16dc327a","v2o6hc","HC","28","F","{""name"":""Chrome"",""chrome"":true,""version"":""106.0"",""blink"":true,""windows"":true,""osname"":""Windows"",""osversion"":""10"",""a"":true}","9:23:6","0","2","Practice_2","70","f","1","1166.3999998569489","1280 x 720","1280 x 720","true","1","10","","","","",""
"null","<p style=""font-size: 80px;"">+ 10 points</p>","null","html-keyboard-response","33","136640","0.0-7.0-2.32","5ed7d4019c64e70c16dc327a","v2o6hc","HC","28","F","{""name"":""Chrome"",""chrome"":true,""version"":""106.0"",""blink"":true,""windows"":true,""osname"":""Windows"",""osversion"":""10"",""a"":true}","9:23:6","0","2","Practice_4","70","f","1","1145.4000000953674","1280 x 720","1280 x 720","true","1","10","","","","",""
"null","<p style=""font-size: 80px;"">+ 10 points</p>","null","html-keyboard-response","34","139138","0.0-7.0-2.33","5ed7d4019c64e70c16dc327a","v2o6hc","HC","28","F","{""name"":""Chrome"",""chrome"":true,""version"":""106.0"",""blink"":true,""windows"":true,""osname"":""Windows"",""osversion"":""10"",""a"":true}","9:23:6","0","2","Practice_2","70","f","1","488.7999999523163","1280 x 720","1280 x 720","true","1","10","","","","",""
"null","<p style=""font-size: 80px;"">+ 0 points</p>","null","html-keyboard-response","35","142064","0.0-7.0-2.34","5ed7d4019c64e70c16dc327a","v2o6hc","HC","28","F","{""name"":""Chrome"",""chrome"":true,""version"":""106.0"",""blink"":true,""windows"":true,""osname"":""Windows"",""osversion"":""10"",""a"":true}","9:23:6","0","2","Practice_4","74","f","0","909.5999999046326","1280 x 720","1280 x 720","true","1","0","","","","",""
"null","<p style=""font-size: 80px;"">+ 10 points</p>","null","html-keyboard-response","36","144938","0.0-7.0-2.35","5ed7d4019c64e70c16dc327a","v2o6hc","HC","28","F","{""name"":""Chrome"",""chrome"":true,""version"":""106.0"",""blink"":true,""windows"":true,""osname"":""Windows"",""osversion"":""10"",""a"":true}","9:23:6","0","2","Practice_3","74","j","1","849.7000000476837","1280 x 720","1280 x 720","true","1","10","","","","",""
"null","<p style=""font-size: 80px;"">+ 10 points</p>","null","html-keyboard-response","37","148226","0.0-7.0-2.36","5ed7d4019c64e70c16dc327a","v2o6hc","HC","28","F","{""name"":""Chrome"",""chrome"":true,""version"":""106.0"",""blink"":true,""windows"":true,""osname"":""Windows"",""osversion"":""10"",""a"":true}","9:23:6","0","2","Practice_1","74","j","1","1262","1280 x 720","1280 x 720","true","1","10","","","","",""
"null","<p style=""font-size: 80px;"">+ 10 points</p>","null","html-keyboard-response","38","151248","0.0-7.0-2.37","5ed7d4019c64e70c16dc327a","v2o6hc","HC","28","F","{""name"":""Chrome"",""chrome"":true,""version"":""106.0"",""blink"":true,""windows"":true,""osname"":""Windows"",""osversion"":""10"",""a"":true}","9:23:6","0","2","Practice_4","70","f","1","995.8000001907349","1280 x 720","1280 x 720","true","1","10","","","","",""
"null","<p style=""font-size: 80px;"">+ 10 points</p>","null","html-keyboard-response","39","154063","0.0-7.0-2.38","5ed7d4019c64e70c16dc327a","v2o6hc","HC","28","F","{""name"":""Chrome"",""chrome"":true,""version"":""106.0"",""blink"":true,""windows"":true,""osname"":""Windows"",""osversion"":""10"",""a"":true}","9:23:6","0","2","Practice_4","70","f","1","784.4000000953674","1280 x 720","1280 x 720","true","1","10","","","","",""
"null","<p style=""font-size: 80px;"">+ 0 points</p>","null","html-keyboard-response","40","157246","0.0-7.0-2.39","5ed7d4019c64e70c16dc327a","v2o6hc","HC","28","F","{""name"":""Chrome"",""chrome"":true,""version"":""106.0"",""blink"":true,""windows"":true,""osname"":""Windows"",""osversion"":""10"",""a"":true}","9:23:6","0","2","Practice_1","70","j","0","1153.2000000476837","1280 x 720","1280 x 720","true","1","0","","","","",""
"9159.299999952316","","","survey-multi-choice","127","166409","0.0-8.0","5ed7d4019c64e70c16dc327a","v2o6hc","HC","28","F","{""name"":""Chrome"",""chrome"":true,""version"":""106.0"",""blink"":true,""windows"":true,""osname"":""Windows"",""osversion"":""10"",""a"":true}","9:23:6","","","","","","","","","","","1","","{""Q0"":""The red one"",""Q1"":""1""}","[0,1]","1","The red one","2"
"null","<p style=""font-size: 80px;"">+ 0 points</p>","null","html-keyboard-response","1","179323","0.0-11.0-2.0","5ed7d4019c64e70c16dc327a","v2o6hc","HC","28","F","{""name"":""Chrome"",""chrome"":true,""version"":""106.0"",""blink"":true,""windows"":true,""osname"":""Windows"",""osversion"":""10"",""a"":true}","9:23:6","1","3","Test_1","74","f","0","1093.5","1280 x 720","1280 x 720","true","1","0","","","","",""
"null","<p style=""font-size: 80px;"">+ 10 points</p>","null","html-keyboard-response","2","182781","0.0-11.0-2.1","5ed7d4019c64e70c16dc327a","v2o6hc","HC","28","F","{""name"":""Chrome"",""chrome"":true,""version"":""106.0"",""blink"":true,""windows"":true,""osname"":""Windows"",""osversion"":""10"",""a"":true}","9:23:6","1","3","Test_4","74","j","1","1442.2999999523163","1280 x 720","1280 x 720","true","1","10","","","","",""
"null","<p style=""font-size: 80px;"">+ 10 points</p>","null","html-keyboard-response","3","185776","0.0-11.0-2.2","5ed7d4019c64e70c16dc327a","v2o6hc","HC","28","F","{""name"":""Chrome"",""chrome"":true,""version"":""106.0"",""blink"":true,""windows"":true,""osname"":""Windows"",""osversion"":""10"",""a"":true}","9:23:6","1","3","Test_4","74","j","1","950.7000000476837","1280 x 720","1280 x 720","true","1","10","","","","",""
"null","<p style=""font-size: 80px;"">+ 10 points</p>","null","html-keyboard-response","4","189607","0.0-11.0-2.3","5ed7d4019c64e70c16dc327a","v2o6hc","HC","28","F","{""name"":""Chrome"",""chrome"":true,""version"":""106.0"",""blink"":true,""windows"":true,""osname"":""Windows"",""osversion"":""10"",""a"":true}","9:23:6","1","3","Test_2","74","j","1","1800.7999999523163","1280 x 720","1280 x 720","true","1","10","","","","",""
"null","<p style=""font-size: 80px;"">+ 10 points</p>","null","html-keyboard-response","5","192282","0.0-11.0-2.4","5ed7d4019c64e70c16dc327a","v2o6hc","HC","28","F","{""name"":""Chrome"",""chrome"":true,""version"":""106.0"",""blink"":true,""windows"":true,""osname"":""Windows"",""osversion"":""10"",""a"":true}","9:23:6","1","3","Test_1","70","f","1","649.7999999523163","1280 x 720","1280 x 720","true","1","10","","","","",""
"null","<p style=""font-size: 80px;"">+ 10 points</p>","null","html-keyboard-response","6","196031","0.0-11.0-2.5","5ed7d4019c64e70c16dc327a","v2o6hc","HC","28","F","{""name"":""Chrome"",""chrome"":true,""version"":""106.0"",""blink"":true,""windows"":true,""osname"":""Windows"",""osversion"":""10"",""a"":true}","9:23:6","1","3","Test_3","70","f","1","1733.4000000953674","1280 x 720","1280 x 720","true","1","10","","","","",""
"null","<p style=""font-size: 80px;"">+ 10 points</p>","null","html-keyboard-response","7","199469","0.0-11.0-2.6","5ed7d4019c64e70c16dc327a","v2o6hc","HC","28","F","{""name"":""Chrome"",""chrome"":true,""version"":""106.0"",""blink"":true,""windows"":true,""osname"":""Windows"",""osversion"":""10"",""a"":true}","9:23:6","1","3","Test_2","74","j","1","1418.5","1280 x 720","1280 x 720","true","1","10","","","","",""
"null","<p style=""font-size: 80px;"">+ 10 points</p>","null","html-keyboard-response","8","202226","0.0-11.0-2.7","5ed7d4019c64e70c16dc327a","v2o6hc","HC","28","F","{""name"":""Chrome"",""chrome"":true,""version"":""106.0"",""blink"":true,""windows"":true,""osname"":""Windows"",""osversion"":""10"",""a"":true}","9:23:6","1","3","Test_1","70","f","1","728.2000000476837","1280 x 720","1280 x 720","true","1","10","","","","",""
"null","<p style=""font-size: 80px;"">+ 10 points</p>","null","html-keyboard-response","9","205219","0.0-11.0-2.8","5ed7d4019c64e70c16dc327a","v2o6hc","HC","28","F","{""name"":""Chrome"",""chrome"":true,""version"":""106.0"",""blink"":true,""windows"":true,""osname"":""Windows"",""osversion"":""10"",""a"":true}","9:23:6","1","3","Test_2","74","j","1","969.7999999523163","1280 x 720","1280 x 720","true","1","10","","","","",""
"null","<p style=""font-size: 80px;"">+ 10 points</p>","null","html-keyboard-response","10","209735","0.0-11.0-2.9","5ed7d4019c64e70c16dc327a","v2o6hc","HC","28","F","{""name"":""Chrome"",""chrome"":true,""version"":""106.0"",""blink"":true,""windows"":true,""osname"":""Windows"",""osversion"":""10"",""a"":true}","9:23:6","1","3","Test_3","70","f","1","2489.2000000476837","1280 x 720","1280 x 720","true","1","10","","","","",""
"null","<p style=""font-size: 80px;"">+ 10 points</p>","null","html-keyboard-response","11","213010","0.0-11.0-2.10","5ed7d4019c64e70c16dc327a","v2o6hc","HC","28","F","{""name"":""Chrome"",""chrome"":true,""version"":""106.0"",""blink"":true,""windows"":true,""osname"":""Windows"",""osversion"":""10"",""a"":true}","9:23:6","1","3","Test_2","74","j","1","1253.8000001907349","1280 x 720","1280 x 720","true","1","10","","","","",""
"null","<p style=""font-size: 80px;"">+ 10 points</p>","null","html-keyboard-response","12","216233","0.0-11.0-2.11","5ed7d4019c64e70c16dc327a","v2o6hc","HC","28","F","{""name"":""Chrome"",""chrome"":true,""version"":""106.0"",""blink"":true,""windows"":true,""osname"":""Windows"",""osversion"":""10"",""a"":true}","9:23:6","1","3","Test_3","70","f","1","1208","1280 x 720","1280 x 720","true","1","10","","","","",""
"null","<p style=""font-size: 80px;"">+ 10 points</p>","null","html-keyboard-response","13","219115","0.0-11.0-2.12","5ed7d4019c64e70c16dc327a","v2o6hc","HC","28","F","{""name"":""Chrome"",""chrome"":true,""version"":""106.0"",""blink"":true,""windows"":true,""osname"":""Windows"",""osversion"":""10"",""a"":true}","9:23:6","1","3","Test_2","74","j","1","838","1280 x 720","1280 x 720","true","1","10","","","","",""
"null","<p style=""font-size: 80px;"">+ 10 points</p>","null","html-keyboard-response","14","222106","0.0-11.0-2.13","5ed7d4019c64e70c16dc327a","v2o6hc","HC","28","F","{""name"":""Chrome"",""chrome"":true,""version"":""106.0"",""blink"":true,""windows"":true,""osname"":""Windows"",""osversion"":""10"",""a"":true}","9:23:6","1","3","Test_4","74","j","1","964.5999999046326","1280 x 720","1280 x 720","true","1","10","","","","",""
"null","<p style=""font-size: 80px;"">+ 10 points</p>","null","html-keyboard-response","15","225726","0.0-11.0-2.14","5ed7d4019c64e70c16dc327a","v2o6hc","HC","28","F","{""name"":""Chrome"",""chrome"":true,""version"":""106.0"",""blink"":true,""windows"":true,""osname"":""Windows"",""osversion"":""10"",""a"":true}","9:23:6","1","3","Test_4","74","j","1","1597.2999999523163","1280 x 720","1280 x 720","true","1","10","","","","",""
"null","<p style=""font-size: 80px;"">+ 10 points</p>","null","html-keyboard-response","16","228563","0.0-11.0-2.15","5ed7d4019c64e70c16dc327a","v2o6hc","HC","28","F","{""name"":""Chrome"",""chrome"":true,""version"":""106.0"",""blink"":true,""windows"":true,""osname"":""Windows"",""osversion"":""10"",""a"":true}","9:23:6","1","3","Test_1","70","f","1","806.5999999046326","1280 x 720","1280 x 720","true","1","10","","","","",""
"null","<p style=""font-size: 80px;"">+ 10 points</p>","null","html-keyboard-response","17","231535","0.0-11.0-2.16","5ed7d4019c64e70c16dc327a","v2o6hc","HC","28","F","{""name"":""Chrome"",""chrome"":true,""version"":""106.0"",""blink"":true,""windows"":true,""osname"":""Windows"",""osversion"":""10"",""a"":true}","9:23:6","1","3","Test_4","74","j","1","933.5","1280 x 720","1280 x 720","true","1","10","","","","",""
"null","<p style=""font-size: 80px;"">+ 10 points</p>","null","html-keyboard-response","18","234289","0.0-11.0-2.17","5ed7d4019c64e70c16dc327a","v2o6hc","HC","28","F","{""name"":""Chrome"",""chrome"":true,""version"":""106.0"",""blink"":true,""windows"":true,""osname"":""Windows"",""osversion"":""10"",""a"":true}","9:23:6","1","3","Test_1","70","f","1","727.5999999046326","1280 x 720","1280 x 720","true","1","10","","","","",""
"null","<p style=""font-size: 80px;"">+ 0 points</p>","null","html-keyboard-response","19","237485","0.0-11.0-2.18","5ed7d4019c64e70c16dc327a","v2o6hc","HC","28","F","{""name"":""Chrome"",""chrome"":true,""version"":""106.0"",""blink"":true,""windows"":true,""osname"":""Windows"",""osversion"":""10"",""a"":true}","9:23:6","1","4","Test_3","70","j","0","1181.4000000953674","1280 x 720","1280 x 720","true","1","0","","","","",""
"null","<p style=""font-size: 80px;"">+ 10 points</p>","null","html-keyboard-response","20","240636","0.0-11.0-2.19","5ed7d4019c64e70c16dc327a","v2o6hc","HC","28","F","{""name"":""Chrome"",""chrome"":true,""version"":""106.0"",""blink"":true,""windows"":true,""osname"":""Windows"",""osversion"":""10"",""a"":true}","9:23:6","1","4","Test_1","74","j","1","1117.2999999523163","1280 x 720","1280 x 720","true","1","10","","","","",""
"null","<p style=""font-size: 80px;"">+ 10 points</p>","null","html-keyboard-response","21","243459","0.0-11.0-2.20","5ed7d4019c64e70c16dc327a","v2o6hc","HC","28","F","{""name"":""Chrome"",""chrome"":true,""version"":""106.0"",""blink"":true,""windows"":true,""osname"":""Windows"",""osversion"":""10"",""a"":true}","9:23:6","1","4","Test_2","70","f","1","806","1280 x 720","1280 x 720","true","1","10","","","","",""
"null","<p style=""font-size: 80px;"">+ 10 points</p>","null","html-keyboard-response","22","247099","0.0-11.0-2.21","5ed7d4019c64e70c16dc327a","v2o6hc","HC","28","F","{""name"":""Chrome"",""chrome"":true,""version"":""106.0"",""blink"":true,""windows"":true,""osname"":""Windows"",""osversion"":""10"",""a"":true}","9:23:6","1","4","Test_3","74","j","1","1616.5","1280 x 720","1280 x 720","true","1","10","","","","",""
"null","<p style=""font-size: 80px;"">+ 10 points</p>","null","html-keyboard-response","23","249862","0.0-11.0-2.22","5ed7d4019c64e70c16dc327a","v2o6hc","HC","28","F","{""name"":""Chrome"",""chrome"":true,""version"":""106.0"",""blink"":true,""windows"":true,""osname"":""Windows"",""osversion"":""10"",""a"":true}","9:23:6","1","4","Test_1","74","j","1","727.1000001430511","1280 x 720","1280 x 720","true","1","10","","","","",""
"null","<p style=""font-size: 80px;"">+ 10 points</p>","null","html-keyboard-response","24","252592","0.0-11.0-2.23","5ed7d4019c64e70c16dc327a","v2o6hc","HC","28","F","{""name"":""Chrome"",""chrome"":true,""version"":""106.0"",""blink"":true,""windows"":true,""osname"":""Windows"",""osversion"":""10"",""a"":true}","9:23:6","1","4","Test_2","70","f","1","708.7999999523163","1280 x 720","1280 x 720","true","1","10","","","","",""
"null","<p style=""font-size: 80px;"">+ 10 points</p>","null","html-keyboard-response","25","255105","0.0-11.0-2.24","5ed7d4019c64e70c16dc327a","v2o6hc","HC","28","F","{""name"":""Chrome"",""chrome"":true,""version"":""106.0"",""blink"":true,""windows"":true,""osname"":""Windows"",""osversion"":""10"",""a"":true}","9:23:6","1","4","Test_1","74","j","1","492.59999990463257","1280 x 720","1280 x 720","true","1","10","","","","",""
"null","<p style=""font-size: 80px;"">+ 10 points</p>","null","html-keyboard-response","26","257598","0.0-11.0-2.25","5ed7d4019c64e70c16dc327a","v2o6hc","HC","28","F","{""name"":""Chrome"",""chrome"":true,""version"":""106.0"",""blink"":true,""windows"":true,""osname"":""Windows"",""osversion"":""10"",""a"":true}","9:23:6","1","4","Test_3","74","j","1","461","1280 x 720","1280 x 720","true","1","10","","","","",""
"null","<p style=""font-size: 80px;"">+ 10 points</p>","null","html-keyboard-response","27","260139","0.0-11.0-2.26","5ed7d4019c64e70c16dc327a","v2o6hc","HC","28","F","{""name"":""Chrome"",""chrome"":true,""version"":""106.0"",""blink"":true,""windows"":true,""osname"":""Windows"",""osversion"":""10"",""a"":true}","9:23:6","1","4","Test_4","70","f","1","517.4000000953674","1280 x 720","1280 x 720","true","1","10","","","","",""
"null","<p style=""font-size: 80px;"">+ 10 points</p>","null","html-keyboard-response","28","263110","0.0-11.0-2.27","5ed7d4019c64e70c16dc327a","v2o6hc","HC","28","F","{""name"":""Chrome"",""chrome"":true,""version"":""106.0"",""blink"":true,""windows"":true,""osname"":""Windows"",""osversion"":""10"",""a"":true}","9:23:6","1","4","Test_3","74","j","1","948.8999998569489","1280 x 720","1280 x 720","true","1","10","","","","",""
"null","<p style=""font-size: 80px;"">+ 10 points</p>","null","html-keyboard-response","29","266095","0.0-11.0-2.28","5ed7d4019c64e70c16dc327a","v2o6hc","HC","28","F","{""name"":""Chrome"",""chrome"":true,""version"":""106.0"",""blink"":true,""windows"":true,""osname"":""Windows"",""osversion"":""10"",""a"":true}","9:23:6","1","4","Test_2","70","f","1","957.2000000476837","1280 x 720","1280 x 720","true","1","10","","","","",""
"null","<p style=""font-size: 80px;"">+ 10 points</p>","null","html-keyboard-response","30","269102","0.0-11.0-2.29","5ed7d4019c64e70c16dc327a","v2o6hc","HC","28","F","{""name"":""Chrome"",""chrome"":true,""version"":""106.0"",""blink"":true,""windows"":true,""osname"":""Windows"",""osversion"":""10"",""a"":true}","9:23:6","1","4","Test_4","70","f","1","961.5","1280 x 720","1280 x 720","true","1","10","","","","",""
"null","<p style=""font-size: 80px;"">+ 10 points</p>","null","html-keyboard-response","31","271898","0.0-11.0-2.30","5ed7d4019c64e70c16dc327a","v2o6hc","HC","28","F","{""name"":""Chrome"",""chrome"":true,""version"":""106.0"",""blink"":true,""windows"":true,""osname"":""Windows"",""osversion"":""10"",""a"":true}","9:23:6","1","4","Test_2","70","f","1","778.5","1280 x 720","1280 x 720","true","1","10","","","","",""
"null","<p style=""font-size: 80px;"">+ 10 points</p>","null","html-keyboard-response","32","275233","0.0-11.0-2.31","5ed7d4019c64e70c16dc327a","v2o6hc","HC","28","F","{""name"":""Chrome"",""chrome"":true,""version"":""106.0"",""blink"":true,""windows"":true,""osname"":""Windows"",""osversion"":""10"",""a"":true}","9:23:6","1","4","Test_4","70","f","1","1323.1999998092651","1280 x 720","1280 x 720","true","1","10","","","","",""
"null","<p style=""font-size: 80px;"">+ 10 points</p>","null","html-keyboard-response","33","278876","0.0-11.0-2.32","5ed7d4019c64e70c16dc327a","v2o6hc","HC","28","F","{""name"":""Chrome"",""chrome"":true,""version"":""106.0"",""blink"":true,""windows"":true,""osname"":""Windows"",""osversion"":""10"",""a"":true}","9:23:6","1","4","Test_1","74","j","1","1621.1999998092651","1280 x 720","1280 x 720","true","1","10","","","","",""
"null","<p style=""font-size: 80px;"">+ 10 points</p>","null","html-keyboard-response","34","281350","0.0-11.0-2.33","5ed7d4019c64e70c16dc327a","v2o6hc","HC","28","F","{""name"":""Chrome"",""chrome"":true,""version"":""106.0"",""blink"":true,""windows"":true,""osname"":""Windows"",""osversion"":""10"",""a"":true}","9:23:6","1","4","Test_2","70","f","1","434.7000000476837","1280 x 720","1280 x 720","true","1","10","","","","",""
"null","<p style=""font-size: 80px;"">+ 0 points</p>","null","html-keyboard-response","35","283962","0.0-11.0-2.34","5ed7d4019c64e70c16dc327a","v2o6hc","HC","28","F","{""name"":""Chrome"",""chrome"":true,""version"":""106.0"",""blink"":true,""windows"":true,""osname"":""Windows"",""osversion"":""10"",""a"":true}","9:23:6","1","4","Test_4","74","f","0","569","1280 x 720","1280 x 720","true","1","0","","","","",""
"null","<p style=""font-size: 80px;"">+ 10 points</p>","null","html-keyboard-response","36","286921","0.0-11.0-2.35","5ed7d4019c64e70c16dc327a","v2o6hc","HC","28","F","{""name"":""Chrome"",""chrome"":true,""version"":""106.0"",""blink"":true,""windows"":true,""osname"":""Windows"",""osversion"":""10"",""a"":true}","9:23:6","1","4","Test_4","70","f","1","929.2999999523163","1280 x 720","1280 x 720","true","1","10","","","","",""
"null","<p style=""font-size: 80px;"">+ 0 points</p>","null","html-keyboard-response","37","289815","0.0-11.0-2.36","5ed7d4019c64e70c16dc327a","v2o6hc","HC","28","F","{""name"":""Chrome"",""chrome"":true,""version"":""106.0"",""blink"":true,""windows"":true,""osname"":""Windows"",""osversion"":""10"",""a"":true}","9:23:6","1","4","Test_3","70","j","0","876.9000000953674","1280 x 720","1280 x 720","true","1","0","","","","",""
"null","<p style=""font-size: 80px;"">+ 10 points</p>","null","html-keyboard-response","38","292638","0.0-11.0-2.37","5ed7d4019c64e70c16dc327a","v2o6hc","HC","28","F","{""name"":""Chrome"",""chrome"":true,""version"":""106.0"",""blink"":true,""windows"":true,""osname"":""Windows"",""osversion"":""10"",""a"":true}","9:23:6","1","3","Test_3","70","f","1","798.9000000953674","1280 x 720","1280 x 720","true","1","10","","","","",""
"null","<p style=""font-size: 80px;"">+ 10 points</p>","null","html-keyboard-response","39","295471","0.0-11.0-2.38","5ed7d4019c64e70c16dc327a","v2o6hc","HC","28","F","{""name"":""Chrome"",""chrome"":true,""version"":""106.0"",""blink"":true,""windows"":true,""osname"":""Windows"",""osversion"":""10"",""a"":true}","9:23:6","1","3","Test_4","74","j","1","809.7999999523163","1280 x 720","1280 x 720","true","1","10","","","","",""
"null","<p style=""font-size: 80px;"">+ 10 points</p>","null","html-keyboard-response","40","298534","0.0-11.0-2.39","5ed7d4019c64e70c16dc327a","v2o6hc","HC","28","F","{""name"":""Chrome"",""chrome"":true,""version"":""106.0"",""blink"":true,""windows"":true,""osname"":""Windows"",""osversion"":""10"",""a"":true}","9:23:6","1","3","Test_1","70","f","1","1040.5","1280 x 720","1280 x 720","true","1","10","","","","",""
"null","<p style=""font-size: 80px;"">+ 10 points</p>","null","html-keyboard-response","41","301122","0.0-11.0-2.40","5ed7d4019c64e70c16dc327a","v2o6hc","HC","28","F","{""name"":""Chrome"",""chrome"":true,""version"":""106.0"",""blink"":true,""windows"":true,""osname"":""Windows"",""osversion"":""10"",""a"":true}","9:23:6","1","3","Test_2","74","j","1","565.2000000476837","1280 x 720","1280 x 720","true","1","10","","","","",""
"null","<p style=""font-size: 80px;"">+ 10 points</p>","null","html-keyboard-response","42","305574","0.0-11.0-2.41","5ed7d4019c64e70c16dc327a","v2o6hc","HC","28","F","{""name"":""Chrome"",""chrome"":true,""version"":""106.0"",""blink"":true,""windows"":true,""osname"":""Windows"",""osversion"":""10"",""a"":true}","9:23:6","1","3","Test_3","70","f","1","2429.399999856949","1280 x 720","1280 x 720","true","1","10","","","","",""
"null","<p style=""font-size: 80px;"">+ 10 points</p>","null","html-keyboard-response","43","308337","0.0-11.0-2.42","5ed7d4019c64e70c16dc327a","v2o6hc","HC","28","F","{""name"":""Chrome"",""chrome"":true,""version"":""106.0"",""blink"":true,""windows"":true,""osname"":""Windows"",""osversion"":""10"",""a"":true}","9:23:6","1","3","Test_3","70","f","1","732.6999998092651","1280 x 720","1280 x 720","true","1","10","","","","",""
"null","<p style=""font-size: 80px;"">+ 10 points</p>","null","html-keyboard-response","44","310873","0.0-11.0-2.43","5ed7d4019c64e70c16dc327a","v2o6hc","HC","28","F","{""name"":""Chrome"",""chrome"":true,""version"":""106.0"",""blink"":true,""windows"":true,""osname"":""Windows"",""osversion"":""10"",""a"":true}","9:23:6","1","3","Test_4","74","j","1","509.7999999523163","1280 x 720","1280 x 720","true","1","10","","","","",""
"null","<p style=""font-size: 80px;"">+ 10 points</p>","null","html-keyboard-response","45","314046","0.0-11.0-2.44","5ed7d4019c64e70c16dc327a","v2o6hc","HC","28","F","{""name"":""Chrome"",""chrome"":true,""version"":""106.0"",""blink"":true,""windows"":true,""osname"":""Windows"",""osversion"":""10"",""a"":true}","9:23:6","1","3","Test_1","70","f","1","1141.6000001430511","1280 x 720","1280 x 720","true","1","10","","","","",""
"null","<p style=""font-size: 80px;"">+ 0 points</p>","null","html-keyboard-response","46","317354","0.0-11.0-2.45","5ed7d4019c64e70c16dc327a","v2o6hc","HC","28","F","{""name"":""Chrome"",""chrome"":true,""version"":""106.0"",""blink"":true,""windows"":true,""osname"":""Windows"",""osversion"":""10"",""a"":true}","9:23:6","1","3","Test_3","74","f","0","1275.8999998569489","1280 x 720","1280 x 720","true","1","0","","","","",""
"null","<p style=""font-size: 80px;"">+ 0 points</p>","null","html-keyboard-response","47","320616","0.0-11.0-2.46","5ed7d4019c64e70c16dc327a","v2o6hc","HC","28","F","{""name"":""Chrome"",""chrome"":true,""version"":""106.0"",""blink"":true,""windows"":true,""osname"":""Windows"",""osversion"":""10"",""a"":true}","9:23:6","1","3","Test_1","74","f","0","1240.7999999523163","1280 x 720","1280 x 720","true","1","0","","","","",""
"null","<p style=""font-size: 80px;"">+ 10 points</p>","null","html-keyboard-response","48","324847","0.0-11.0-2.47","5ed7d4019c64e70c16dc327a","v2o6hc","HC","28","F","{""name"":""Chrome"",""chrome"":true,""version"":""106.0"",""blink"":true,""windows"":true,""osname"":""Windows"",""osversion"":""10"",""a"":true}","9:23:6","1","3","Test_4","74","j","1","2211.7999999523163","1280 x 720","1280 x 720","true","1","10","","","","",""
"null","<p style=""font-size: 80px;"">+ 10 points</p>","null","html-keyboard-response","49","327349","0.0-11.0-2.48","5ed7d4019c64e70c16dc327a","v2o6hc","HC","28","F","{""name"":""Chrome"",""chrome"":true,""version"":""106.0"",""blink"":true,""windows"":true,""osname"":""Windows"",""osversion"":""10"",""a"":true}","9:23:6","1","3","Test_2","74","j","1","485.2999999523163","1280 x 720","1280 x 720","true","1","10","","","","",""
"null","<p style=""font-size: 80px;"">+ 10 points</p>","null","html-keyboard-response","50","329737","0.0-11.0-2.49","5ed7d4019c64e70c16dc327a","v2o6hc","HC","28","F","{""name"":""Chrome"",""chrome"":true,""version"":""106.0"",""blink"":true,""windows"":true,""osname"":""Windows"",""osversion"":""10"",""a"":true}","9:23:6","1","3","Test_1","70","f","1","360.2000000476837","1280 x 720","1280 x 720","true","1","10","","","","",""
"null","<p style=""font-size: 80px;"">+ 10 points</p>","null","html-keyboard-response","51","332176","0.0-11.0-2.50","5ed7d4019c64e70c16dc327a","v2o6hc","HC","28","F","{""name"":""Chrome"",""chrome"":true,""version"":""106.0"",""blink"":true,""windows"":true,""osname"":""Windows"",""osversion"":""10"",""a"":true}","9:23:6","1","3","Test_4","74","j","1","416","1280 x 720","1280 x 720","true","1","10","","","","",""
"null","<p style=""font-size: 80px;"">+ 10 points</p>","null","html-keyboard-response","52","334491","0.0-11.0-2.51","5ed7d4019c64e70c16dc327a","v2o6hc","HC","28","F","{""name"":""Chrome"",""chrome"":true,""version"":""106.0"",""blink"":true,""windows"":true,""osname"":""Windows"",""osversion"":""10"",""a"":true}","9:23:6","1","3","Test_2","74","j","1","278.69999980926514","1280 x 720","1280 x 720","true","1","10","","","","",""
"null","<p style=""font-size: 80px;"">+ 10 points</p>","null","html-keyboard-response","53","336870","0.0-11.0-2.52","5ed7d4019c64e70c16dc327a","v2o6hc","HC","28","F","{""name"":""Chrome"",""chrome"":true,""version"":""106.0"",""blink"":true,""windows"":true,""osname"":""Windows"",""osversion"":""10"",""a"":true}","9:23:6","1","3","Test_2","74","j","1","338.7999999523163","1280 x 720","1280 x 720","true","1","10","","","","",""
"null","<p style=""font-size: 80px;"">+ 0 points</p>","null","html-keyboard-response","54","339146","0.0-11.0-2.53","5ed7d4019c64e70c16dc327a","v2o6hc","HC","28","F","{""name"":""Chrome"",""chrome"":true,""version"":""106.0"",""blink"":true,""windows"":true,""osname"":""Windows"",""osversion"":""10"",""a"":true}","9:23:6","1","4","Test_3","70","j","0","258.5","1280 x 720","1280 x 720","true","1","0","","","","",""
"null","<p style=""font-size: 80px;"">+ 10 points</p>","null","html-keyboard-response","55","341465","0.0-11.0-2.54","5ed7d4019c64e70c16dc327a","v2o6hc","HC","28","F","{""name"":""Chrome"",""chrome"":true,""version"":""106.0"",""blink"":true,""windows"":true,""osname"":""Windows"",""osversion"":""10"",""a"":true}","9:23:6","1","4","Test_4","70","f","1","292.2999999523163","1280 x 720","1280 x 720","true","1","10","","","","",""
"null","<p style=""font-size: 80px;"">+ 0 points</p>","null","html-keyboard-response","56","343821","0.0-11.0-2.55","5ed7d4019c64e70c16dc327a","v2o6hc","HC","28","F","{""name"":""Chrome"",""chrome"":true,""version"":""106.0"",""blink"":true,""windows"":true,""osname"":""Windows"",""osversion"":""10"",""a"":true}","9:23:6","1","4","Test_3","70","j","0","334.7999999523163","1280 x 720","1280 x 720","true","1","0","","","","",""
"null","<p style=""font-size: 80px;"">+ 10 points</p>","null","html-keyboard-response","57","346134","0.0-11.0-2.56","5ed7d4019c64e70c16dc327a","v2o6hc","HC","28","F","{""name"":""Chrome"",""chrome"":true,""version"":""106.0"",""blink"":true,""windows"":true,""osname"":""Windows"",""osversion"":""10"",""a"":true}","9:23:6","1","4","Test_4","70","f","1","277.30000019073486","1280 x 720","1280 x 720","true","1","10","","","","",""
"null","<p style=""font-size: 80px;"">+ 0 points</p>","null","html-keyboard-response","58","348403","0.0-11.0-2.57","5ed7d4019c64e70c16dc327a","v2o6hc","HC","28","F","{""name"":""Chrome"",""chrome"":true,""version"":""106.0"",""blink"":true,""windows"":true,""osname"":""Windows"",""osversion"":""10"",""a"":true}","9:23:6","1","4","Test_4","74","f","0","255.10000014305115","1280 x 720","1280 x 720","true","1","0","","","","",""
"null","<p style=""font-size: 80px;"">+ 0 points</p>","null","html-keyboard-response","59","350721","0.0-11.0-2.58","5ed7d4019c64e70c16dc327a","v2o6hc","HC","28","F","{""name"":""Chrome"",""chrome"":true,""version"":""106.0"",""blink"":true,""windows"":true,""osname"":""Windows"",""osversion"":""10"",""a"":true}","9:23:6","1","4","Test_4","74","f","0","292.2999999523163","1280 x 720","1280 x 720","true","1","0","","","","",""
"null","<p style=""font-size: 80px;"">+ 0 points</p>","null","html-keyboard-response","60","353092","0.0-11.0-2.59","5ed7d4019c64e70c16dc327a","v2o6hc","HC","28","F","{""name"":""Chrome"",""chrome"":true,""version"":""106.0"",""blink"":true,""windows"":true,""osname"":""Windows"",""osversion"":""10"",""a"":true}","9:23:6","1","4","Test_4","74","f","0","352","1280 x 720","1280 x 720","true","1","0","","","","",""
"null","<p style=""font-size: 80px;"">+ 10 points</p>","null","html-keyboard-response","61","356577","0.0-11.0-2.60","5ed7d4019c64e70c16dc327a","v2o6hc","HC","28","F","{""name"":""Chrome"",""chrome"":true,""version"":""106.0"",""blink"":true,""windows"":true,""osname"":""Windows"",""osversion"":""10"",""a"":true}","9:23:6","1","4","Test_1","74","j","1","1461.7000000476837","1280 x 720","1280 x 720","true","1","10","","","","",""
"null","<p style=""font-size: 80px;"">+ 0 points</p>","null","html-keyboard-response","62","358944","0.0-11.0-2.61","5ed7d4019c64e70c16dc327a","v2o6hc","HC","28","F","{""name"":""Chrome"",""chrome"":true,""version"":""106.0"",""blink"":true,""windows"":true,""osname"":""Windows"",""osversion"":""10"",""a"":true}","9:23:6","1","4","Test_2","74","f","0","345","1280 x 720","1280 x 720","true","1","0","","","","",""
"null","<p style=""font-size: 80px;"">+ 10 points</p>","null","html-keyboard-response","63","361224","0.0-11.0-2.62","5ed7d4019c64e70c16dc327a","v2o6hc","HC","28","F","{""name"":""Chrome"",""chrome"":true,""version"":""106.0"",""blink"":true,""windows"":true,""osname"":""Windows"",""osversion"":""10"",""a"":true}","9:23:6","1","4","Test_1","74","j","1","260.5","1280 x 720","1280 x 720","true","1","10","","","","",""
"null","<p style=""font-size: 80px;"">+ 0 points</p>","null","html-keyboard-response","64","363461","0.0-11.0-2.63","5ed7d4019c64e70c16dc327a","v2o6hc","HC","28","F","{""name"":""Chrome"",""chrome"":true,""version"":""106.0"",""blink"":true,""windows"":true,""osname"":""Windows"",""osversion"":""10"",""a"":true}","9:23:6","1","4","Test_1","70","j","0","223.69999980926514","1280 x 720","1280 x 720","true","1","0","","","","",""
"null","<p style=""font-size: 80px;"">+ 0 points</p>","null","html-keyboard-response","65","365732","0.0-11.0-2.64","5ed7d4019c64e70c16dc327a","v2o6hc","HC","28","F","{""name"":""Chrome"",""chrome"":true,""version"":""106.0"",""blink"":true,""windows"":true,""osname"":""Windows"",""osversion"":""10"",""a"":true}","9:23:6","1","4","Test_1","70","j","0","254.60000014305115","1280 x 720","1280 x 720","true","1","0","","","","",""
"null","<p style=""font-size: 80px;"">+ 0 points</p>","null","html-keyboard-response","66","368040","0.0-11.0-2.65","5ed7d4019c64e70c16dc327a","v2o6hc","HC","28","F","{""name"":""Chrome"",""chrome"":true,""version"":""106.0"",""blink"":true,""windows"":true,""osname"":""Windows"",""osversion"":""10"",""a"":true}","9:23:6","1","4","Test_1","70","j","0","261.7000000476837","1280 x 720","1280 x 720","true","1","0","","","","",""
"null","<p style=""font-size: 80px;"">+ 0 points</p>","null","html-keyboard-response","67","370285","0.0-11.0-2.66","5ed7d4019c64e70c16dc327a","v2o6hc","HC","28","F","{""name"":""Chrome"",""chrome"":true,""version"":""106.0"",""blink"":true,""windows"":true,""osname"":""Windows"",""osversion"":""10"",""a"":true}","9:23:6","1","4","Test_3","70","j","0","234.20000004768372","1280 x 720","1280 x 720","true","1","0","","","","",""
"null","<p style=""font-size: 80px;"">+ 10 points</p>","null","html-keyboard-response","68","372602","0.0-11.0-2.67","5ed7d4019c64e70c16dc327a","v2o6hc","HC","28","F","{""name"":""Chrome"",""chrome"":true,""version"":""106.0"",""blink"":true,""windows"":true,""osname"":""Windows"",""osversion"":""10"",""a"":true}","9:23:6","1","4","Test_2","70","f","1","285","1280 x 720","1280 x 720","true","1","10","","","","",""
"null","<p style=""font-size: 80px;"">+ 0 points</p>","null","html-keyboard-response","69","374842","0.0-11.0-2.68","5ed7d4019c64e70c16dc327a","v2o6hc","HC","28","F","{""name"":""Chrome"",""chrome"":true,""version"":""106.0"",""blink"":true,""windows"":true,""osname"":""Windows"",""osversion"":""10"",""a"":true}","9:23:6","1","4","Test_1","70","j","0","215.10000014305115","1280 x 720","1280 x 720","true","1","0","","","","",""
"null","<p style=""font-size: 80px;"">+ 10 points</p>","null","html-keyboard-response","70","377077","0.0-11.0-2.69","5ed7d4019c64e70c16dc327a","v2o6hc","HC","28","F","{""name"":""Chrome"",""chrome"":true,""version"":""106.0"",""blink"":true,""windows"":true,""osname"":""Windows"",""osversion"":""10"",""a"":true}","9:23:6","1","4","Test_3","74","j","1","219.29999995231628","1280 x 720","1280 x 720","true","1","10","","","","",""
"null","<p style=""font-size: 80px;"">+ 0 points</p>","null","html-keyboard-response","71","379401","0.0-11.0-2.70","5ed7d4019c64e70c16dc327a","v2o6hc","HC","28","F","{""name"":""Chrome"",""chrome"":true,""version"":""106.0"",""blink"":true,""windows"":true,""osname"":""Windows"",""osversion"":""10"",""a"":true}","9:23:6","1","4","Test_4","74","f","0","301","1280 x 720","1280 x 720","true","1","0","","","","",""
"null","<p style=""font-size: 80px;"">+ 10 points</p>","null","html-keyboard-response","72","381496","0.0-11.0-2.71","5ed7d4019c64e70c16dc327a","v2o6hc","HC","28","F","{""name"":""Chrome"",""chrome"":true,""version"":""106.0"",""blink"":true,""windows"":true,""osname"":""Windows"",""osversion"":""10"",""a"":true}","9:23:6","1","4","Test_3","74","j","1","72","1280 x 720","1280 x 720","true","1","10","","","","",""
"null","<p style=""font-size: 80px;"">+ 0 points</p>","null","html-keyboard-response","73","383793","0.0-11.0-2.72","5ed7d4019c64e70c16dc327a","v2o6hc","HC","28","F","{""name"":""Chrome"",""chrome"":true,""version"":""106.0"",""blink"":true,""windows"":true,""osname"":""Windows"",""osversion"":""10"",""a"":true}","9:23:6","1","4","Test_2","74","f","0","264.69999980926514","1280 x 720","1280 x 720","true","1","0","","","","",""
"null","<p style=""font-size: 80px;"">+ 10 points</p>","null","html-keyboard-response","74","386090","0.0-11.0-2.73","5ed7d4019c64e70c16dc327a","v2o6hc","HC","28","F","{""name"":""Chrome"",""chrome"":true,""version"":""106.0"",""blink"":true,""windows"":true,""osname"":""Windows"",""osversion"":""10"",""a"":true}","9:23:6","1","4","Test_3","74","j","1","263.69999980926514","1280 x 720","1280 x 720","true","1","10","","","","",""
"null","<p style=""font-size: 80px;"">+ 0 points</p>","null","html-keyboard-response","75","388303","0.0-11.0-2.74","5ed7d4019c64e70c16dc327a","v2o6hc","HC","28","F","{""name"":""Chrome"",""chrome"":true,""version"":""106.0"",""blink"":true,""windows"":true,""osname"":""Windows"",""osversion"":""10"",""a"":true}","9:23:6","1","3","Test_1","74","f","0","202.20000004768372","1280 x 720","1280 x 720","true","1","0","","","","",""
"null","<p style=""font-size: 80px;"">+ 10 points</p>","null","html-keyboard-response","76","390683","0.0-11.0-2.75","5ed7d4019c64e70c16dc327a","v2o6hc","HC","28","F","{""name"":""Chrome"",""chrome"":true,""version"":""106.0"",""blink"":true,""windows"":true,""osname"":""Windows"",""osversion"":""10"",""a"":true}","9:23:6","1","3","Test_4","74","j","1","349.89999985694885","1280 x 720","1280 x 720","true","1","10","","","","",""
"null","<p style=""font-size: 80px;"">+ 0 points</p>","null","html-keyboard-response","77","392966","0.0-11.0-2.76","5ed7d4019c64e70c16dc327a","v2o6hc","HC","28","F","{""name"":""Chrome"",""chrome"":true,""version"":""106.0"",""blink"":true,""windows"":true,""osname"":""Windows"",""osversion"":""10"",""a"":true}","9:23:6","1","3","Test_3","74","f","0","268.89999985694885","1280 x 720","1280 x 720","true","1","0","","","","",""
"null","<p style=""font-size: 80px;"">+ 10 points</p>","null","html-keyboard-response","78","396080","0.0-11.0-2.77","5ed7d4019c64e70c16dc327a","v2o6hc","HC","28","F","{""name"":""Chrome"",""chrome"":true,""version"":""106.0"",""blink"":true,""windows"":true,""osname"":""Windows"",""osversion"":""10"",""a"":true}","9:23:6","1","3","Test_3","70","f","1","1078.5","1280 x 720","1280 x 720","true","1","10","","","","",""
"null","<p style=""font-size: 80px;"">+ 10 points</p>","null","html-keyboard-response","79","398822","0.0-11.0-2.78","5ed7d4019c64e70c16dc327a","v2o6hc","HC","28","F","{""name"":""Chrome"",""chrome"":true,""version"":""106.0"",""blink"":true,""windows"":true,""osname"":""Windows"",""osversion"":""10"",""a"":true}","9:23:6","1","3","Test_2","74","j","1","730.0999999046326","1280 x 720","1280 x 720","true","1","10","","","","",""
"null","<p style=""font-size: 80px;"">+ 10 points</p>","null","html-keyboard-response","80","401512","0.0-11.0-2.79","5ed7d4019c64e70c16dc327a","v2o6hc","HC","28","F","{""name"":""Chrome"",""chrome"":true,""version"":""106.0"",""blink"":true,""windows"":true,""osname"":""Windows"",""osversion"":""10"",""a"":true}","9:23:6","1","3","Test_2","74","j","1","671.9000000953674","1280 x 720","1280 x 720","true","1","10","","","","",""
"null","<p style=""font-size: 80px;"">+ 10 points</p>","null","html-keyboard-response","81","403934","0.0-11.0-2.80","5ed7d4019c64e70c16dc327a","v2o6hc","HC","28","F","{""name"":""Chrome"",""chrome"":true,""version"":""106.0"",""blink"":true,""windows"":true,""osname"":""Windows"",""osversion"":""10"",""a"":true}","9:23:6","1","3","Test_2","74","j","1","391.89999985694885","1280 x 720","1280 x 720","true","1","10","","","","",""
"null","<p style=""font-size: 80px;"">+ 10 points</p>","null","html-keyboard-response","82","406829","0.0-11.0-2.81","5ed7d4019c64e70c16dc327a","v2o6hc","HC","28","F","{""name"":""Chrome"",""chrome"":true,""version"":""106.0"",""blink"":true,""windows"":true,""osname"":""Windows"",""osversion"":""10"",""a"":true}","9:23:6","1","3","Test_4","74","j","1","851.8000001907349","1280 x 720","1280 x 720","true","1","10","","","","",""
"null","<p style=""font-size: 80px;"">+ 10 points</p>","null","html-keyboard-response","83","409648","0.0-11.0-2.82","5ed7d4019c64e70c16dc327a","v2o6hc","HC","28","F","{""name"":""Chrome"",""chrome"":true,""version"":""106.0"",""blink"":true,""windows"":true,""osname"":""Windows"",""osversion"":""10"",""a"":true}","9:23:6","1","3","Test_3","70","f","1","796.7000000476837","1280 x 720","1280 x 720","true","1","10","","","","",""
"null","<p style=""font-size: 80px;"">+ 10 points</p>","null","html-keyboard-response","84","412164","0.0-11.0-2.83","5ed7d4019c64e70c16dc327a","v2o6hc","HC","28","F","{""name"":""Chrome"",""chrome"":true,""version"":""106.0"",""blink"":true,""windows"":true,""osname"":""Windows"",""osversion"":""10"",""a"":true}","9:23:6","1","3","Test_3","70","f","1","497.30000019073486","1280 x 720","1280 x 720","true","1","10","","","","",""
"null","<p style=""font-size: 80px;"">+ 0 points</p>","null","html-keyboard-response","85","414838","0.0-11.0-2.84","5ed7d4019c64e70c16dc327a","v2o6hc","HC","28","F","{""name"":""Chrome"",""chrome"":true,""version"":""106.0"",""blink"":true,""windows"":true,""osname"":""Windows"",""osversion"":""10"",""a"":true}","9:23:6","1","3","Test_1","74","f","0","647.6999998092651","1280 x 720","1280 x 720","true","1","0","","","","",""
"null","<p style=""font-size: 80px;"">+ 10 points</p>","null","html-keyboard-response","86","417411","0.0-11.0-2.85","5ed7d4019c64e70c16dc327a","v2o6hc","HC","28","F","{""name"":""Chrome"",""chrome"":true,""version"":""106.0"",""blink"":true,""windows"":true,""osname"":""Windows"",""osversion"":""10"",""a"":true}","9:23:6","1","3","Test_4","74","j","1","540.3999998569489","1280 x 720","1280 x 720","true","1","10","","","","",""
"null","<p style=""font-size: 80px;"">+ 10 points</p>","null","html-keyboard-response","87","420152","0.0-11.0-2.86","5ed7d4019c64e70c16dc327a","v2o6hc","HC","28","F","{""name"":""Chrome"",""chrome"":true,""version"":""106.0"",""blink"":true,""windows"":true,""osname"":""Windows"",""osversion"":""10"",""a"":true}","9:23:6","1","3","Test_2","74","j","1","712.5","1280 x 720","1280 x 720","true","1","10","","","","",""
"null","<p style=""font-size: 80px;"">+ 10 points</p>","null","html-keyboard-response","88","422919","0.0-11.0-2.87","5ed7d4019c64e70c16dc327a","v2o6hc","HC","28","F","{""name"":""Chrome"",""chrome"":true,""version"":""106.0"",""blink"":true,""windows"":true,""osname"":""Windows"",""osversion"":""10"",""a"":true}","9:23:6","1","3","Test_1","70","f","1","733.2999999523163","1280 x 720","1280 x 720","true","1","10","","","","",""
"null","<p style=""font-size: 80px;"">+ 10 points</p>","null","html-keyboard-response","89","425701","0.0-11.0-2.88","5ed7d4019c64e70c16dc327a","v2o6hc","HC","28","F","{""name"":""Chrome"",""chrome"":true,""version"":""106.0"",""blink"":true,""windows"":true,""osname"":""Windows"",""osversion"":""10"",""a"":true}","9:23:6","1","3","Test_1","70","f","1","761.2999999523163","1280 x 720","1280 x 720","true","1","10","","","","",""
"null","<p style=""font-size: 80px;"">+ 0 points</p>","null","html-keyboard-response","90","428467","0.0-11.0-2.89","5ed7d4019c64e70c16dc327a","v2o6hc","HC","28","F","{""name"":""Chrome"",""chrome"":true,""version"":""106.0"",""blink"":true,""windows"":true,""osname"":""Windows"",""osversion"":""10"",""a"":true}","9:23:6","1","4","Test_4","74","f","0","736.2000000476837","1280 x 720","1280 x 720","true","1","0","","","","",""
"null","<p style=""font-size: 80px;"">+ 10 points</p>","null","html-keyboard-response","91","431035","0.0-11.0-2.90","5ed7d4019c64e70c16dc327a","v2o6hc","HC","28","F","{""name"":""Chrome"",""chrome"":true,""version"":""106.0"",""blink"":true,""windows"":true,""osname"":""Windows"",""osversion"":""10"",""a"":true}","9:23:6","1","4","Test_1","74","j","1","536.3000001907349","1280 x 720","1280 x 720","true","1","10","","","","",""
"null","<p style=""font-size: 80px;"">+ 10 points</p>","null","html-keyboard-response","92","433675","0.0-11.0-2.91","5ed7d4019c64e70c16dc327a","v2o6hc","HC","28","F","{""name"":""Chrome"",""chrome"":true,""version"":""106.0"",""blink"":true,""windows"":true,""osname"":""Windows"",""osversion"":""10"",""a"":true}","9:23:6","1","4","Test_3","74","j","1","611.5","1280 x 720","1280 x 720","true","1","10","","","","",""
"null","<p style=""font-size: 80px;"">+ 10 points</p>","null","html-keyboard-response","93","436688","0.0-11.0-2.92","5ed7d4019c64e70c16dc327a","v2o6hc","HC","28","F","{""name"":""Chrome"",""chrome"":true,""version"":""106.0"",""blink"":true,""windows"":true,""osname"":""Windows"",""osversion"":""10"",""a"":true}","9:23:6","1","4","Test_4","70","f","1","995","1280 x 720","1280 x 720","true","1","10","","","","",""
"null","<p style=""font-size: 80px;"">+ 10 points</p>","null","html-keyboard-response","94","439107","0.0-11.0-2.93","5ed7d4019c64e70c16dc327a","v2o6hc","HC","28","F","{""name"":""Chrome"",""chrome"":true,""version"":""106.0"",""blink"":true,""windows"":true,""osname"":""Windows"",""osversion"":""10"",""a"":true}","9:23:6","1","4","Test_3","74","j","1","392.7999999523163","1280 x 720","1280 x 720","true","1","10","","","","",""
"null","<p style=""font-size: 80px;"">+ 10 points</p>","null","html-keyboard-response","95","441719","0.0-11.0-2.94","5ed7d4019c64e70c16dc327a","v2o6hc","HC","28","F","{""name"":""Chrome"",""chrome"":true,""version"":""106.0"",""blink"":true,""windows"":true,""osname"":""Windows"",""osversion"":""10"",""a"":true}","9:23:6","1","4","Test_2","70","f","1","572.7999999523163","1280 x 720","1280 x 720","true","1","10","","","","",""
"null","<p style=""font-size: 80px;"">+ 10 points</p>","null","html-keyboard-response","96","444410","0.0-11.0-2.95","5ed7d4019c64e70c16dc327a","v2o6hc","HC","28","F","{""name"":""Chrome"",""chrome"":true,""version"":""106.0"",""blink"":true,""windows"":true,""osname"":""Windows"",""osversion"":""10"",""a"":true}","9:23:6","1","4","Test_3","74","j","1","665.6000001430511","1280 x 720","1280 x 720","true","1","10","","","","",""
"null","<p style=""font-size: 80px;"">+ 10 points</p>","null","html-keyboard-response","97","447039","0.0-11.0-2.96","5ed7d4019c64e70c16dc327a","v2o6hc","HC","28","F","{""name"":""Chrome"",""chrome"":true,""version"":""106.0"",""blink"":true,""windows"":true,""osname"":""Windows"",""osversion"":""10"",""a"":true}","9:23:6","1","4","Test_1","74","j","1","615.2999999523163","1280 x 720","1280 x 720","true","1","10","","","","",""
"null","<p style=""font-size: 80px;"">+ 0 points</p>","null","html-keyboard-response","98","449421","0.0-11.0-2.97","5ed7d4019c64e70c16dc327a","v2o6hc","HC","28","F","{""name"":""Chrome"",""chrome"":true,""version"":""106.0"",""blink"":true,""windows"":true,""osname"":""Windows"",""osversion"":""10"",""a"":true}","9:23:6","1","4","Test_4","74","f","0","373.7000000476837","1280 x 720","1280 x 720","true","1","0","","","","",""
"null","<p style=""font-size: 80px;"">+ 10 points</p>","null","html-keyboard-response","99","452199","0.0-11.0-2.98","5ed7d4019c64e70c16dc327a","v2o6hc","HC","28","F","{""name"":""Chrome"",""chrome"":true,""version"":""106.0"",""blink"":true,""windows"":true,""osname"":""Windows"",""osversion"":""10"",""a"":true}","9:23:6","1","4","Test_4","70","f","1","742.9000000953674","1280 x 720","1280 x 720","true","1","10","","","","",""
"null","<p style=""font-size: 80px;"">+ 10 points</p>","null","html-keyboard-response","100","454746","0.0-11.0-2.99","5ed7d4019c64e70c16dc327a","v2o6hc","HC","28","F","{""name"":""Chrome"",""chrome"":true,""version"":""106.0"",""blink"":true,""windows"":true,""osname"":""Windows"",""osversion"":""10"",""a"":true}","9:23:6","1","4","Test_3","74","j","1","511.40000009536743","1280 x 720","1280 x 720","true","1","10","","","","",""
"null","<p style=""font-size: 80px;"">+ 10 points</p>","null","html-keyboard-response","101","457012","0.0-11.0-2.100","5ed7d4019c64e70c16dc327a","v2o6hc","HC","28","F","{""name"":""Chrome"",""chrome"":true,""version"":""106.0"",""blink"":true,""windows"":true,""osname"":""Windows"",""osversion"":""10"",""a"":true}","9:23:6","1","4","Test_3","74","j","1","244.60000014305115","1280 x 720","1280 x 720","true","1","10","","","","",""
"null","<p style=""font-size: 80px;"">+ 0 points</p>","null","html-keyboard-response","102","459233","0.0-11.0-2.101","5ed7d4019c64e70c16dc327a","v2o6hc","HC","28","F","{""name"":""Chrome"",""chrome"":true,""version"":""106.0"",""blink"":true,""windows"":true,""osname"":""Windows"",""osversion"":""10"",""a"":true}","9:23:6","1","4","Test_2","74","f","0","208","1280 x 720","1280 x 720","true","1","0","","","","",""
"null","<p style=""font-size: 80px;"">+ 10 points</p>","null","html-keyboard-response","103","461541","0.0-11.0-2.102","5ed7d4019c64e70c16dc327a","v2o6hc","HC","28","F","{""name"":""Chrome"",""chrome"":true,""version"":""106.0"",""blink"":true,""windows"":true,""osname"":""Windows"",""osversion"":""10"",""a"":true}","9:23:6","1","4","Test_3","74","j","1","263.69999980926514","1280 x 720","1280 x 720","true","1","10","","","","",""
"null","<p style=""font-size: 80px;"">+ 10 points</p>","null","html-keyboard-response","104","463838","0.0-11.0-2.103","5ed7d4019c64e70c16dc327a","v2o6hc","HC","28","F","{""name"":""Chrome"",""chrome"":true,""version"":""106.0"",""blink"":true,""windows"":true,""osname"":""Windows"",""osversion"":""10"",""a"":true}","9:23:6","1","4","Test_1","74","j","1","264.09999990463257","1280 x 720","1280 x 720","true","1","10","","","","",""
"null","<p style=""font-size: 80px;"">+ 10 points</p>","null","html-keyboard-response","105","466090","0.0-11.0-2.104","5ed7d4019c64e70c16dc327a","v2o6hc","HC","28","F","{""name"":""Chrome"",""chrome"":true,""version"":""106.0"",""blink"":true,""windows"":true,""osname"":""Windows"",""osversion"":""10"",""a"":true}","9:23:6","1","4","Test_2","70","f","1","228","1280 x 720","1280 x 720","true","1","10","","","","",""
"null","<p style=""font-size: 80px;"">+ 0 points</p>","null","html-keyboard-response","106","468350","0.0-11.0-2.105","5ed7d4019c64e70c16dc327a","v2o6hc","HC","28","F","{""name"":""Chrome"",""chrome"":true,""version"":""106.0"",""blink"":true,""windows"":true,""osname"":""Windows"",""osversion"":""10"",""a"":true}","9:23:6","1","4","Test_4","74","f","0","221.5","1280 x 720","1280 x 720","true","1","0","","","","",""
"null","<p style=""font-size: 80px;"">+ 0 points</p>","null","html-keyboard-response","107","470442","0.0-11.0-2.106","5ed7d4019c64e70c16dc327a","v2o6hc","HC","28","F","{""name"":""Chrome"",""chrome"":true,""version"":""106.0"",""blink"":true,""windows"":true,""osname"":""Windows"",""osversion"":""10"",""a"":true}","9:23:6","1","4","Test_2","74","f","0","41.200000047683716","1280 x 720","1280 x 720","true","1","0","","","","",""
"null","<p style=""font-size: 80px;"">+ 10 points</p>","null","html-keyboard-response","108","472557","0.0-11.0-2.107","5ed7d4019c64e70c16dc327a","v2o6hc","HC","28","F","{""name"":""Chrome"",""chrome"":true,""version"":""106.0"",""blink"":true,""windows"":true,""osname"":""Windows"",""osversion"":""10"",""a"":true}","9:23:6","1","4","Test_1","74","j","1","103.59999990463257","1280 x 720","1280 x 720","true","1","10","","","","",""
"null","<p style=""font-size: 80px;"">+ 0 points</p>","null","html-keyboard-response","109","474909","0.0-11.0-2.108","5ed7d4019c64e70c16dc327a","v2o6hc","HC","28","F","{""name"":""Chrome"",""chrome"":true,""version"":""106.0"",""blink"":true,""windows"":true,""osname"":""Windows"",""osversion"":""10"",""a"":true}","9:23:6","1","4","Test_2","74","f","0","335.5","1280 x 720","1280 x 720","true","1","0","","","","",""
"null","<p style=""font-size: 80px;"">+ 0 points</p>","null","html-keyboard-response","110","606361","0.0-11.0-2.109","5ed7d4019c64e70c16dc327a","v2o6hc","HC","28","F","{""name"":""Chrome"",""chrome"":true,""version"":""106.0"",""blink"":true,""windows"":true,""osname"":""Windows"",""osversion"":""10"",""a"":true}","9:23:6","1","4","Test_2","74","f","0","1057.5999999046326","1280 x 720","1280 x 720","true","1","0","","","","",""
"null","<p style=""font-size: 80px;"">+ 0 points</p>","null","html-keyboard-response","111","608600","0.0-11.0-2.110","5ed7d4019c64e70c16dc327a","v2o6hc","HC","28","F","{""name"":""Chrome"",""chrome"":true,""version"":""106.0"",""blink"":true,""windows"":true,""osname"":""Windows"",""osversion"":""10"",""a"":true}","9:23:6","1","4","Test_4","74","f","0","232.29999995231628","1280 x 720","1280 x 720","true","1","0","","","","",""
"null","<p style=""font-size: 80px;"">+ 10 points</p>","null","html-keyboard-response","112","611085","0.0-11.0-2.111","5ed7d4019c64e70c16dc327a","v2o6hc","HC","28","F","{""name"":""Chrome"",""chrome"":true,""version"":""106.0"",""blink"":true,""windows"":true,""osname"":""Windows"",""osversion"":""10"",""a"":true}","9:23:6","1","4","Test_1","74","j","1","471.60000014305115","1280 x 720","1280 x 720","true","1","10","","","","",""
"null","<p style=""font-size: 80px;"">+ 10 points</p>","null","html-keyboard-response","113","614069","0.0-11.0-2.112","5ed7d4019c64e70c16dc327a","v2o6hc","HC","28","F","{""name"":""Chrome"",""chrome"":true,""version"":""106.0"",""blink"":true,""windows"":true,""osname"":""Windows"",""osversion"":""10"",""a"":true}","9:23:6","1","4","Test_1","74","j","1","958.8999998569489","1280 x 720","1280 x 720","true","1","10","","","","",""
"null","<p style=""font-size: 80px;"">+ 0 points</p>","null","html-keyboard-response","114","616853","0.0-11.0-2.113","5ed7d4019c64e70c16dc327a","v2o6hc","HC","28","F","{""name"":""Chrome"",""chrome"":true,""version"":""106.0"",""blink"":true,""windows"":true,""osname"":""Windows"",""osversion"":""10"",""a"":true}","9:23:6","1","3","Test_3","74","f","0","758.1999998092651","1280 x 720","1280 x 720","true","1","0","","","","",""
"null","<p style=""font-size: 80px;"">+ 0 points</p>","null","html-keyboard-response","115","619636","0.0-11.0-2.114","5ed7d4019c64e70c16dc327a","v2o6hc","HC","28","F","{""name"":""Chrome"",""chrome"":true,""version"":""106.0"",""blink"":true,""windows"":true,""osname"":""Windows"",""osversion"":""10"",""a"":true}","9:23:6","1","3","Test_1","74","f","0","755.4000000953674","1280 x 720","1280 x 720","true","1","0","","","","",""
"null","<p style=""font-size: 80px;"">+ 10 points</p>","null","html-keyboard-response","116","622698","0.0-11.0-2.115","5ed7d4019c64e70c16dc327a","v2o6hc","HC","28","F","{""name"":""Chrome"",""chrome"":true,""version"":""106.0"",""blink"":true,""windows"":true,""osname"":""Windows"",""osversion"":""10"",""a"":true}","9:23:6","1","3","Test_2","74","j","1","1030.5","1280 x 720","1280 x 720","true","1","10","","","","",""
"null","<p style=""font-size: 80px;"">+ 10 points</p>","null","html-keyboard-response","117","625173","0.0-11.0-2.116","5ed7d4019c64e70c16dc327a","v2o6hc","HC","28","F","{""name"":""Chrome"",""chrome"":true,""version"":""106.0"",""blink"":true,""windows"":true,""osname"":""Windows"",""osversion"":""10"",""a"":true}","9:23:6","1","3","Test_4","74","j","1","448.7000000476837","1280 x 720","1280 x 720","true","1","10","","","","",""
"null","<p style=""font-size: 80px;"">+ 10 points</p>","null","html-keyboard-response","118","627416","0.0-11.0-2.117","5ed7d4019c64e70c16dc327a","v2o6hc","HC","28","F","{""name"":""Chrome"",""chrome"":true,""version"":""106.0"",""blink"":true,""windows"":true,""osname"":""Windows"",""osversion"":""10"",""a"":true}","9:23:6","1","3","Test_4","74","j","1","211.40000009536743","1280 x 720","1280 x 720","true","1","10","","","","",""
"null","<p style=""font-size: 80px;"">+ 10 points</p>","null","html-keyboard-response","119","629705","0.0-11.0-2.118","5ed7d4019c64e70c16dc327a","v2o6hc","HC","28","F","{""name"":""Chrome"",""chrome"":true,""version"":""106.0"",""blink"":true,""windows"":true,""osname"":""Windows"",""osversion"":""10"",""a"":true}","9:23:6","1","3","Test_1","70","f","1","257.5","1280 x 720","1280 x 720","true","1","10","","","","",""
"null","<p style=""font-size: 80px;"">+ 0 points</p>","null","html-keyboard-response","120","631990","0.0-11.0-2.119","5ed7d4019c64e70c16dc327a","v2o6hc","HC","28","F","{""name"":""Chrome"",""chrome"":true,""version"":""106.0"",""blink"":true,""windows"":true,""osname"":""Windows"",""osversion"":""10"",""a"":true}","9:23:6","1","3","Test_3","74","f","0","264.7000000476837","1280 x 720","1280 x 720","true","1","0","","","","",""
"null","<p style=""font-size: 80px;"">+ 10 points</p>","null","html-keyboard-response","121","634815","0.0-11.0-2.120","5ed7d4019c64e70c16dc327a","v2o6hc","HC","28","F","{""name"":""Chrome"",""chrome"":true,""version"":""106.0"",""blink"":true,""windows"":true,""osname"":""Windows"",""osversion"":""10"",""a"":true}","9:23:6","1","3","Test_1","70","f","1","796.8000001907349","1280 x 720","1280 x 720","true","1","10","","","","",""
"null","<p style=""font-size: 80px;"">+ 0 points</p>","null","html-keyboard-response","122","637099","0.0-11.0-2.121","5ed7d4019c64e70c16dc327a","v2o6hc","HC","28","F","{""name"":""Chrome"",""chrome"":true,""version"":""106.0"",""blink"":true,""windows"":true,""osname"":""Windows"",""osversion"":""10"",""a"":true}","9:23:6","1","3","Test_4","70","j","0","260.80000019073486","1280 x 720","1280 x 720","true","1","0","","","","",""
"null","<p style=""font-size: 80px;"">+ 10 points</p>","null","html-keyboard-response","123","639323","0.0-11.0-2.122","5ed7d4019c64e70c16dc327a","v2o6hc","HC","28","F","{""name"":""Chrome"",""chrome"":true,""version"":""106.0"",""blink"":true,""windows"":true,""osname"":""Windows"",""osversion"":""10"",""a"":true}","9:23:6","1","3","Test_2","74","j","1","205.90000009536743","1280 x 720","1280 x 720","true","1","10","","","","",""
"null","<p style=""font-size: 80px;"">+ 10 points</p>","null","html-keyboard-response","124","641573","0.0-11.0-2.123","5ed7d4019c64e70c16dc327a","v2o6hc","HC","28","F","{""name"":""Chrome"",""chrome"":true,""version"":""106.0"",""blink"":true,""windows"":true,""osname"":""Windows"",""osversion"":""10"",""a"":true}","9:23:6","1","3","Test_3","70","f","1","214.29999995231628","1280 x 720","1280 x 720","true","1","10","","","","",""
"null","<p style=""font-size: 80px;"">+ 0 points</p>","null","html-keyboard-response","125","643836","0.0-11.0-2.124","5ed7d4019c64e70c16dc327a","v2o6hc","HC","28","F","{""name"":""Chrome"",""chrome"":true,""version"":""106.0"",""blink"":true,""windows"":true,""osname"":""Windows"",""osversion"":""10"",""a"":true}","9:23:6","1","3","Test_1","74","f","0","239.20000004768372","1280 x 720","1280 x 720","true","1","0","","","","",""
"null","<p style=""font-size: 80px;"">+ 10 points</p>","null","html-keyboard-response","126","646117","0.0-11.0-2.125","5ed7d4019c64e70c16dc327a","v2o6hc","HC","28","F","{""name"":""Chrome"",""chrome"":true,""version"":""106.0"",""blink"":true,""windows"":true,""osname"":""Windows"",""osversion"":""10"",""a"":true}","9:23:6","1","3","Test_2","74","j","1","269.59999990463257","1280 x 720","1280 x 720","true","1","10","","","","",""
"null","<p style=""font-size: 80px;"">+ 0 points</p>","null","html-keyboard-response","127","648396","0.0-11.0-2.126","5ed7d4019c64e70c16dc327a","v2o6hc","HC","28","F","{""name"":""Chrome"",""chrome"":true,""version"":""106.0"",""blink"":true,""windows"":true,""osname"":""Windows"",""osversion"":""10"",""a"":true}","9:23:6","1","3","Test_1","74","f","0","268.10000014305115","1280 x 720","1280 x 720","true","1","0","","","","",""
"null","<p style=""font-size: 80px;"">+ 10 points</p>","null","html-keyboard-response","128","650649","0.0-11.0-2.127","5ed7d4019c64e70c16dc327a","v2o6hc","HC","28","F","{""name"":""Chrome"",""chrome"":true,""version"":""106.0"",""blink"":true,""windows"":true,""osname"":""Windows"",""osversion"":""10"",""a"":true}","9:23:6","1","3","Test_4","74","j","1","222.79999995231628","1280 x 720","1280 x 720","true","1","10","","","","",""
"null","<p style=""font-size: 80px;"">+ 0 points</p>","null","html-keyboard-response","129","652920","0.0-11.0-2.128","5ed7d4019c64e70c16dc327a","v2o6hc","HC","28","F","{""name"":""Chrome"",""chrome"":true,""version"":""106.0"",""blink"":true,""windows"":true,""osname"":""Windows"",""osversion"":""10"",""a"":true}","9:23:6","1","3","Test_2","70","j","0","255.39999985694885","1280 x 720","1280 x 720","true","1","0","","","","",""
"null","<p style=""font-size: 80px;"">+ 0 points</p>","null","html-keyboard-response","130","655033","0.0-11.0-2.129","5ed7d4019c64e70c16dc327a","v2o6hc","HC","28","F","{""name"":""Chrome"",""chrome"":true,""version"":""106.0"",""blink"":true,""windows"":true,""osname"":""Windows"",""osversion"":""10"",""a"":true}","9:23:6","1","3","Test_2","70","j","0","103.79999995231628","1280 x 720","1280 x 720","true","1","0","","","","",""
"null","<p style=""font-size: 80px;"">+ 0 points</p>","null","html-keyboard-response","131","657579","0.0-11.0-2.130","5ed7d4019c64e70c16dc327a","v2o6hc","HC","28","F","{""name"":""Chrome"",""chrome"":true,""version"":""106.0"",""blink"":true,""windows"":true,""osname"":""Windows"",""osversion"":""10"",""a"":true}","9:23:6","1","3","Test_4","70","j","0","508.40000009536743","1280 x 720","1280 x 720","true","1","0","","","","",""
"null","<p style=""font-size: 80px;"">+ 0 points</p>","null","html-keyboard-response","132","660624","0.0-11.0-2.131","5ed7d4019c64e70c16dc327a","v2o6hc","HC","28","F","{""name"":""Chrome"",""chrome"":true,""version"":""106.0"",""blink"":true,""windows"":true,""osname"":""Windows"",""osversion"":""10"",""a"":true}","9:23:6","1","4","Test_2","74","f","0","1025","1280 x 720","1280 x 720","true","1","0","","","","",""
"null","<p style=""font-size: 80px;"">+ 0 points</p>","null","html-keyboard-response","133","663535","0.0-11.0-2.132","5ed7d4019c64e70c16dc327a","v2o6hc","HC","28","F","{""name"":""Chrome"",""chrome"":true,""version"":""106.0"",""blink"":true,""windows"":true,""osname"":""Windows"",""osversion"":""10"",""a"":true}","9:23:6","1","4","Test_4","74","f","0","878.0999999046326","1280 x 720","1280 x 720","true","1","0","","","","",""
"null","<p style=""font-size: 80px;"">+ 0 points</p>","null","html-keyboard-response","134","666557","0.0-11.0-2.133","5ed7d4019c64e70c16dc327a","v2o6hc","HC","28","F","{""name"":""Chrome"",""chrome"":true,""version"":""106.0"",""blink"":true,""windows"":true,""osname"":""Windows"",""osversion"":""10"",""a"":true}","9:23:6","1","4","Test_2","74","f","0","1004.5999999046326","1280 x 720","1280 x 720","true","1","0","","","","",""
"null","<p style=""font-size: 80px;"">+ 10 points</p>","null","html-keyboard-response","135","669982","0.0-11.0-2.134","5ed7d4019c64e70c16dc327a","v2o6hc","HC","28","F","{""name"":""Chrome"",""chrome"":true,""version"":""106.0"",""blink"":true,""windows"":true,""osname"":""Windows"",""osversion"":""10"",""a"":true}","9:23:6","1","4","Test_1","74","j","1","1398.8999998569489","1280 x 720","1280 x 720","true","1","10","","","","",""
"null","<p style=""font-size: 80px;"">+ 10 points</p>","null","html-keyboard-response","136","672848","0.0-11.0-2.135","5ed7d4019c64e70c16dc327a","v2o6hc","HC","28","F","{""name"":""Chrome"",""chrome"":true,""version"":""106.0"",""blink"":true,""windows"":true,""osname"":""Windows"",""osversion"":""10"",""a"":true}","9:23:6","1","4","Test_1","74","j","1","845.5","1280 x 720","1280 x 720","true","1","10","","","","",""
"null","<p style=""font-size: 80px;"">+ 10 points</p>","null","html-keyboard-response","137","675656","0.0-11.0-2.136","5ed7d4019c64e70c16dc327a","v2o6hc","HC","28","F","{""name"":""Chrome"",""chrome"":true,""version"":""106.0"",""blink"":true,""windows"":true,""osname"":""Windows"",""osversion"":""10"",""a"":true}","9:23:6","1","4","Test_1","74","j","1","763.2000000476837","1280 x 720","1280 x 720","true","1","10","","","","",""
"null","<p style=""font-size: 80px;"">+ 10 points</p>","null","html-keyboard-response","138","679328","0.0-11.0-2.137","5ed7d4019c64e70c16dc327a","v2o6hc","HC","28","F","{""name"":""Chrome"",""chrome"":true,""version"":""106.0"",""blink"":true,""windows"":true,""osname"":""Windows"",""osversion"":""10"",""a"":true}","9:23:6","1","4","Test_3","74","j","1","1655.7000000476837","1280 x 720","1280 x 720","true","1","10","","","","",""
"null","<p style=""font-size: 80px;"">+ 10 points</p>","null","html-keyboard-response","139","681912","0.0-11.0-2.138","5ed7d4019c64e70c16dc327a","v2o6hc","HC","28","F","{""name"":""Chrome"",""chrome"":true,""version"":""106.0"",""blink"":true,""windows"":true,""osname"":""Windows"",""osversion"":""10"",""a"":true}","9:23:6","1","4","Test_1","74","j","1","556.9000000953674","1280 x 720","1280 x 720","true","1","10","","","","",""
"null","<p style=""font-size: 80px;"">+ 0 points</p>","null","html-keyboard-response","140","684984","0.0-11.0-2.139","5ed7d4019c64e70c16dc327a","v2o6hc","HC","28","F","{""name"":""Chrome"",""chrome"":true,""version"":""106.0"",""blink"":true,""windows"":true,""osname"":""Windows"",""osversion"":""10"",""a"":true}","9:23:6","1","4","Test_3","70","j","0","1040.5999999046326","1280 x 720","1280 x 720","true","1","0","","","","",""
"null","<p style=""font-size: 80px;"">+ 10 points</p>","null","html-keyboard-response","141","688501","0.0-11.0-2.140","5ed7d4019c64e70c16dc327a","v2o6hc","HC","28","F","{""name"":""Chrome"",""chrome"":true,""version"":""106.0"",""blink"":true,""windows"":true,""osname"":""Windows"",""osversion"":""10"",""a"":true}","9:23:6","1","4","Test_1","74","j","1","1501.2000000476837","1280 x 720","1280 x 720","true","1","10","","","","",""
"null","<p style=""font-size: 80px;"">+ 10 points</p>","null","html-keyboard-response","142","692261","0.0-11.0-2.141","5ed7d4019c64e70c16dc327a","v2o6hc","HC","28","F","{""name"":""Chrome"",""chrome"":true,""version"":""106.0"",""blink"":true,""windows"":true,""osname"":""Windows"",""osversion"":""10"",""a"":true}","9:23:6","1","4","Test_2","70","f","1","1720.8999998569489","1280 x 720","1280 x 720","true","1","10","","","","",""
"null","<p style=""font-size: 80px;"">+ 10 points</p>","null","html-keyboard-response","143","694840","0.0-11.0-2.142","5ed7d4019c64e70c16dc327a","v2o6hc","HC","28","F","{""name"":""Chrome"",""chrome"":true,""version"":""106.0"",""blink"":true,""windows"":true,""osname"":""Windows"",""osversion"":""10"",""a"":true}","9:23:6","1","4","Test_4","70","f","1","554.9000000953674","1280 x 720","1280 x 720","true","1","10","","","","",""
"null","<p style=""font-size: 80px;"">+ 10 points</p>","null","html-keyboard-response","144","697466","0.0-11.0-2.143","5ed7d4019c64e70c16dc327a","v2o6hc","HC","28","F","{""name"":""Chrome"",""chrome"":true,""version"":""106.0"",""blink"":true,""windows"":true,""osname"":""Windows"",""osversion"":""10"",""a"":true}","9:23:6","1","4","Test_4","70","f","1","588","1280 x 720","1280 x 720","true","1","10","","","","",""
"null","<p style=""font-size: 80px;"">+ 10 points</p>","null","html-keyboard-response","145","700178","0.0-11.0-2.144","5ed7d4019c64e70c16dc327a","v2o6hc","HC","28","F","{""name"":""Chrome"",""chrome"":true,""version"":""106.0"",""blink"":true,""windows"":true,""osname"":""Windows"",""osversion"":""10"",""a"":true}","9:23:6","1","4","Test_3","74","j","1","681.5999999046326","1280 x 720","1280 x 720","true","1","10","","","","",""
"null","<p style=""font-size: 80px;"">+ 10 points</p>","null","html-keyboard-response","146","702866","0.0-11.0-2.145","5ed7d4019c64e70c16dc327a","v2o6hc","HC","28","F","{""name"":""Chrome"",""chrome"":true,""version"":""106.0"",""blink"":true,""windows"":true,""osname"":""Windows"",""osversion"":""10"",""a"":true}","9:23:6","1","4","Test_4","70","f","1","671.8999998569489","1280 x 720","1280 x 720","true","1","10","","","","",""
"null","<p style=""font-size: 80px;"">+ 10 points</p>","null","html-keyboard-response","147","705695","0.0-11.0-2.146","5ed7d4019c64e70c16dc327a","v2o6hc","HC","28","F","{""name"":""Chrome"",""chrome"":true,""version"":""106.0"",""blink"":true,""windows"":true,""osname"":""Windows"",""osversion"":""10"",""a"":true}","9:23:6","1","4","Test_4","70","f","1","800.6999998092651","1280 x 720","1280 x 720","true","1","10","","","","",""
"null","<p style=""font-size: 80px;"">+ 10 points</p>","null","html-keyboard-response","148","708727","0.0-11.0-2.147","5ed7d4019c64e70c16dc327a","v2o6hc","HC","28","F","{""name"":""Chrome"",""chrome"":true,""version"":""106.0"",""blink"":true,""windows"":true,""osname"":""Windows"",""osversion"":""10"",""a"":true}","9:23:6","1","4","Test_2","70","f","1","1018.3000001907349","1280 x 720","1280 x 720","true","1","10","","","","",""
"null","<p style=""font-size: 80px;"">+ 10 points</p>","null","html-keyboard-response","149","712101","0.0-11.0-2.148","5ed7d4019c64e70c16dc327a","v2o6hc","HC","28","F","{""name"":""Chrome"",""chrome"":true,""version"":""106.0"",""blink"":true,""windows"":true,""osname"":""Windows"",""osversion"":""10"",""a"":true}","9:23:6","1","4","Test_3","74","j","1","1347.5","1280 x 720","1280 x 720","true","1","10","","","","",""
"null","<p style=""font-size: 80px;"">+ 10 points</p>","null","html-keyboard-response","150","714836","0.0-11.0-2.149","5ed7d4019c64e70c16dc327a","v2o6hc","HC","28","F","{""name"":""Chrome"",""chrome"":true,""version"":""106.0"",""blink"":true,""windows"":true,""osname"":""Windows"",""osversion"":""10"",""a"":true}","9:23:6","1","4","Test_2","70","f","1","716.5999999046326","1280 x 720","1280 x 720","true","1","10","","","","",""
"null","<p style=""font-size: 80px;"">+ 10 points</p>","null","html-keyboard-response","151","717678","0.0-11.0-2.150","5ed7d4019c64e70c16dc327a","v2o6hc","HC","28","F","{""name"":""Chrome"",""chrome"":true,""version"":""106.0"",""blink"":true,""windows"":true,""osname"":""Windows"",""osversion"":""10"",""a"":true}","9:23:6","1","4","Test_1","74","j","1","816.0999999046326","1280 x 720","1280 x 720","true","1","10","","","","",""
"null","<p style=""font-size: 80px;"">+ 10 points</p>","null","html-keyboard-response","152","720593","0.0-11.0-2.151","5ed7d4019c64e70c16dc327a","v2o6hc","HC","28","F","{""name"":""Chrome"",""chrome"":true,""version"":""106.0"",""blink"":true,""windows"":true,""osname"":""Windows"",""osversion"":""10"",""a"":true}","9:23:6","1","4","Test_2","70","f","1","890","1280 x 720","1280 x 720","true","1","10","","","","",""
"null","<p style=""font-size: 80px;"">+ 0 points</p>","null","html-keyboard-response","153","723571","0.0-11.0-2.152","5ed7d4019c64e70c16dc327a","v2o6hc","HC","28","F","{""name"":""Chrome"",""chrome"":true,""version"":""106.0"",""blink"":true,""windows"":true,""osname"":""Windows"",""osversion"":""10"",""a"":true}","9:23:6","1","3","Test_2","70","j","0","928","1280 x 720","1280 x 720","true","1","0","","","","",""
"null","<p style=""font-size: 80px;"">+ 10 points</p>","null","html-keyboard-response","154","726126","0.0-11.0-2.153","5ed7d4019c64e70c16dc327a","v2o6hc","HC","28","F","{""name"":""Chrome"",""chrome"":true,""version"":""106.0"",""blink"":true,""windows"":true,""osname"":""Windows"",""osversion"":""10"",""a"":true}","9:23:6","1","3","Test_2","74","j","1","537.1999998092651","1280 x 720","1280 x 720","true","1","10","","","","",""
"null","<p style=""font-size: 80px;"">+ 10 points</p>","null","html-keyboard-response","155","728571","0.0-11.0-2.154","5ed7d4019c64e70c16dc327a","v2o6hc","HC","28","F","{""name"":""Chrome"",""chrome"":true,""version"":""106.0"",""blink"":true,""windows"":true,""osname"":""Windows"",""osversion"":""10"",""a"":true}","9:23:6","1","3","Test_1","70","f","1","418.2000000476837","1280 x 720","1280 x 720","true","1","10","","","","",""
"null","<p style=""font-size: 80px;"">+ 0 points</p>","null","html-keyboard-response","156","730840","0.0-11.0-2.155","5ed7d4019c64e70c16dc327a","v2o6hc","HC","28","F","{""name"":""Chrome"",""chrome"":true,""version"":""106.0"",""blink"":true,""windows"":true,""osname"":""Windows"",""osversion"":""10"",""a"":true}","9:23:6","1","3","Test_3","74","f","0","248.10000014305115","1280 x 720","1280 x 720","true","1","0","","","","",""
"null","<p style=""font-size: 80px;"">+ 0 points</p>","null","html-keyboard-response","157","732913","0.0-11.0-2.156","5ed7d4019c64e70c16dc327a","v2o6hc","HC","28","F","{""name"":""Chrome"",""chrome"":true,""version"":""106.0"",""blink"":true,""windows"":true,""osname"":""Windows"",""osversion"":""10"",""a"":true}","9:23:6","1","3","Test_3","74","f","0","62.299999952316284","1280 x 720","1280 x 720","true","1","0","","","","",""
"null","<p style=""font-size: 80px;"">+ 0 points</p>","null","html-keyboard-response","158","735412","0.0-11.0-2.157","5ed7d4019c64e70c16dc327a","v2o6hc","HC","28","F","{""name"":""Chrome"",""chrome"":true,""version"":""106.0"",""blink"":true,""windows"":true,""osname"":""Windows"",""osversion"":""10"",""a"":true}","9:23:6","1","3","Test_1","74","f","0","474.09999990463257","1280 x 720","1280 x 720","true","1","0","","","","",""
"null","<p style=""font-size: 80px;"">+ 10 points</p>","null","html-keyboard-response","159","738529","0.0-11.0-2.158","5ed7d4019c64e70c16dc327a","v2o6hc","HC","28","F","{""name"":""Chrome"",""chrome"":true,""version"":""106.0"",""blink"":true,""windows"":true,""osname"":""Windows"",""osversion"":""10"",""a"":true}","9:23:6","1","3","Test_3","70","f","1","1083.8999998569489","1280 x 720","1280 x 720","true","1","10","","","","",""
"null","<p style=""font-size: 80px;"">+ 10 points</p>","null","html-keyboard-response","160","740947","0.0-11.0-2.159","5ed7d4019c64e70c16dc327a","v2o6hc","HC","28","F","{""name"":""Chrome"",""chrome"":true,""version"":""106.0"",""blink"":true,""windows"":true,""osname"":""Windows"",""osversion"":""10"",""a"":true}","9:23:6","1","3","Test_3","70","f","1","392","1280 x 720","1280 x 720","true","1","10","","","","",""
"null","<p style=""font-size: 80px;"">+ 10 points</p>","null","html-keyboard-response","161","743371","0.0-11.0-2.160","5ed7d4019c64e70c16dc327a","v2o6hc","HC","28","F","{""name"":""Chrome"",""chrome"":true,""version"":""106.0"",""blink"":true,""windows"":true,""osname"":""Windows"",""osversion"":""10"",""a"":true}","9:23:6","1","3","Test_3","70","f","1","390","1280 x 720","1280 x 720","true","1","10","","","","",""
"null","<p style=""font-size: 80px;"">+ 10 points</p>","null","html-keyboard-response","162","745843","0.0-11.0-2.161","5ed7d4019c64e70c16dc327a","v2o6hc","HC","28","F","{""name"":""Chrome"",""chrome"":true,""version"":""106.0"",""blink"":true,""windows"":true,""osname"":""Windows"",""osversion"":""10"",""a"":true}","9:23:6","1","3","Test_4","74","j","1","431.5","1280 x 720","1280 x 720","true","1","10","","","","",""
"null","<p style=""font-size: 80px;"">+ 10 points</p>","null","html-keyboard-response","163","748006","0.0-11.0-2.162","5ed7d4019c64e70c16dc327a","v2o6hc","HC","28","F","{""name"":""Chrome"",""chrome"":true,""version"":""106.0"",""blink"":true,""windows"":true,""osname"":""Windows"",""osversion"":""10"",""a"":true}","9:23:6","1","3","Test_4","74","j","1","132.10000014305115","1280 x 720","1280 x 720","true","1","10","","","","",""
"null","<p style=""font-size: 80px;"">+ 0 points</p>","null","html-keyboard-response","164","750237","0.0-11.0-2.163","5ed7d4019c64e70c16dc327a","v2o6hc","HC","28","F","{""name"":""Chrome"",""chrome"":true,""version"":""106.0"",""blink"":true,""windows"":true,""osname"":""Windows"",""osversion"":""10"",""a"":true}","9:23:6","1","3","Test_1","74","f","0","205.90000009536743","1280 x 720","1280 x 720","true","1","0","","","","",""
"null","<p style=""font-size: 80px;"">+ 0 points</p>","null","html-keyboard-response","165","752726","0.0-11.0-2.164","5ed7d4019c64e70c16dc327a","v2o6hc","HC","28","F","{""name"":""Chrome"",""chrome"":true,""version"":""106.0"",""blink"":true,""windows"":true,""osname"":""Windows"",""osversion"":""10"",""a"":true}","9:23:6","1","3","Test_1","74","f","0","455.7000000476837","1280 x 720","1280 x 720","true","1","0","","","","",""
"null","<p style=""font-size: 80px;"">+ 0 points</p>","null","html-keyboard-response","166","754964","0.0-11.0-2.165","5ed7d4019c64e70c16dc327a","v2o6hc","HC","28","F","{""name"":""Chrome"",""chrome"":true,""version"":""106.0"",""blink"":true,""windows"":true,""osname"":""Windows"",""osversion"":""10"",""a"":true}","9:23:6","1","3","Test_1","74","f","0","228","1280 x 720","1280 x 720","true","1","0","","","","",""
"null","<p style=""font-size: 80px;"">+ 10 points</p>","null","html-keyboard-response","167","757574","0.0-11.0-2.166","5ed7d4019c64e70c16dc327a","v2o6hc","HC","28","F","{""name"":""Chrome"",""chrome"":true,""version"":""106.0"",""blink"":true,""windows"":true,""osname"":""Windows"",""osversion"":""10"",""a"":true}","9:23:6","1","3","Test_4","74","j","1","578.9000000953674","1280 x 720","1280 x 720","true","1","10","","","","",""
"null","<p style=""font-size: 80px;"">+ 0 points</p>","null","html-keyboard-response","168","759849","0.0-11.0-2.167","5ed7d4019c64e70c16dc327a","v2o6hc","HC","28","F","{""name"":""Chrome"",""chrome"":true,""version"":""106.0"",""blink"":true,""windows"":true,""osname"":""Windows"",""osversion"":""10"",""a"":true}","9:23:6","1","3","Test_2","70","j","0","247.5","1280 x 720","1280 x 720","true","1","0","","","","",""
"null","<p style=""font-size: 80px;"">+ 10 points</p>","null","html-keyboard-response","169","762472","0.0-11.0-2.168","5ed7d4019c64e70c16dc327a","v2o6hc","HC","28","F","{""name"":""Chrome"",""chrome"":true,""version"":""106.0"",""blink"":true,""windows"":true,""osname"":""Windows"",""osversion"":""10"",""a"":true}","9:23:6","1","3","Test_2","74","j","1","594.2000000476837","1280 x 720","1280 x 720","true","1","10","","","","",""
"null","<p style=""font-size: 80px;"">+ 10 points</p>","null","html-keyboard-response","170","765421","0.0-11.0-2.169","5ed7d4019c64e70c16dc327a","v2o6hc","HC","28","F","{""name"":""Chrome"",""chrome"":true,""version"":""106.0"",""blink"":true,""windows"":true,""osname"":""Windows"",""osversion"":""10"",""a"":true}","9:23:6","1","3","Test_2","74","j","1","921.1000001430511","1280 x 720","1280 x 720","true","1","10","","","","",""
"null","<p style=""font-size: 80px;"">+ 0 points</p>","null","html-keyboard-response","171","768501","0.0-11.0-2.170","5ed7d4019c64e70c16dc327a","v2o6hc","HC","28","F","{""name"":""Chrome"",""chrome"":true,""version"":""106.0"",""blink"":true,""windows"":true,""osname"":""Windows"",""osversion"":""10"",""a"":true}","9:23:6","1","4","Test_3","70","j","0","1052.9000000953674","1280 x 720","1280 x 720","true","1","0","","","","",""
"null","<p style=""font-size: 80px;"">+ 10 points</p>","null","html-keyboard-response","172","771233","0.0-11.0-2.171","5ed7d4019c64e70c16dc327a","v2o6hc","HC","28","F","{""name"":""Chrome"",""chrome"":true,""version"":""106.0"",""blink"":true,""windows"":true,""osname"":""Windows"",""osversion"":""10"",""a"":true}","9:23:6","1","4","Test_2","70","f","1","713.7000000476837","1280 x 720","1280 x 720","true","1","10","","","","",""
"null","<p style=""font-size: 80px;"">+ 10 points</p>","null","html-keyboard-response","173","773680","0.0-11.0-2.172","5ed7d4019c64e70c16dc327a","v2o6hc","HC","28","F","{""name"":""Chrome"",""chrome"":true,""version"":""106.0"",""blink"":true,""windows"":true,""osname"":""Windows"",""osversion"":""10"",""a"":true}","9:23:6","1","4","Test_1","74","j","1","422.7000000476837","1280 x 720","1280 x 720","true","1","10","","","","",""
"null","<p style=""font-size: 80px;"">+ 10 points</p>","null","html-keyboard-response","174","776358","0.0-11.0-2.173","5ed7d4019c64e70c16dc327a","v2o6hc","HC","28","F","{""name"":""Chrome"",""chrome"":true,""version"":""106.0"",""blink"":true,""windows"":true,""osname"":""Windows"",""osversion"":""10"",""a"":true}","9:23:6","1","4","Test_1","74","j","1","649.1999998092651","1280 x 720","1280 x 720","true","1","10","","","","",""
"null","<p style=""font-size: 80px;"">+ 10 points</p>","null","html-keyboard-response","175","778946","0.0-11.0-2.174","5ed7d4019c64e70c16dc327a","v2o6hc","HC","28","F","{""name"":""Chrome"",""chrome"":true,""version"":""106.0"",""blink"":true,""windows"":true,""osname"":""Windows"",""osversion"":""10"",""a"":true}","9:23:6","1","4","Test_3","74","j","1","574.3000001907349","1280 x 720","1280 x 720","true","1","10","","","","",""
"null","<p style=""font-size: 80px;"">+ 10 points</p>","null","html-keyboard-response","176","781852","0.0-11.0-2.175","5ed7d4019c64e70c16dc327a","v2o6hc","HC","28","F","{""name"":""Chrome"",""chrome"":true,""version"":""106.0"",""blink"":true,""windows"":true,""osname"":""Windows"",""osversion"":""10"",""a"":true}","9:23:6","1","4","Test_2","70","f","1","889","1280 x 720","1280 x 720","true","1","10","","","","",""
"null","<p style=""font-size: 80px;"">+ 0 points</p>","null","html-keyboard-response","177","784991","0.0-11.0-2.176","5ed7d4019c64e70c16dc327a","v2o6hc","HC","28","F","{""name"":""Chrome"",""chrome"":true,""version"":""106.0"",""blink"":true,""windows"":true,""osname"":""Windows"",""osversion"":""10"",""a"":true}","9:23:6","1","4","Test_2","74","f","0","1099.2000000476837","1280 x 720","1280 x 720","true","1","0","","","","",""
"null","<p style=""font-size: 80px;"">+ 10 points</p>","null","html-keyboard-response","178","788151","0.0-11.0-2.177","5ed7d4019c64e70c16dc327a","v2o6hc","HC","28","F","{""name"":""Chrome"",""chrome"":true,""version"":""106.0"",""blink"":true,""windows"":true,""osname"":""Windows"",""osversion"":""10"",""a"":true}","9:23:6","1","4","Test_4","70","f","1","1130.0999999046326","1280 x 720","1280 x 720","true","1","10","","","","",""
"null","<p style=""font-size: 80px;"">+ 10 points</p>","null","html-keyboard-response","179","791084","0.0-11.0-2.178","5ed7d4019c64e70c16dc327a","v2o6hc","HC","28","F","{""name"":""Chrome"",""chrome"":true,""version"":""106.0"",""blink"":true,""windows"":true,""osname"":""Windows"",""osversion"":""10"",""a"":true}","9:23:6","1","4","Test_3","74","j","1","903.7999999523163","1280 x 720","1280 x 720","true","1","10","","","","",""
"null","<p style=""font-size: 80px;"">+ 10 points</p>","null","html-keyboard-response","180","793717","0.0-11.0-2.179","5ed7d4019c64e70c16dc327a","v2o6hc","HC","28","F","{""name"":""Chrome"",""chrome"":true,""version"":""106.0"",""blink"":true,""windows"":true,""osname"":""Windows"",""osversion"":""10"",""a"":true}","9:23:6","1","4","Test_1","74","j","1","621.6000001430511","1280 x 720","1280 x 720","true","1","10","","","","",""
"null","<p style=""font-size: 80px;"">+ 10 points</p>","null","html-keyboard-response","181","797001","0.0-11.0-2.180","5ed7d4019c64e70c16dc327a","v2o6hc","HC","28","F","{""name"":""Chrome"",""chrome"":true,""version"":""106.0"",""blink"":true,""windows"":true,""osname"":""Windows"",""osversion"":""10"",""a"":true}","9:23:6","1","4","Test_4","70","f","1","1267.2000000476837","1280 x 720","1280 x 720","true","1","10","","","","",""
"null","<p style=""font-size: 80px;"">+ 10 points</p>","null","html-keyboard-response","182","800844","0.0-11.0-2.181","5ed7d4019c64e70c16dc327a","v2o6hc","HC","28","F","{""name"":""Chrome"",""chrome"":true,""version"":""106.0"",""blink"":true,""windows"":true,""osname"":""Windows"",""osversion"":""10"",""a"":true}","9:23:6","1","4","Test_3","74","j","1","1826.7999999523163","1280 x 720","1280 x 720","true","1","10","","","","",""
"null","<p style=""font-size: 80px;"">+ 10 points</p>","null","html-keyboard-response","183","803756","0.0-11.0-2.182","5ed7d4019c64e70c16dc327a","v2o6hc","HC","28","F","{""name"":""Chrome"",""chrome"":true,""version"":""106.0"",""blink"":true,""windows"":true,""osname"":""Windows"",""osversion"":""10"",""a"":true}","9:23:6","1","4","Test_2","70","f","1","890.7000000476837","1280 x 720","1280 x 720","true","1","10","","","","",""
"null","<p style=""font-size: 80px;"">+ 10 points</p>","null","html-keyboard-response","184","806243","0.0-11.0-2.183","5ed7d4019c64e70c16dc327a","v2o6hc","HC","28","F","{""name"":""Chrome"",""chrome"":true,""version"":""106.0"",""blink"":true,""windows"":true,""osname"":""Windows"",""osversion"":""10"",""a"":true}","9:23:6","1","4","Test_4","70","f","1","459","1280 x 720","1280 x 720","true","1","10","","","","",""
"null","<p style=""font-size: 80px;"">+ 10 points</p>","null","html-keyboard-response","185","808819","0.0-11.0-2.184","5ed7d4019c64e70c16dc327a","v2o6hc","HC","28","F","{""name"":""Chrome"",""chrome"":true,""version"":""106.0"",""blink"":true,""windows"":true,""osname"":""Windows"",""osversion"":""10"",""a"":true}","9:23:6","1","4","Test_4","70","f","1","545.2999999523163","1280 x 720","1280 x 720","true","1","10","","","","",""
"null","<p style=""font-size: 80px;"">+ 10 points</p>","null","html-keyboard-response","186","811536","0.0-11.0-2.185","5ed7d4019c64e70c16dc327a","v2o6hc","HC","28","F","{""name"":""Chrome"",""chrome"":true,""version"":""106.0"",""blink"":true,""windows"":true,""osname"":""Windows"",""osversion"":""10"",""a"":true}","9:23:6","1","4","Test_1","74","j","1","704.5","1280 x 720","1280 x 720","true","1","10","","","","",""
"null","<p style=""font-size: 80px;"">+ 10 points</p>","null","html-keyboard-response","187","814389","0.0-11.0-2.186","5ed7d4019c64e70c16dc327a","v2o6hc","HC","28","F","{""name"":""Chrome"",""chrome"":true,""version"":""106.0"",""blink"":true,""windows"":true,""osname"":""Windows"",""osversion"":""10"",""a"":true}","9:23:6","1","4","Test_2","70","f","1","820","1280 x 720","1280 x 720","true","1","10","","","","",""
"null","<p style=""font-size: 80px;"">+ 10 points</p>","null","html-keyboard-response","188","816643","0.0-11.0-2.187","5ed7d4019c64e70c16dc327a","v2o6hc","HC","28","F","{""name"":""Chrome"",""chrome"":true,""version"":""106.0"",""blink"":true,""windows"":true,""osname"":""Windows"",""osversion"":""10"",""a"":true}","9:23:6","1","4","Test_2","70","f","1","241.39999985694885","1280 x 720","1280 x 720","true","1","10","","","","",""
"null","<p style=""font-size: 80px;"">+ 0 points</p>","null","html-keyboard-response","189","818923","0.0-11.0-2.188","5ed7d4019c64e70c16dc327a","v2o6hc","HC","28","F","{""name"":""Chrome"",""chrome"":true,""version"":""106.0"",""blink"":true,""windows"":true,""osname"":""Windows"",""osversion"":""10"",""a"":true}","9:23:6","1","4","Test_3","70","j","0","263","1280 x 720","1280 x 720","true","1","0","","","","",""
"null","<p style=""font-size: 80px;"">+ 10 points</p>","null","html-keyboard-response","190","821393","0.0-11.0-2.189","5ed7d4019c64e70c16dc327a","v2o6hc","HC","28","F","{""name"":""Chrome"",""chrome"":true,""version"":""106.0"",""blink"":true,""windows"":true,""osname"":""Windows"",""osversion"":""10"",""a"":true}","9:23:6","1","4","Test_3","74","j","1","455","1280 x 720","1280 x 720","true","1","10","","","","",""
