"rt","stimulus","key_press","trial_type","trial_index","time_elapsed","internal_node_id","Prolific_ID","random_ID","initials","age","gender","pc_info","start_time","Phase","Rule","Stimulus","Response","CorrResp","Accuracy","ResponseTime","screen_resolution","window_resolution","focus","relevant","Points","responses","question_order","rev_check","butterfly_check","passed_practice"
"null","<p style=""font-size: 80px;"">+ 0 points</p>","null","html-keyboard-response","1","124244","0.0-7.0-2.0","6130a32cd30a251765045601","fbrb3h","JK","65","F","{""name"":""Chrome"",""chrome"":true,""version"":""106.0"",""blink"":true,""mac"":true,""osname"":""macOS"",""osversion"":""10.15.7"",""a"":true}","9:22:12","0","1","Practice_2","70","j","0","1347.0999999642372","1792 x 1120","1792 x 1120","true","1","0","","","","",""
"null","<p style=""font-size: 80px;"">+ 0 points</p>","null","html-keyboard-response","2","127071","0.0-7.0-2.1","6130a32cd30a251765045601","fbrb3h","JK","65","F","{""name"":""Chrome"",""chrome"":true,""version"":""106.0"",""blink"":true,""mac"":true,""osname"":""macOS"",""osversion"":""10.15.7"",""a"":true}","9:22:12","0","1","Practice_1","74","f","0","819.5","1792 x 1120","1792 x 1120","true","1","0","","","","",""
"null","<p style=""font-size: 80px;"">+ 0 points</p>","null","html-keyboard-response","3","129844","0.0-7.0-2.2","6130a32cd30a251765045601","fbrb3h","JK","65","F","{""name"":""Chrome"",""chrome"":true,""version"":""106.0"",""blink"":true,""mac"":true,""osname"":""macOS"",""osversion"":""10.15.7"",""a"":true}","9:22:12","0","1","Practice_4","70","j","0","767","1792 x 1120","1792 x 1120","true","1","0","","","","",""
"null","<p style=""font-size: 80px;"">+ 0 points</p>","null","html-keyboard-response","4","133018","0.0-7.0-2.3","6130a32cd30a251765045601","fbrb3h","JK","65","F","{""name"":""Chrome"",""chrome"":true,""version"":""106.0"",""blink"":true,""mac"":true,""osname"":""macOS"",""osversion"":""10.15.7"",""a"":true}","9:22:12","0","1","Practice_4","70","j","0","1164.800000011921","1792 x 1120","1792 x 1120","true","1","0","","","","",""
"null","<p style=""font-size: 80px;"">+ 10 points</p>","null","html-keyboard-response","5","136079","0.0-7.0-2.4","6130a32cd30a251765045601","fbrb3h","JK","65","F","{""name"":""Chrome"",""chrome"":true,""version"":""106.0"",""blink"":true,""mac"":true,""osname"":""macOS"",""osversion"":""10.15.7"",""a"":true}","9:22:12","0","1","Practice_2","74","j","1","1053.199999988079","1792 x 1120","1792 x 1120","true","1","10","","","","",""
"null","<p style=""font-size: 80px;"">+ 0 points</p>","null","html-keyboard-response","6","139081","0.0-7.0-2.5","6130a32cd30a251765045601","fbrb3h","JK","65","F","{""name"":""Chrome"",""chrome"":true,""version"":""106.0"",""blink"":true,""mac"":true,""osname"":""macOS"",""osversion"":""10.15.7"",""a"":true}","9:22:12","0","1","Practice_4","70","j","0","997.0999999642372","1792 x 1120","1792 x 1120","true","1","0","","","","",""
"null","<p style=""font-size: 80px;"">+ 10 points</p>","null","html-keyboard-response","7","141711","0.0-7.0-2.6","6130a32cd30a251765045601","fbrb3h","JK","65","F","{""name"":""Chrome"",""chrome"":true,""version"":""106.0"",""blink"":true,""mac"":true,""osname"":""macOS"",""osversion"":""10.15.7"",""a"":true}","9:22:12","0","1","Practice_2","74","j","1","623.1000000238419","1792 x 1120","1792 x 1120","true","1","10","","","","",""
"null","<p style=""font-size: 80px;"">+ 0 points</p>","null","html-keyboard-response","8","144410","0.0-7.0-2.7","6130a32cd30a251765045601","fbrb3h","JK","65","F","{""name"":""Chrome"",""chrome"":true,""version"":""106.0"",""blink"":true,""mac"":true,""osname"":""macOS"",""osversion"":""10.15.7"",""a"":true}","9:22:12","0","1","Practice_1","74","f","0","689.3000000119209","1792 x 1120","1792 x 1120","true","1","0","","","","",""
"null","<p style=""font-size: 80px;"">+ 10 points</p>","null","html-keyboard-response","9","147069","0.0-7.0-2.8","6130a32cd30a251765045601","fbrb3h","JK","65","F","{""name"":""Chrome"",""chrome"":true,""version"":""106.0"",""blink"":true,""mac"":true,""osname"":""macOS"",""osversion"":""10.15.7"",""a"":true}","9:22:12","0","1","Practice_3","70","f","1","652.5","1792 x 1120","1792 x 1120","true","1","10","","","","",""
"null","<p style=""font-size: 80px;"">+ 0 points</p>","null","html-keyboard-response","10","150031","0.0-7.0-2.9","6130a32cd30a251765045601","fbrb3h","JK","65","F","{""name"":""Chrome"",""chrome"":true,""version"":""106.0"",""blink"":true,""mac"":true,""osname"":""macOS"",""osversion"":""10.15.7"",""a"":true}","9:22:12","0","1","Practice_1","74","f","0","953","1792 x 1120","1792 x 1120","true","1","0","","","","",""
"null","<p style=""font-size: 80px;"">+ 10 points</p>","null","html-keyboard-response","11","152767","0.0-7.0-2.10","6130a32cd30a251765045601","fbrb3h","JK","65","F","{""name"":""Chrome"",""chrome"":true,""version"":""106.0"",""blink"":true,""mac"":true,""osname"":""macOS"",""osversion"":""10.15.7"",""a"":true}","9:22:12","0","1","Practice_3","70","f","1","730.1000000238419","1792 x 1120","1792 x 1120","true","1","10","","","","",""
"null","<p style=""font-size: 80px;"">+ 0 points</p>","null","html-keyboard-response","12","155503","0.0-7.0-2.11","6130a32cd30a251765045601","fbrb3h","JK","65","F","{""name"":""Chrome"",""chrome"":true,""version"":""106.0"",""blink"":true,""mac"":true,""osname"":""macOS"",""osversion"":""10.15.7"",""a"":true}","9:22:12","0","1","Practice_1","74","f","0","730.6000000238419","1792 x 1120","1792 x 1120","true","1","0","","","","",""
"null","<p style=""font-size: 80px;"">+ 0 points</p>","null","html-keyboard-response","13","158330","0.0-7.0-2.12","6130a32cd30a251765045601","fbrb3h","JK","65","F","{""name"":""Chrome"",""chrome"":true,""version"":""106.0"",""blink"":true,""mac"":true,""osname"":""macOS"",""osversion"":""10.15.7"",""a"":true}","9:22:12","0","1","Practice_4","70","j","0","818.1999999880791","1792 x 1120","1792 x 1120","true","1","0","","","","",""
"null","<p style=""font-size: 80px;"">+ 0 points</p>","null","html-keyboard-response","14","161002","0.0-7.0-2.13","6130a32cd30a251765045601","fbrb3h","JK","65","F","{""name"":""Chrome"",""chrome"":true,""version"":""106.0"",""blink"":true,""mac"":true,""osname"":""macOS"",""osversion"":""10.15.7"",""a"":true}","9:22:12","0","1","Practice_3","74","f","0","664.6999999880791","1792 x 1120","1792 x 1120","true","1","0","","","","",""
"null","<p style=""font-size: 80px;"">+ 10 points</p>","null","html-keyboard-response","15","163824","0.0-7.0-2.14","6130a32cd30a251765045601","fbrb3h","JK","65","F","{""name"":""Chrome"",""chrome"":true,""version"":""106.0"",""blink"":true,""mac"":true,""osname"":""macOS"",""osversion"":""10.15.7"",""a"":true}","9:22:12","0","1","Practice_3","70","f","1","813.1999999880791","1792 x 1120","1792 x 1120","true","1","10","","","","",""
"null","<p style=""font-size: 80px;"">+ 10 points</p>","null","html-keyboard-response","16","166516","0.0-7.0-2.15","6130a32cd30a251765045601","fbrb3h","JK","65","F","{""name"":""Chrome"",""chrome"":true,""version"":""106.0"",""blink"":true,""mac"":true,""osname"":""macOS"",""osversion"":""10.15.7"",""a"":true}","9:22:12","0","1","Practice_3","70","f","1","682.1999999880791","1792 x 1120","1792 x 1120","true","1","10","","","","",""
"null","<p style=""font-size: 80px;"">+ 0 points</p>","null","html-keyboard-response","17","169093","0.0-7.0-2.16","6130a32cd30a251765045601","fbrb3h","JK","65","F","{""name"":""Chrome"",""chrome"":true,""version"":""106.0"",""blink"":true,""mac"":true,""osname"":""macOS"",""osversion"":""10.15.7"",""a"":true}","9:22:12","0","1","Practice_4","70","j","0","566.6000000238419","1792 x 1120","1792 x 1120","true","1","0","","","","",""
"null","<p style=""font-size: 80px;"">+ 10 points</p>","null","html-keyboard-response","18","172138","0.0-7.0-2.17","6130a32cd30a251765045601","fbrb3h","JK","65","F","{""name"":""Chrome"",""chrome"":true,""version"":""106.0"",""blink"":true,""mac"":true,""osname"":""macOS"",""osversion"":""10.15.7"",""a"":true}","9:22:12","0","1","Practice_2","74","j","1","1040.3999999761581","1792 x 1120","1792 x 1120","true","1","10","","","","",""
"null","<p style=""font-size: 80px;"">+ 0 points</p>","null","html-keyboard-response","19","174747","0.0-7.0-2.18","6130a32cd30a251765045601","fbrb3h","JK","65","F","{""name"":""Chrome"",""chrome"":true,""version"":""106.0"",""blink"":true,""mac"":true,""osname"":""macOS"",""osversion"":""10.15.7"",""a"":true}","9:22:12","0","1","Practice_1","74","f","0","600.6999999880791","1792 x 1120","1792 x 1120","true","1","0","","","","",""
"null","<p style=""font-size: 80px;"">+ 0 points</p>","null","html-keyboard-response","20","177827","0.0-7.0-2.19","6130a32cd30a251765045601","fbrb3h","JK","65","F","{""name"":""Chrome"",""chrome"":true,""version"":""106.0"",""blink"":true,""mac"":true,""osname"":""macOS"",""osversion"":""10.15.7"",""a"":true}","9:22:12","0","1","Practice_2","70","j","0","1072.7999999523163","1792 x 1120","1792 x 1120","true","1","0","","","","",""
"null","<p style=""font-size: 80px;"">+ 0 points</p>","null","html-keyboard-response","21","181019","0.0-7.0-2.20","6130a32cd30a251765045601","fbrb3h","JK","65","F","{""name"":""Chrome"",""chrome"":true,""version"":""106.0"",""blink"":true,""mac"":true,""osname"":""macOS"",""osversion"":""10.15.7"",""a"":true}","9:22:12","0","2","Practice_2","74","f","0","1180.699999988079","1792 x 1120","1792 x 1120","true","1","0","","","","",""
"null","<p style=""font-size: 80px;"">+ 10 points</p>","null","html-keyboard-response","22","183723","0.0-7.0-2.21","6130a32cd30a251765045601","fbrb3h","JK","65","F","{""name"":""Chrome"",""chrome"":true,""version"":""106.0"",""blink"":true,""mac"":true,""osname"":""macOS"",""osversion"":""10.15.7"",""a"":true}","9:22:12","0","2","Practice_2","70","f","1","694.7999999523163","1792 x 1120","1792 x 1120","true","1","10","","","","",""
"null","<p style=""font-size: 80px;"">+ 0 points</p>","null","html-keyboard-response","23","186352","0.0-7.0-2.22","6130a32cd30a251765045601","fbrb3h","JK","65","F","{""name"":""Chrome"",""chrome"":true,""version"":""106.0"",""blink"":true,""mac"":true,""osname"":""macOS"",""osversion"":""10.15.7"",""a"":true}","9:22:12","0","2","Practice_1","70","j","0","623.1999999880791","1792 x 1120","1792 x 1120","true","1","0","","","","",""
"null","<p style=""font-size: 80px;"">+ 10 points</p>","null","html-keyboard-response","24","189050","0.0-7.0-2.23","6130a32cd30a251765045601","fbrb3h","JK","65","F","{""name"":""Chrome"",""chrome"":true,""version"":""106.0"",""blink"":true,""mac"":true,""osname"":""macOS"",""osversion"":""10.15.7"",""a"":true}","9:22:12","0","2","Practice_4","70","f","1","692.3000000119209","1792 x 1120","1792 x 1120","true","1","10","","","","",""
"null","<p style=""font-size: 80px;"">+ 0 points</p>","null","html-keyboard-response","25","191749","0.0-7.0-2.24","6130a32cd30a251765045601","fbrb3h","JK","65","F","{""name"":""Chrome"",""chrome"":true,""version"":""106.0"",""blink"":true,""mac"":true,""osname"":""macOS"",""osversion"":""10.15.7"",""a"":true}","9:22:12","0","2","Practice_3","70","j","0","689.6000000238419","1792 x 1120","1792 x 1120","true","1","0","","","","",""
"null","<p style=""font-size: 80px;"">+ 10 points</p>","null","html-keyboard-response","26","194692","0.0-7.0-2.25","6130a32cd30a251765045601","fbrb3h","JK","65","F","{""name"":""Chrome"",""chrome"":true,""version"":""106.0"",""blink"":true,""mac"":true,""osname"":""macOS"",""osversion"":""10.15.7"",""a"":true}","9:22:12","0","2","Practice_4","70","f","1","933.8999999761581","1792 x 1120","1792 x 1120","true","1","10","","","","",""
"null","<p style=""font-size: 80px;"">+ 10 points</p>","null","html-keyboard-response","27","197274","0.0-7.0-2.26","6130a32cd30a251765045601","fbrb3h","JK","65","F","{""name"":""Chrome"",""chrome"":true,""version"":""106.0"",""blink"":true,""mac"":true,""osname"":""macOS"",""osversion"":""10.15.7"",""a"":true}","9:22:12","0","2","Practice_3","74","j","1","575.5999999642372","1792 x 1120","1792 x 1120","true","1","10","","","","",""
"null","<p style=""font-size: 80px;"">+ 10 points</p>","null","html-keyboard-response","28","200170","0.0-7.0-2.27","6130a32cd30a251765045601","fbrb3h","JK","65","F","{""name"":""Chrome"",""chrome"":true,""version"":""106.0"",""blink"":true,""mac"":true,""osname"":""macOS"",""osversion"":""10.15.7"",""a"":true}","9:22:12","0","2","Practice_1","74","j","1","887.1999999880791","1792 x 1120","1792 x 1120","true","1","10","","","","",""
"null","<p style=""font-size: 80px;"">+ 10 points</p>","null","html-keyboard-response","29","202800","0.0-7.0-2.28","6130a32cd30a251765045601","fbrb3h","JK","65","F","{""name"":""Chrome"",""chrome"":true,""version"":""106.0"",""blink"":true,""mac"":true,""osname"":""macOS"",""osversion"":""10.15.7"",""a"":true}","9:22:12","0","2","Practice_2","70","f","1","624.8999999761581","1792 x 1120","1792 x 1120","true","1","10","","","","",""
"null","<p style=""font-size: 80px;"">+ 10 points</p>","null","html-keyboard-response","30","205604","0.0-7.0-2.29","6130a32cd30a251765045601","fbrb3h","JK","65","F","{""name"":""Chrome"",""chrome"":true,""version"":""106.0"",""blink"":true,""mac"":true,""osname"":""macOS"",""osversion"":""10.15.7"",""a"":true}","9:22:12","0","2","Practice_4","70","f","1","795.8999999761581","1792 x 1120","1792 x 1120","true","1","10","","","","",""
"null","<p style=""font-size: 80px;"">+ 10 points</p>","null","html-keyboard-response","31","208137","0.0-7.0-2.30","6130a32cd30a251765045601","fbrb3h","JK","65","F","{""name"":""Chrome"",""chrome"":true,""version"":""106.0"",""blink"":true,""mac"":true,""osname"":""macOS"",""osversion"":""10.15.7"",""a"":true}","9:22:12","0","2","Practice_1","74","j","1","523.8999999761581","1792 x 1120","1792 x 1120","true","1","10","","","","",""
"null","<p style=""font-size: 80px;"">+ 10 points</p>","null","html-keyboard-response","32","211149","0.0-7.0-2.31","6130a32cd30a251765045601","fbrb3h","JK","65","F","{""name"":""Chrome"",""chrome"":true,""version"":""106.0"",""blink"":true,""mac"":true,""osname"":""macOS"",""osversion"":""10.15.7"",""a"":true}","9:22:12","0","2","Practice_2","70","f","1","1001.8999999761581","1792 x 1120","1792 x 1120","true","1","10","","","","",""
"null","<p style=""font-size: 80px;"">+ 10 points</p>","null","html-keyboard-response","33","213744","0.0-7.0-2.32","6130a32cd30a251765045601","fbrb3h","JK","65","F","{""name"":""Chrome"",""chrome"":true,""version"":""106.0"",""blink"":true,""mac"":true,""osname"":""macOS"",""osversion"":""10.15.7"",""a"":true}","9:22:12","0","2","Practice_1","74","j","1","585.1999999880791","1792 x 1120","1792 x 1120","true","1","10","","","","",""
"null","<p style=""font-size: 80px;"">+ 10 points</p>","null","html-keyboard-response","34","216365","0.0-7.0-2.33","6130a32cd30a251765045601","fbrb3h","JK","65","F","{""name"":""Chrome"",""chrome"":true,""version"":""106.0"",""blink"":true,""mac"":true,""osname"":""macOS"",""osversion"":""10.15.7"",""a"":true}","9:22:12","0","2","Practice_2","70","f","1","614.3000000119209","1792 x 1120","1792 x 1120","true","1","10","","","","",""
"null","<p style=""font-size: 80px;"">+ 0 points</p>","null","html-keyboard-response","35","218966","0.0-7.0-2.34","6130a32cd30a251765045601","fbrb3h","JK","65","F","{""name"":""Chrome"",""chrome"":true,""version"":""106.0"",""blink"":true,""mac"":true,""osname"":""macOS"",""osversion"":""10.15.7"",""a"":true}","9:22:12","0","2","Practice_3","70","j","0","593.5999999642372","1792 x 1120","1792 x 1120","true","1","0","","","","",""
"null","<p style=""font-size: 80px;"">+ 10 points</p>","null","html-keyboard-response","36","221648","0.0-7.0-2.35","6130a32cd30a251765045601","fbrb3h","JK","65","F","{""name"":""Chrome"",""chrome"":true,""version"":""106.0"",""blink"":true,""mac"":true,""osname"":""macOS"",""osversion"":""10.15.7"",""a"":true}","9:22:12","0","2","Practice_3","74","j","1","675.8999999761581","1792 x 1120","1792 x 1120","true","1","10","","","","",""
"null","<p style=""font-size: 80px;"">+ 0 points</p>","null","html-keyboard-response","37","224123","0.0-7.0-2.36","6130a32cd30a251765045601","fbrb3h","JK","65","F","{""name"":""Chrome"",""chrome"":true,""version"":""106.0"",""blink"":true,""mac"":true,""osname"":""macOS"",""osversion"":""10.15.7"",""a"":true}","9:22:12","0","2","Practice_3","70","j","0","469.4000000357628","1792 x 1120","1792 x 1120","true","1","0","","","","",""
"null","<p style=""font-size: 80px;"">+ 10 points</p>","null","html-keyboard-response","38","226736","0.0-7.0-2.37","6130a32cd30a251765045601","fbrb3h","JK","65","F","{""name"":""Chrome"",""chrome"":true,""version"":""106.0"",""blink"":true,""mac"":true,""osname"":""macOS"",""osversion"":""10.15.7"",""a"":true}","9:22:12","0","2","Practice_1","74","j","1","608.8000000119209","1792 x 1120","1792 x 1120","true","1","10","","","","",""
"null","<p style=""font-size: 80px;"">+ 10 points</p>","null","html-keyboard-response","39","229616","0.0-7.0-2.38","6130a32cd30a251765045601","fbrb3h","JK","65","F","{""name"":""Chrome"",""chrome"":true,""version"":""106.0"",""blink"":true,""mac"":true,""osname"":""macOS"",""osversion"":""10.15.7"",""a"":true}","9:22:12","0","2","Practice_4","70","f","1","874.0999999642372","1792 x 1120","1792 x 1120","true","1","10","","","","",""
"null","<p style=""font-size: 80px;"">+ 0 points</p>","null","html-keyboard-response","40","232440","0.0-7.0-2.39","6130a32cd30a251765045601","fbrb3h","JK","65","F","{""name"":""Chrome"",""chrome"":true,""version"":""106.0"",""blink"":true,""mac"":true,""osname"":""macOS"",""osversion"":""10.15.7"",""a"":true}","9:22:12","0","2","Practice_4","74","f","0","817.4000000357628","1792 x 1120","1792 x 1120","true","1","0","","","","",""
"23579.69999998808","","","survey-multi-choice","127","256023","0.0-8.0","6130a32cd30a251765045601","fbrb3h","JK","65","F","{""name"":""Chrome"",""chrome"":true,""version"":""106.0"",""blink"":true,""mac"":true,""osname"":""macOS"",""osversion"":""10.15.7"",""a"":true}","9:22:12","","","","","","","","","","","1","","{""Q0"":""The green one"",""Q1"":""5""}","[0,1]","5","The green one","0"
"null","<p style=""font-size: 80px;"">+ 10 points</p>","null","html-keyboard-response","1","270849","0.0-9.0-1.0-2.0","6130a32cd30a251765045601","fbrb3h","JK","65","F","{""name"":""Chrome"",""chrome"":true,""version"":""106.0"",""blink"":true,""mac"":true,""osname"":""macOS"",""osversion"":""10.15.7"",""a"":true}","9:22:12","0","1","Practice_2","74","j","1","862.8999999761581","1792 x 1120","1792 x 1120","true","1","10","","","","",""
"null","<p style=""font-size: 80px;"">+ 10 points</p>","null","html-keyboard-response","2","274113","0.0-9.0-1.0-2.1","6130a32cd30a251765045601","fbrb3h","JK","65","F","{""name"":""Chrome"",""chrome"":true,""version"":""106.0"",""blink"":true,""mac"":true,""osname"":""macOS"",""osversion"":""10.15.7"",""a"":true}","9:22:12","0","1","Practice_1","70","f","1","1255.3999999761581","1792 x 1120","1792 x 1120","true","1","10","","","","",""
"null","<p style=""font-size: 80px;"">+ 0 points</p>","null","html-keyboard-response","3","277883","0.0-9.0-1.0-2.2","6130a32cd30a251765045601","fbrb3h","JK","65","F","{""name"":""Chrome"",""chrome"":true,""version"":""106.0"",""blink"":true,""mac"":true,""osname"":""macOS"",""osversion"":""10.15.7"",""a"":true}","9:22:12","0","1","Practice_4","70","j","0","1764.5","1792 x 1120","1792 x 1120","true","1","0","","","","",""
"null","<p style=""font-size: 80px;"">+ 10 points</p>","null","html-keyboard-response","4","281238","0.0-9.0-1.0-2.3","6130a32cd30a251765045601","fbrb3h","JK","65","F","{""name"":""Chrome"",""chrome"":true,""version"":""106.0"",""blink"":true,""mac"":true,""osname"":""macOS"",""osversion"":""10.15.7"",""a"":true}","9:22:12","0","1","Practice_4","74","j","1","1347.5","1792 x 1120","1792 x 1120","true","1","10","","","","",""
"null","<p style=""font-size: 80px;"">+ 0 points</p>","null","html-keyboard-response","5","284556","0.0-9.0-1.0-2.4","6130a32cd30a251765045601","fbrb3h","JK","65","F","{""name"":""Chrome"",""chrome"":true,""version"":""106.0"",""blink"":true,""mac"":true,""osname"":""macOS"",""osversion"":""10.15.7"",""a"":true}","9:22:12","0","1","Practice_2","70","j","0","1310.0999999642372","1792 x 1120","1792 x 1120","true","1","0","","","","",""
"null","<p style=""font-size: 80px;"">+ 10 points</p>","null","html-keyboard-response","6","287606","0.0-9.0-1.0-2.5","6130a32cd30a251765045601","fbrb3h","JK","65","F","{""name"":""Chrome"",""chrome"":true,""version"":""106.0"",""blink"":true,""mac"":true,""osname"":""macOS"",""osversion"":""10.15.7"",""a"":true}","9:22:12","0","1","Practice_4","74","j","1","1042.300000011921","1792 x 1120","1792 x 1120","true","1","10","","","","",""
"null","<p style=""font-size: 80px;"">+ 0 points</p>","null","html-keyboard-response","7","291014","0.0-9.0-1.0-2.6","6130a32cd30a251765045601","fbrb3h","JK","65","F","{""name"":""Chrome"",""chrome"":true,""version"":""106.0"",""blink"":true,""mac"":true,""osname"":""macOS"",""osversion"":""10.15.7"",""a"":true}","9:22:12","0","1","Practice_2","70","j","0","1400.699999988079","1792 x 1120","1792 x 1120","true","1","0","","","","",""
"null","<p style=""font-size: 80px;"">+ 10 points</p>","null","html-keyboard-response","8","294407","0.0-9.0-1.0-2.7","6130a32cd30a251765045601","fbrb3h","JK","65","F","{""name"":""Chrome"",""chrome"":true,""version"":""106.0"",""blink"":true,""mac"":true,""osname"":""macOS"",""osversion"":""10.15.7"",""a"":true}","9:22:12","0","1","Practice_1","70","f","1","1386.800000011921","1792 x 1120","1792 x 1120","true","1","10","","","","",""
"null","<p style=""font-size: 80px;"">+ 10 points</p>","null","html-keyboard-response","9","297575","0.0-9.0-1.0-2.8","6130a32cd30a251765045601","fbrb3h","JK","65","F","{""name"":""Chrome"",""chrome"":true,""version"":""106.0"",""blink"":true,""mac"":true,""osname"":""macOS"",""osversion"":""10.15.7"",""a"":true}","9:22:12","0","1","Practice_3","70","f","1","1161.5","1792 x 1120","1792 x 1120","true","1","10","","","","",""
"null","<p style=""font-size: 80px;"">+ 10 points</p>","null","html-keyboard-response","10","301282","0.0-9.0-1.0-2.9","6130a32cd30a251765045601","fbrb3h","JK","65","F","{""name"":""Chrome"",""chrome"":true,""version"":""106.0"",""blink"":true,""mac"":true,""osname"":""macOS"",""osversion"":""10.15.7"",""a"":true}","9:22:12","0","1","Practice_1","70","f","1","1701.0999999642372","1792 x 1120","1792 x 1120","true","1","10","","","","",""
"null","<p style=""font-size: 80px;"">+ 0 points</p>","null","html-keyboard-response","11","305708","0.0-9.0-1.0-2.10","6130a32cd30a251765045601","fbrb3h","JK","65","F","{""name"":""Chrome"",""chrome"":true,""version"":""106.0"",""blink"":true,""mac"":true,""osname"":""macOS"",""osversion"":""10.15.7"",""a"":true}","9:22:12","0","1","Practice_3","74","f","0","2421.900000035763","1792 x 1120","1792 x 1120","true","1","0","","","","",""
"null","<p style=""font-size: 80px;"">+ 10 points</p>","null","html-keyboard-response","12","308700","0.0-9.0-1.0-2.11","6130a32cd30a251765045601","fbrb3h","JK","65","F","{""name"":""Chrome"",""chrome"":true,""version"":""106.0"",""blink"":true,""mac"":true,""osname"":""macOS"",""osversion"":""10.15.7"",""a"":true}","9:22:12","0","1","Practice_1","70","f","1","983.1000000238419","1792 x 1120","1792 x 1120","true","1","10","","","","",""
"null","<p style=""font-size: 80px;"">+ 10 points</p>","null","html-keyboard-response","13","311890","0.0-9.0-1.0-2.12","6130a32cd30a251765045601","fbrb3h","JK","65","F","{""name"":""Chrome"",""chrome"":true,""version"":""106.0"",""blink"":true,""mac"":true,""osname"":""macOS"",""osversion"":""10.15.7"",""a"":true}","9:22:12","0","1","Practice_4","74","j","1","1180.199999988079","1792 x 1120","1792 x 1120","true","1","10","","","","",""
"null","<p style=""font-size: 80px;"">+ 10 points</p>","null","html-keyboard-response","14","315530","0.0-9.0-1.0-2.13","6130a32cd30a251765045601","fbrb3h","JK","65","F","{""name"":""Chrome"",""chrome"":true,""version"":""106.0"",""blink"":true,""mac"":true,""osname"":""macOS"",""osversion"":""10.15.7"",""a"":true}","9:22:12","0","1","Practice_3","70","f","1","1632.9000000357628","1792 x 1120","1792 x 1120","true","1","10","","","","",""
"null","<p style=""font-size: 80px;"">+ 10 points</p>","null","html-keyboard-response","15","318471","0.0-9.0-1.0-2.14","6130a32cd30a251765045601","fbrb3h","JK","65","F","{""name"":""Chrome"",""chrome"":true,""version"":""106.0"",""blink"":true,""mac"":true,""osname"":""macOS"",""osversion"":""10.15.7"",""a"":true}","9:22:12","0","1","Practice_3","70","f","1","934.4000000357628","1792 x 1120","1792 x 1120","true","1","10","","","","",""
"null","<p style=""font-size: 80px;"">+ 10 points</p>","null","html-keyboard-response","16","321101","0.0-9.0-1.0-2.15","6130a32cd30a251765045601","fbrb3h","JK","65","F","{""name"":""Chrome"",""chrome"":true,""version"":""106.0"",""blink"":true,""mac"":true,""osname"":""macOS"",""osversion"":""10.15.7"",""a"":true}","9:22:12","0","1","Practice_3","70","f","1","624.5","1792 x 1120","1792 x 1120","true","1","10","","","","",""
"null","<p style=""font-size: 80px;"">+ 10 points</p>","null","html-keyboard-response","17","324252","0.0-9.0-1.0-2.16","6130a32cd30a251765045601","fbrb3h","JK","65","F","{""name"":""Chrome"",""chrome"":true,""version"":""106.0"",""blink"":true,""mac"":true,""osname"":""macOS"",""osversion"":""10.15.7"",""a"":true}","9:22:12","0","1","Practice_4","74","j","1","1142.6000000238419","1792 x 1120","1792 x 1120","true","1","10","","","","",""
"null","<p style=""font-size: 80px;"">+ 10 points</p>","null","html-keyboard-response","18","328674","0.0-9.0-1.0-2.17","6130a32cd30a251765045601","fbrb3h","JK","65","F","{""name"":""Chrome"",""chrome"":true,""version"":""106.0"",""blink"":true,""mac"":true,""osname"":""macOS"",""osversion"":""10.15.7"",""a"":true}","9:22:12","0","1","Practice_2","74","j","1","2412.099999964237","1792 x 1120","1792 x 1120","true","1","10","","","","",""
"null","<p style=""font-size: 80px;"">+ 10 points</p>","null","html-keyboard-response","19","331538","0.0-9.0-1.0-2.18","6130a32cd30a251765045601","fbrb3h","JK","65","F","{""name"":""Chrome"",""chrome"":true,""version"":""106.0"",""blink"":true,""mac"":true,""osname"":""macOS"",""osversion"":""10.15.7"",""a"":true}","9:22:12","0","1","Practice_1","70","f","1","858.4000000357628","1792 x 1120","1792 x 1120","true","1","10","","","","",""
"null","<p style=""font-size: 80px;"">+ 10 points</p>","null","html-keyboard-response","20","334786","0.0-9.0-1.0-2.19","6130a32cd30a251765045601","fbrb3h","JK","65","F","{""name"":""Chrome"",""chrome"":true,""version"":""106.0"",""blink"":true,""mac"":true,""osname"":""macOS"",""osversion"":""10.15.7"",""a"":true}","9:22:12","0","1","Practice_2","74","j","1","1238.5","1792 x 1120","1792 x 1120","true","1","10","","","","",""
"null","<p style=""font-size: 80px;"">+ 0 points</p>","null","html-keyboard-response","21","337741","0.0-9.0-1.0-2.20","6130a32cd30a251765045601","fbrb3h","JK","65","F","{""name"":""Chrome"",""chrome"":true,""version"":""106.0"",""blink"":true,""mac"":true,""osname"":""macOS"",""osversion"":""10.15.7"",""a"":true}","9:22:12","0","2","Practice_2","74","f","0","947.6000000238419","1792 x 1120","1792 x 1120","true","1","0","","","","",""
"null","<p style=""font-size: 80px;"">+ 0 points</p>","null","html-keyboard-response","22","340786","0.0-9.0-1.0-2.21","6130a32cd30a251765045601","fbrb3h","JK","65","F","{""name"":""Chrome"",""chrome"":true,""version"":""106.0"",""blink"":true,""mac"":true,""osname"":""macOS"",""osversion"":""10.15.7"",""a"":true}","9:22:12","0","2","Practice_2","74","f","0","1037.199999988079","1792 x 1120","1792 x 1120","true","1","0","","","","",""
"null","<p style=""font-size: 80px;"">+ 0 points</p>","null","html-keyboard-response","23","343917","0.0-9.0-1.0-2.22","6130a32cd30a251765045601","fbrb3h","JK","65","F","{""name"":""Chrome"",""chrome"":true,""version"":""106.0"",""blink"":true,""mac"":true,""osname"":""macOS"",""osversion"":""10.15.7"",""a"":true}","9:22:12","0","2","Practice_1","70","j","0","1122.300000011921","1792 x 1120","1792 x 1120","true","1","0","","","","",""
"null","<p style=""font-size: 80px;"">+ 10 points</p>","null","html-keyboard-response","24","347618","0.0-9.0-1.0-2.23","6130a32cd30a251765045601","fbrb3h","JK","65","F","{""name"":""Chrome"",""chrome"":true,""version"":""106.0"",""blink"":true,""mac"":true,""osname"":""macOS"",""osversion"":""10.15.7"",""a"":true}","9:22:12","0","2","Practice_4","70","f","1","1695.0999999642372","1792 x 1120","1792 x 1120","true","1","10","","","","",""
"null","<p style=""font-size: 80px;"">+ 10 points</p>","null","html-keyboard-response","25","352232","0.0-9.0-1.0-2.24","6130a32cd30a251765045601","fbrb3h","JK","65","F","{""name"":""Chrome"",""chrome"":true,""version"":""106.0"",""blink"":true,""mac"":true,""osname"":""macOS"",""osversion"":""10.15.7"",""a"":true}","9:22:12","0","2","Practice_3","74","j","1","2605.599999964237","1792 x 1120","1792 x 1120","true","1","10","","","","",""
"null","<p style=""font-size: 80px;"">+ 10 points</p>","null","html-keyboard-response","26","355695","0.0-9.0-1.0-2.25","6130a32cd30a251765045601","fbrb3h","JK","65","F","{""name"":""Chrome"",""chrome"":true,""version"":""106.0"",""blink"":true,""mac"":true,""osname"":""macOS"",""osversion"":""10.15.7"",""a"":true}","9:22:12","0","2","Practice_4","70","f","1","1453.800000011921","1792 x 1120","1792 x 1120","true","1","10","","","","",""
"null","<p style=""font-size: 80px;"">+ 10 points</p>","null","html-keyboard-response","27","359549","0.0-9.0-1.0-2.26","6130a32cd30a251765045601","fbrb3h","JK","65","F","{""name"":""Chrome"",""chrome"":true,""version"":""106.0"",""blink"":true,""mac"":true,""osname"":""macOS"",""osversion"":""10.15.7"",""a"":true}","9:22:12","0","2","Practice_3","74","j","1","1846.5","1792 x 1120","1792 x 1120","true","1","10","","","","",""
"null","<p style=""font-size: 80px;"">+ 0 points</p>","null","html-keyboard-response","28","362509","0.0-9.0-1.0-2.27","6130a32cd30a251765045601","fbrb3h","JK","65","F","{""name"":""Chrome"",""chrome"":true,""version"":""106.0"",""blink"":true,""mac"":true,""osname"":""macOS"",""osversion"":""10.15.7"",""a"":true}","9:22:12","0","2","Practice_1","70","j","0","955.3999999761581","1792 x 1120","1792 x 1120","true","1","0","","","","",""
"null","<p style=""font-size: 80px;"">+ 10 points</p>","null","html-keyboard-response","29","366413","0.0-9.0-1.0-2.28","6130a32cd30a251765045601","fbrb3h","JK","65","F","{""name"":""Chrome"",""chrome"":true,""version"":""106.0"",""blink"":true,""mac"":true,""osname"":""macOS"",""osversion"":""10.15.7"",""a"":true}","9:22:12","0","2","Practice_2","70","f","1","1897.8999999761581","1792 x 1120","1792 x 1120","true","1","10","","","","",""
"null","<p style=""font-size: 80px;"">+ 10 points</p>","null","html-keyboard-response","30","370600","0.0-9.0-1.0-2.29","6130a32cd30a251765045601","fbrb3h","JK","65","F","{""name"":""Chrome"",""chrome"":true,""version"":""106.0"",""blink"":true,""mac"":true,""osname"":""macOS"",""osversion"":""10.15.7"",""a"":true}","9:22:12","0","2","Practice_4","70","f","1","2179.5","1792 x 1120","1792 x 1120","true","1","10","","","","",""
"null","<p style=""font-size: 80px;"">+ 0 points</p>","null","html-keyboard-response","31","375651","0.0-9.0-1.0-2.30","6130a32cd30a251765045601","fbrb3h","JK","65","F","{""name"":""Chrome"",""chrome"":true,""version"":""106.0"",""blink"":true,""mac"":true,""osname"":""macOS"",""osversion"":""10.15.7"",""a"":true}","9:22:12","0","2","Practice_1","70","j","0","3041.800000011921","1792 x 1120","1792 x 1120","true","1","0","","","","",""
"null","<p style=""font-size: 80px;"">+ 10 points</p>","null","html-keyboard-response","32","379052","0.0-9.0-1.0-2.31","6130a32cd30a251765045601","fbrb3h","JK","65","F","{""name"":""Chrome"",""chrome"":true,""version"":""106.0"",""blink"":true,""mac"":true,""osname"":""macOS"",""osversion"":""10.15.7"",""a"":true}","9:22:12","0","2","Practice_2","70","f","1","1393.199999988079","1792 x 1120","1792 x 1120","true","1","10","","","","",""
"null","<p style=""font-size: 80px;"">+ 10 points</p>","null","html-keyboard-response","33","383619","0.0-9.0-1.0-2.32","6130a32cd30a251765045601","fbrb3h","JK","65","F","{""name"":""Chrome"",""chrome"":true,""version"":""106.0"",""blink"":true,""mac"":true,""osname"":""macOS"",""osversion"":""10.15.7"",""a"":true}","9:22:12","0","2","Practice_1","74","j","1","2557.300000011921","1792 x 1120","1792 x 1120","true","1","10","","","","",""
"null","<p style=""font-size: 80px;"">+ 10 points</p>","null","html-keyboard-response","34","386738","0.0-9.0-1.0-2.33","6130a32cd30a251765045601","fbrb3h","JK","65","F","{""name"":""Chrome"",""chrome"":true,""version"":""106.0"",""blink"":true,""mac"":true,""osname"":""macOS"",""osversion"":""10.15.7"",""a"":true}","9:22:12","0","2","Practice_2","70","f","1","1111.6000000238419","1792 x 1120","1792 x 1120","true","1","10","","","","",""
"null","<p style=""font-size: 80px;"">+ 10 points</p>","null","html-keyboard-response","35","393016","0.0-9.0-1.0-2.34","6130a32cd30a251765045601","fbrb3h","JK","65","F","{""name"":""Chrome"",""chrome"":true,""version"":""106.0"",""blink"":true,""mac"":true,""osname"":""macOS"",""osversion"":""10.15.7"",""a"":true}","9:22:12","0","2","Practice_3","74","j","1","4272.200000047684","1792 x 1120","1792 x 1120","true","1","10","","","","",""
"null","<p style=""font-size: 80px;"">+ 10 points</p>","null","html-keyboard-response","36","395790","0.0-9.0-1.0-2.35","6130a32cd30a251765045601","fbrb3h","JK","65","F","{""name"":""Chrome"",""chrome"":true,""version"":""106.0"",""blink"":true,""mac"":true,""osname"":""macOS"",""osversion"":""10.15.7"",""a"":true}","9:22:12","0","2","Practice_3","74","j","1","764.5","1792 x 1120","1792 x 1120","true","1","10","","","","",""
"null","<p style=""font-size: 80px;"">+ 10 points</p>","null","html-keyboard-response","37","398414","0.0-9.0-1.0-2.36","6130a32cd30a251765045601","fbrb3h","JK","65","F","{""name"":""Chrome"",""chrome"":true,""version"":""106.0"",""blink"":true,""mac"":true,""osname"":""macOS"",""osversion"":""10.15.7"",""a"":true}","9:22:12","0","2","Practice_3","74","j","1","617.9000000357628","1792 x 1120","1792 x 1120","true","1","10","","","","",""
"null","<p style=""font-size: 80px;"">+ 10 points</p>","null","html-keyboard-response","38","402477","0.0-9.0-1.0-2.37","6130a32cd30a251765045601","fbrb3h","JK","65","F","{""name"":""Chrome"",""chrome"":true,""version"":""106.0"",""blink"":true,""mac"":true,""osname"":""macOS"",""osversion"":""10.15.7"",""a"":true}","9:22:12","0","2","Practice_1","74","j","1","2056","1792 x 1120","1792 x 1120","true","1","10","","","","",""
"null","<p style=""font-size: 80px;"">+ 0 points</p>","null","html-keyboard-response","39","406713","0.0-9.0-1.0-2.38","6130a32cd30a251765045601","fbrb3h","JK","65","F","{""name"":""Chrome"",""chrome"":true,""version"":""106.0"",""blink"":true,""mac"":true,""osname"":""macOS"",""osversion"":""10.15.7"",""a"":true}","9:22:12","0","2","Practice_4","74","f","0","2226.800000011921","1792 x 1120","1792 x 1120","true","1","0","","","","",""
"null","<p style=""font-size: 80px;"">+ 10 points</p>","null","html-keyboard-response","40","409833","0.0-9.0-1.0-2.39","6130a32cd30a251765045601","fbrb3h","JK","65","F","{""name"":""Chrome"",""chrome"":true,""version"":""106.0"",""blink"":true,""mac"":true,""osname"":""macOS"",""osversion"":""10.15.7"",""a"":true}","9:22:12","0","2","Practice_4","70","f","1","1113.4000000357628","1792 x 1120","1792 x 1120","true","1","10","","","","",""
"18287.100000023842","","","survey-multi-choice","249","428122","0.0-9.0-2.0","6130a32cd30a251765045601","fbrb3h","JK","65","F","{""name"":""Chrome"",""chrome"":true,""version"":""106.0"",""blink"":true,""mac"":true,""osname"":""macOS"",""osversion"":""10.15.7"",""a"":true}","9:22:12","","","","","","","","","","","1","","{""Q0"":""The red one"",""Q1"":""5""}","[0,1]","5","The red one","1"
"null","<p style=""font-size: 80px;"">+ 0 points</p>","null","html-keyboard-response","1","444119","0.0-11.0-2.0","6130a32cd30a251765045601","fbrb3h","JK","65","F","{""name"":""Chrome"",""chrome"":true,""version"":""106.0"",""blink"":true,""mac"":true,""osname"":""macOS"",""osversion"":""10.15.7"",""a"":true}","9:22:12","1","3","Test_1","74","f","0","1611.7000000476837","1792 x 1120","1792 x 1120","true","1","0","","","","",""
"null","<p style=""font-size: 80px;"">+ 10 points</p>","null","html-keyboard-response","2","447908","0.0-11.0-2.1","6130a32cd30a251765045601","fbrb3h","JK","65","F","{""name"":""Chrome"",""chrome"":true,""version"":""106.0"",""blink"":true,""mac"":true,""osname"":""macOS"",""osversion"":""10.15.7"",""a"":true}","9:22:12","1","3","Test_2","74","j","1","1780.5","1792 x 1120","1792 x 1120","true","1","10","","","","",""
"null","<p style=""font-size: 80px;"">+ 10 points</p>","null","html-keyboard-response","3","452113","0.0-11.0-2.2","6130a32cd30a251765045601","fbrb3h","JK","65","F","{""name"":""Chrome"",""chrome"":true,""version"":""106.0"",""blink"":true,""mac"":true,""osname"":""macOS"",""osversion"":""10.15.7"",""a"":true}","9:22:12","1","3","Test_3","70","f","1","2197.899999976158","1792 x 1120","1792 x 1120","true","1","10","","","","",""
"null","<p style=""font-size: 80px;"">+ 10 points</p>","null","html-keyboard-response","4","455556","0.0-11.0-2.3","6130a32cd30a251765045601","fbrb3h","JK","65","F","{""name"":""Chrome"",""chrome"":true,""version"":""106.0"",""blink"":true,""mac"":true,""osname"":""macOS"",""osversion"":""10.15.7"",""a"":true}","9:22:12","1","3","Test_1","70","f","1","1432","1792 x 1120","1792 x 1120","true","1","10","","","","",""
"null","<p style=""font-size: 80px;"">+ 10 points</p>","null","html-keyboard-response","5","458803","0.0-11.0-2.4","6130a32cd30a251765045601","fbrb3h","JK","65","F","{""name"":""Chrome"",""chrome"":true,""version"":""106.0"",""blink"":true,""mac"":true,""osname"":""macOS"",""osversion"":""10.15.7"",""a"":true}","9:22:12","1","3","Test_2","74","j","1","1237.9000000357628","1792 x 1120","1792 x 1120","true","1","10","","","","",""
"null","<p style=""font-size: 80px;"">+ 10 points</p>","null","html-keyboard-response","6","462041","0.0-11.0-2.5","6130a32cd30a251765045601","fbrb3h","JK","65","F","{""name"":""Chrome"",""chrome"":true,""version"":""106.0"",""blink"":true,""mac"":true,""osname"":""macOS"",""osversion"":""10.15.7"",""a"":true}","9:22:12","1","3","Test_4","74","j","1","1230.300000011921","1792 x 1120","1792 x 1120","true","1","10","","","","",""
"null","<p style=""font-size: 80px;"">+ 0 points</p>","null","html-keyboard-response","7","465359","0.0-11.0-2.6","6130a32cd30a251765045601","fbrb3h","JK","65","F","{""name"":""Chrome"",""chrome"":true,""version"":""106.0"",""blink"":true,""mac"":true,""osname"":""macOS"",""osversion"":""10.15.7"",""a"":true}","9:22:12","1","3","Test_3","74","f","0","1308.0999999642372","1792 x 1120","1792 x 1120","true","1","0","","","","",""
"null","<p style=""font-size: 80px;"">+ 0 points</p>","null","html-keyboard-response","8","469076","0.0-11.0-2.7","6130a32cd30a251765045601","fbrb3h","JK","65","F","{""name"":""Chrome"",""chrome"":true,""version"":""106.0"",""blink"":true,""mac"":true,""osname"":""macOS"",""osversion"":""10.15.7"",""a"":true}","9:22:12","1","3","Test_4","70","j","0","1710.6000000238419","1792 x 1120","1792 x 1120","true","1","0","","","","",""
"null","<p style=""font-size: 80px;"">+ 0 points</p>","null","html-keyboard-response","9","472403","0.0-11.0-2.8","6130a32cd30a251765045601","fbrb3h","JK","65","F","{""name"":""Chrome"",""chrome"":true,""version"":""106.0"",""blink"":true,""mac"":true,""osname"":""macOS"",""osversion"":""10.15.7"",""a"":true}","9:22:12","1","3","Test_4","70","j","0","1317.8999999761581","1792 x 1120","1792 x 1120","true","1","0","","","","",""
"null","<p style=""font-size: 80px;"">+ 10 points</p>","null","html-keyboard-response","10","475140","0.0-11.0-2.9","6130a32cd30a251765045601","fbrb3h","JK","65","F","{""name"":""Chrome"",""chrome"":true,""version"":""106.0"",""blink"":true,""mac"":true,""osname"":""macOS"",""osversion"":""10.15.7"",""a"":true}","9:22:12","1","3","Test_4","74","j","1","727.2999999523163","1792 x 1120","1792 x 1120","true","1","10","","","","",""
"null","<p style=""font-size: 80px;"">+ 10 points</p>","null","html-keyboard-response","11","478314","0.0-11.0-2.10","6130a32cd30a251765045601","fbrb3h","JK","65","F","{""name"":""Chrome"",""chrome"":true,""version"":""106.0"",""blink"":true,""mac"":true,""osname"":""macOS"",""osversion"":""10.15.7"",""a"":true}","9:22:12","1","3","Test_1","70","f","1","1166.5999999642372","1792 x 1120","1792 x 1120","true","1","10","","","","",""
"null","<p style=""font-size: 80px;"">+ 10 points</p>","null","html-keyboard-response","12","481577","0.0-11.0-2.11","6130a32cd30a251765045601","fbrb3h","JK","65","F","{""name"":""Chrome"",""chrome"":true,""version"":""106.0"",""blink"":true,""mac"":true,""osname"":""macOS"",""osversion"":""10.15.7"",""a"":true}","9:22:12","1","3","Test_2","74","j","1","1258.300000011921","1792 x 1120","1792 x 1120","true","1","10","","","","",""
"null","<p style=""font-size: 80px;"">+ 10 points</p>","null","html-keyboard-response","13","485236","0.0-11.0-2.12","6130a32cd30a251765045601","fbrb3h","JK","65","F","{""name"":""Chrome"",""chrome"":true,""version"":""106.0"",""blink"":true,""mac"":true,""osname"":""macOS"",""osversion"":""10.15.7"",""a"":true}","9:22:12","1","3","Test_3","70","f","1","1652.5","1792 x 1120","1792 x 1120","true","1","10","","","","",""
"null","<p style=""font-size: 80px;"">+ 10 points</p>","null","html-keyboard-response","14","488095","0.0-11.0-2.13","6130a32cd30a251765045601","fbrb3h","JK","65","F","{""name"":""Chrome"",""chrome"":true,""version"":""106.0"",""blink"":true,""mac"":true,""osname"":""macOS"",""osversion"":""10.15.7"",""a"":true}","9:22:12","1","3","Test_3","70","f","1","852.8999999761581","1792 x 1120","1792 x 1120","true","1","10","","","","",""
"null","<p style=""font-size: 80px;"">+ 10 points</p>","null","html-keyboard-response","15","491354","0.0-11.0-2.14","6130a32cd30a251765045601","fbrb3h","JK","65","F","{""name"":""Chrome"",""chrome"":true,""version"":""106.0"",""blink"":true,""mac"":true,""osname"":""macOS"",""osversion"":""10.15.7"",""a"":true}","9:22:12","1","3","Test_1","70","f","1","1253.9000000357628","1792 x 1120","1792 x 1120","true","1","10","","","","",""
"null","<p style=""font-size: 80px;"">+ 10 points</p>","null","html-keyboard-response","16","495146","0.0-11.0-2.15","6130a32cd30a251765045601","fbrb3h","JK","65","F","{""name"":""Chrome"",""chrome"":true,""version"":""106.0"",""blink"":true,""mac"":true,""osname"":""macOS"",""osversion"":""10.15.7"",""a"":true}","9:22:12","1","3","Test_2","74","j","1","1784.4000000357628","1792 x 1120","1792 x 1120","true","1","10","","","","",""
"null","<p style=""font-size: 80px;"">+ 10 points</p>","null","html-keyboard-response","17","498063","0.0-11.0-2.16","6130a32cd30a251765045601","fbrb3h","JK","65","F","{""name"":""Chrome"",""chrome"":true,""version"":""106.0"",""blink"":true,""mac"":true,""osname"":""macOS"",""osversion"":""10.15.7"",""a"":true}","9:22:12","1","3","Test_2","74","j","1","912","1792 x 1120","1792 x 1120","true","1","10","","","","",""
"null","<p style=""font-size: 80px;"">+ 10 points</p>","null","html-keyboard-response","18","501407","0.0-11.0-2.17","6130a32cd30a251765045601","fbrb3h","JK","65","F","{""name"":""Chrome"",""chrome"":true,""version"":""106.0"",""blink"":true,""mac"":true,""osname"":""macOS"",""osversion"":""10.15.7"",""a"":true}","9:22:12","1","3","Test_3","70","f","1","1339.800000011921","1792 x 1120","1792 x 1120","true","1","10","","","","",""
"null","<p style=""font-size: 80px;"">+ 10 points</p>","null","html-keyboard-response","19","504815","0.0-11.0-2.18","6130a32cd30a251765045601","fbrb3h","JK","65","F","{""name"":""Chrome"",""chrome"":true,""version"":""106.0"",""blink"":true,""mac"":true,""osname"":""macOS"",""osversion"":""10.15.7"",""a"":true}","9:22:12","1","3","Test_4","74","j","1","1401.699999988079","1792 x 1120","1792 x 1120","true","1","10","","","","",""
"null","<p style=""font-size: 80px;"">+ 10 points</p>","null","html-keyboard-response","20","507911","0.0-11.0-2.19","6130a32cd30a251765045601","fbrb3h","JK","65","F","{""name"":""Chrome"",""chrome"":true,""version"":""106.0"",""blink"":true,""mac"":true,""osname"":""macOS"",""osversion"":""10.15.7"",""a"":true}","9:22:12","1","3","Test_1","70","f","1","1087.9000000357628","1792 x 1120","1792 x 1120","true","1","10","","","","",""
"null","<p style=""font-size: 80px;"">+ 0 points</p>","null","html-keyboard-response","21","511418","0.0-11.0-2.20","6130a32cd30a251765045601","fbrb3h","JK","65","F","{""name"":""Chrome"",""chrome"":true,""version"":""106.0"",""blink"":true,""mac"":true,""osname"":""macOS"",""osversion"":""10.15.7"",""a"":true}","9:22:12","1","4","Test_4","74","f","0","1499.4000000357628","1792 x 1120","1792 x 1120","true","1","0","","","","",""
"null","<p style=""font-size: 80px;"">+ 10 points</p>","null","html-keyboard-response","22","514490","0.0-11.0-2.21","6130a32cd30a251765045601","fbrb3h","JK","65","F","{""name"":""Chrome"",""chrome"":true,""version"":""106.0"",""blink"":true,""mac"":true,""osname"":""macOS"",""osversion"":""10.15.7"",""a"":true}","9:22:12","1","4","Test_4","70","f","1","1065.0999999642372","1792 x 1120","1792 x 1120","true","1","10","","","","",""
"null","<p style=""font-size: 80px;"">+ 10 points</p>","null","html-keyboard-response","23","518234","0.0-11.0-2.22","6130a32cd30a251765045601","fbrb3h","JK","65","F","{""name"":""Chrome"",""chrome"":true,""version"":""106.0"",""blink"":true,""mac"":true,""osname"":""macOS"",""osversion"":""10.15.7"",""a"":true}","9:22:12","1","4","Test_3","74","j","1","1737.300000011921","1792 x 1120","1792 x 1120","true","1","10","","","","",""
"null","<p style=""font-size: 80px;"">+ 10 points</p>","null","html-keyboard-response","24","522372","0.0-11.0-2.23","6130a32cd30a251765045601","fbrb3h","JK","65","F","{""name"":""Chrome"",""chrome"":true,""version"":""106.0"",""blink"":true,""mac"":true,""osname"":""macOS"",""osversion"":""10.15.7"",""a"":true}","9:22:12","1","4","Test_2","70","f","1","2133.899999976158","1792 x 1120","1792 x 1120","true","1","10","","","","",""
"null","<p style=""font-size: 80px;"">+ 10 points</p>","null","html-keyboard-response","25","525562","0.0-11.0-2.24","6130a32cd30a251765045601","fbrb3h","JK","65","F","{""name"":""Chrome"",""chrome"":true,""version"":""106.0"",""blink"":true,""mac"":true,""osname"":""macOS"",""osversion"":""10.15.7"",""a"":true}","9:22:12","1","4","Test_3","74","j","1","1181.0999999642372","1792 x 1120","1792 x 1120","true","1","10","","","","",""
"null","<p style=""font-size: 80px;"">+ 10 points</p>","null","html-keyboard-response","26","528933","0.0-11.0-2.25","6130a32cd30a251765045601","fbrb3h","JK","65","F","{""name"":""Chrome"",""chrome"":true,""version"":""106.0"",""blink"":true,""mac"":true,""osname"":""macOS"",""osversion"":""10.15.7"",""a"":true}","9:22:12","1","4","Test_1","74","j","1","1361.300000011921","1792 x 1120","1792 x 1120","true","1","10","","","","",""
"null","<p style=""font-size: 80px;"">+ 10 points</p>","null","html-keyboard-response","27","534426","0.0-11.0-2.26","6130a32cd30a251765045601","fbrb3h","JK","65","F","{""name"":""Chrome"",""chrome"":true,""version"":""106.0"",""blink"":true,""mac"":true,""osname"":""macOS"",""osversion"":""10.15.7"",""a"":true}","9:22:12","1","4","Test_3","74","j","1","3485.5","1792 x 1120","1792 x 1120","true","1","10","","","","",""
"null","<p style=""font-size: 80px;"">+ 10 points</p>","null","html-keyboard-response","28","537803","0.0-11.0-2.27","6130a32cd30a251765045601","fbrb3h","JK","65","F","{""name"":""Chrome"",""chrome"":true,""version"":""106.0"",""blink"":true,""mac"":true,""osname"":""macOS"",""osversion"":""10.15.7"",""a"":true}","9:22:12","1","4","Test_3","74","j","1","1367.5999999642372","1792 x 1120","1792 x 1120","true","1","10","","","","",""
"null","<p style=""font-size: 80px;"">+ 0 points</p>","null","html-keyboard-response","29","540784","0.0-11.0-2.28","6130a32cd30a251765045601","fbrb3h","JK","65","F","{""name"":""Chrome"",""chrome"":true,""version"":""106.0"",""blink"":true,""mac"":true,""osname"":""macOS"",""osversion"":""10.15.7"",""a"":true}","9:22:12","1","4","Test_2","74","f","0","977.3000000119209","1792 x 1120","1792 x 1120","true","1","0","","","","",""
"null","<p style=""font-size: 80px;"">+ 10 points</p>","null","html-keyboard-response","30","544521","0.0-11.0-2.29","6130a32cd30a251765045601","fbrb3h","JK","65","F","{""name"":""Chrome"",""chrome"":true,""version"":""106.0"",""blink"":true,""mac"":true,""osname"":""macOS"",""osversion"":""10.15.7"",""a"":true}","9:22:12","1","4","Test_1","74","j","1","1729.300000011921","1792 x 1120","1792 x 1120","true","1","10","","","","",""
"null","<p style=""font-size: 80px;"">+ 10 points</p>","null","html-keyboard-response","31","547739","0.0-11.0-2.30","6130a32cd30a251765045601","fbrb3h","JK","65","F","{""name"":""Chrome"",""chrome"":true,""version"":""106.0"",""blink"":true,""mac"":true,""osname"":""macOS"",""osversion"":""10.15.7"",""a"":true}","9:22:12","1","4","Test_2","70","f","1","1208.3999999761581","1792 x 1120","1792 x 1120","true","1","10","","","","",""
"null","<p style=""font-size: 80px;"">+ 10 points</p>","null","html-keyboard-response","32","552357","0.0-11.0-2.31","6130a32cd30a251765045601","fbrb3h","JK","65","F","{""name"":""Chrome"",""chrome"":true,""version"":""106.0"",""blink"":true,""mac"":true,""osname"":""macOS"",""osversion"":""10.15.7"",""a"":true}","9:22:12","1","4","Test_4","70","f","1","2613.699999988079","1792 x 1120","1792 x 1120","true","1","10","","","","",""
"null","<p style=""font-size: 80px;"">+ 0 points</p>","null","html-keyboard-response","33","556533","0.0-11.0-2.32","6130a32cd30a251765045601","fbrb3h","JK","65","F","{""name"":""Chrome"",""chrome"":true,""version"":""106.0"",""blink"":true,""mac"":true,""osname"":""macOS"",""osversion"":""10.15.7"",""a"":true}","9:22:12","1","4","Test_2","74","f","0","2170.199999988079","1792 x 1120","1792 x 1120","true","1","0","","","","",""
"null","<p style=""font-size: 80px;"">+ 10 points</p>","null","html-keyboard-response","34","559291","0.0-11.0-2.33","6130a32cd30a251765045601","fbrb3h","JK","65","F","{""name"":""Chrome"",""chrome"":true,""version"":""106.0"",""blink"":true,""mac"":true,""osname"":""macOS"",""osversion"":""10.15.7"",""a"":true}","9:22:12","1","4","Test_2","70","f","1","749.2000000476837","1792 x 1120","1792 x 1120","true","1","10","","","","",""
"null","<p style=""font-size: 80px;"">+ 10 points</p>","null","html-keyboard-response","35","563350","0.0-11.0-2.34","6130a32cd30a251765045601","fbrb3h","JK","65","F","{""name"":""Chrome"",""chrome"":true,""version"":""106.0"",""blink"":true,""mac"":true,""osname"":""macOS"",""osversion"":""10.15.7"",""a"":true}","9:22:12","1","4","Test_1","74","j","1","2051.7999999523163","1792 x 1120","1792 x 1120","true","1","10","","","","",""
"null","<p style=""font-size: 80px;"">+ 10 points</p>","null","html-keyboard-response","36","566240","0.0-11.0-2.35","6130a32cd30a251765045601","fbrb3h","JK","65","F","{""name"":""Chrome"",""chrome"":true,""version"":""106.0"",""blink"":true,""mac"":true,""osname"":""macOS"",""osversion"":""10.15.7"",""a"":true}","9:22:12","1","4","Test_3","74","j","1","881.5999999642372","1792 x 1120","1792 x 1120","true","1","10","","","","",""
"null","<p style=""font-size: 80px;"">+ 0 points</p>","null","html-keyboard-response","37","569419","0.0-11.0-2.36","6130a32cd30a251765045601","fbrb3h","JK","65","F","{""name"":""Chrome"",""chrome"":true,""version"":""106.0"",""blink"":true,""mac"":true,""osname"":""macOS"",""osversion"":""10.15.7"",""a"":true}","9:22:12","1","4","Test_4","74","f","0","1172.5","1792 x 1120","1792 x 1120","true","1","0","","","","",""
"null","<p style=""font-size: 80px;"">+ 10 points</p>","null","html-keyboard-response","38","573222","0.0-11.0-2.37","6130a32cd30a251765045601","fbrb3h","JK","65","F","{""name"":""Chrome"",""chrome"":true,""version"":""106.0"",""blink"":true,""mac"":true,""osname"":""macOS"",""osversion"":""10.15.7"",""a"":true}","9:22:12","1","4","Test_1","74","j","1","1797.4000000357628","1792 x 1120","1792 x 1120","true","1","10","","","","",""
"null","<p style=""font-size: 80px;"">+ 0 points</p>","null","html-keyboard-response","39","576230","0.0-11.0-2.38","6130a32cd30a251765045601","fbrb3h","JK","65","F","{""name"":""Chrome"",""chrome"":true,""version"":""106.0"",""blink"":true,""mac"":true,""osname"":""macOS"",""osversion"":""10.15.7"",""a"":true}","9:22:12","1","4","Test_3","70","j","0","999.8999999761581","1792 x 1120","1792 x 1120","true","1","0","","","","",""
"null","<p style=""font-size: 80px;"">+ 10 points</p>","null","html-keyboard-response","40","578998","0.0-11.0-2.39","6130a32cd30a251765045601","fbrb3h","JK","65","F","{""name"":""Chrome"",""chrome"":true,""version"":""106.0"",""blink"":true,""mac"":true,""osname"":""macOS"",""osversion"":""10.15.7"",""a"":true}","9:22:12","1","4","Test_2","70","f","1","760.8000000119209","1792 x 1120","1792 x 1120","true","1","10","","","","",""
"null","<p style=""font-size: 80px;"">+ 10 points</p>","null","html-keyboard-response","41","582758","0.0-11.0-2.40","6130a32cd30a251765045601","fbrb3h","JK","65","F","{""name"":""Chrome"",""chrome"":true,""version"":""106.0"",""blink"":true,""mac"":true,""osname"":""macOS"",""osversion"":""10.15.7"",""a"":true}","9:22:12","1","4","Test_1","74","j","1","1751.5999999642372","1792 x 1120","1792 x 1120","true","1","10","","","","",""
"null","<p style=""font-size: 80px;"">+ 10 points</p>","null","html-keyboard-response","42","585921","0.0-11.0-2.41","6130a32cd30a251765045601","fbrb3h","JK","65","F","{""name"":""Chrome"",""chrome"":true,""version"":""106.0"",""blink"":true,""mac"":true,""osname"":""macOS"",""osversion"":""10.15.7"",""a"":true}","9:22:12","1","4","Test_4","70","f","1","1153.5","1792 x 1120","1792 x 1120","true","1","10","","","","",""
"null","<p style=""font-size: 80px;"">+ 0 points</p>","null","html-keyboard-response","43","588992","0.0-11.0-2.42","6130a32cd30a251765045601","fbrb3h","JK","65","F","{""name"":""Chrome"",""chrome"":true,""version"":""106.0"",""blink"":true,""mac"":true,""osname"":""macOS"",""osversion"":""10.15.7"",""a"":true}","9:22:12","1","3","Test_4","70","j","0","1066.9000000357628","1792 x 1120","1792 x 1120","true","1","0","","","","",""
"null","<p style=""font-size: 80px;"">+ 0 points</p>","null","html-keyboard-response","44","592594","0.0-11.0-2.43","6130a32cd30a251765045601","fbrb3h","JK","65","F","{""name"":""Chrome"",""chrome"":true,""version"":""106.0"",""blink"":true,""mac"":true,""osname"":""macOS"",""osversion"":""10.15.7"",""a"":true}","9:22:12","1","3","Test_3","74","f","0","1592.2999999523163","1792 x 1120","1792 x 1120","true","1","0","","","","",""
"null","<p style=""font-size: 80px;"">+ 10 points</p>","null","html-keyboard-response","45","595243","0.0-11.0-2.44","6130a32cd30a251765045601","fbrb3h","JK","65","F","{""name"":""Chrome"",""chrome"":true,""version"":""106.0"",""blink"":true,""mac"":true,""osname"":""macOS"",""osversion"":""10.15.7"",""a"":true}","9:22:12","1","3","Test_3","70","f","1","638.2999999523163","1792 x 1120","1792 x 1120","true","1","10","","","","",""
"null","<p style=""font-size: 80px;"">+ 10 points</p>","null","html-keyboard-response","46","598363","0.0-11.0-2.45","6130a32cd30a251765045601","fbrb3h","JK","65","F","{""name"":""Chrome"",""chrome"":true,""version"":""106.0"",""blink"":true,""mac"":true,""osname"":""macOS"",""osversion"":""10.15.7"",""a"":true}","9:22:12","1","3","Test_3","70","f","1","1114.5","1792 x 1120","1792 x 1120","true","1","10","","","","",""
"null","<p style=""font-size: 80px;"">+ 10 points</p>","null","html-keyboard-response","47","601355","0.0-11.0-2.46","6130a32cd30a251765045601","fbrb3h","JK","65","F","{""name"":""Chrome"",""chrome"":true,""version"":""106.0"",""blink"":true,""mac"":true,""osname"":""macOS"",""osversion"":""10.15.7"",""a"":true}","9:22:12","1","3","Test_1","70","f","1","982.6999999880791","1792 x 1120","1792 x 1120","true","1","10","","","","",""
"null","<p style=""font-size: 80px;"">+ 10 points</p>","null","html-keyboard-response","48","605164","0.0-11.0-2.47","6130a32cd30a251765045601","fbrb3h","JK","65","F","{""name"":""Chrome"",""chrome"":true,""version"":""106.0"",""blink"":true,""mac"":true,""osname"":""macOS"",""osversion"":""10.15.7"",""a"":true}","9:22:12","1","3","Test_2","74","j","1","1799.6000000238419","1792 x 1120","1792 x 1120","true","1","10","","","","",""
"null","<p style=""font-size: 80px;"">+ 10 points</p>","null","html-keyboard-response","49","607916","0.0-11.0-2.48","6130a32cd30a251765045601","fbrb3h","JK","65","F","{""name"":""Chrome"",""chrome"":true,""version"":""106.0"",""blink"":true,""mac"":true,""osname"":""macOS"",""osversion"":""10.15.7"",""a"":true}","9:22:12","1","3","Test_1","70","f","1","742","1792 x 1120","1792 x 1120","true","1","10","","","","",""
"null","<p style=""font-size: 80px;"">+ 10 points</p>","null","html-keyboard-response","50","610742","0.0-11.0-2.49","6130a32cd30a251765045601","fbrb3h","JK","65","F","{""name"":""Chrome"",""chrome"":true,""version"":""106.0"",""blink"":true,""mac"":true,""osname"":""macOS"",""osversion"":""10.15.7"",""a"":true}","9:22:12","1","3","Test_1","70","f","1","819.8999999761581","1792 x 1120","1792 x 1120","true","1","10","","","","",""
"null","<p style=""font-size: 80px;"">+ 10 points</p>","null","html-keyboard-response","51","613691","0.0-11.0-2.50","6130a32cd30a251765045601","fbrb3h","JK","65","F","{""name"":""Chrome"",""chrome"":true,""version"":""106.0"",""blink"":true,""mac"":true,""osname"":""macOS"",""osversion"":""10.15.7"",""a"":true}","9:22:12","1","3","Test_2","74","j","1","943.8999999761581","1792 x 1120","1792 x 1120","true","1","10","","","","",""
"null","<p style=""font-size: 80px;"">+ 10 points</p>","null","html-keyboard-response","52","617698","0.0-11.0-2.51","6130a32cd30a251765045601","fbrb3h","JK","65","F","{""name"":""Chrome"",""chrome"":true,""version"":""106.0"",""blink"":true,""mac"":true,""osname"":""macOS"",""osversion"":""10.15.7"",""a"":true}","9:22:12","1","3","Test_4","74","j","1","1998.199999988079","1792 x 1120","1792 x 1120","true","1","10","","","","",""
"null","<p style=""font-size: 80px;"">+ 10 points</p>","null","html-keyboard-response","53","621191","0.0-11.0-2.52","6130a32cd30a251765045601","fbrb3h","JK","65","F","{""name"":""Chrome"",""chrome"":true,""version"":""106.0"",""blink"":true,""mac"":true,""osname"":""macOS"",""osversion"":""10.15.7"",""a"":true}","9:22:12","1","3","Test_1","70","f","1","1487.6000000238419","1792 x 1120","1792 x 1120","true","1","10","","","","",""
"null","<p style=""font-size: 80px;"">+ 10 points</p>","null","html-keyboard-response","54","623964","0.0-11.0-2.53","6130a32cd30a251765045601","fbrb3h","JK","65","F","{""name"":""Chrome"",""chrome"":true,""version"":""106.0"",""blink"":true,""mac"":true,""osname"":""macOS"",""osversion"":""10.15.7"",""a"":true}","9:22:12","1","3","Test_1","70","f","1","766","1792 x 1120","1792 x 1120","true","1","10","","","","",""
"null","<p style=""font-size: 80px;"">+ 10 points</p>","null","html-keyboard-response","55","627639","0.0-11.0-2.54","6130a32cd30a251765045601","fbrb3h","JK","65","F","{""name"":""Chrome"",""chrome"":true,""version"":""106.0"",""blink"":true,""mac"":true,""osname"":""macOS"",""osversion"":""10.15.7"",""a"":true}","9:22:12","1","3","Test_2","74","j","1","1669.5","1792 x 1120","1792 x 1120","true","1","10","","","","",""
"null","<p style=""font-size: 80px;"">+ 10 points</p>","null","html-keyboard-response","56","630833","0.0-11.0-2.55","6130a32cd30a251765045601","fbrb3h","JK","65","F","{""name"":""Chrome"",""chrome"":true,""version"":""106.0"",""blink"":true,""mac"":true,""osname"":""macOS"",""osversion"":""10.15.7"",""a"":true}","9:22:12","1","3","Test_2","74","j","1","1188.7999999523163","1792 x 1120","1792 x 1120","true","1","10","","","","",""
"null","<p style=""font-size: 80px;"">+ 10 points</p>","null","html-keyboard-response","57","633852","0.0-11.0-2.56","6130a32cd30a251765045601","fbrb3h","JK","65","F","{""name"":""Chrome"",""chrome"":true,""version"":""106.0"",""blink"":true,""mac"":true,""osname"":""macOS"",""osversion"":""10.15.7"",""a"":true}","9:22:12","1","3","Test_2","74","j","1","1013.1000000238419","1792 x 1120","1792 x 1120","true","1","10","","","","",""
"null","<p style=""font-size: 80px;"">+ 10 points</p>","null","html-keyboard-response","58","637329","0.0-11.0-2.57","6130a32cd30a251765045601","fbrb3h","JK","65","F","{""name"":""Chrome"",""chrome"":true,""version"":""106.0"",""blink"":true,""mac"":true,""osname"":""macOS"",""osversion"":""10.15.7"",""a"":true}","9:22:12","1","3","Test_4","74","j","1","1469.7999999523163","1792 x 1120","1792 x 1120","true","1","10","","","","",""
"null","<p style=""font-size: 80px;"">+ 10 points</p>","null","html-keyboard-response","59","640212","0.0-11.0-2.58","6130a32cd30a251765045601","fbrb3h","JK","65","F","{""name"":""Chrome"",""chrome"":true,""version"":""106.0"",""blink"":true,""mac"":true,""osname"":""macOS"",""osversion"":""10.15.7"",""a"":true}","9:22:12","1","3","Test_4","74","j","1","875.2999999523163","1792 x 1120","1792 x 1120","true","1","10","","","","",""
"null","<p style=""font-size: 80px;"">+ 10 points</p>","null","html-keyboard-response","60","643185","0.0-11.0-2.59","6130a32cd30a251765045601","fbrb3h","JK","65","F","{""name"":""Chrome"",""chrome"":true,""version"":""106.0"",""blink"":true,""mac"":true,""osname"":""macOS"",""osversion"":""10.15.7"",""a"":true}","9:22:12","1","3","Test_3","70","f","1","961.0999999642372","1792 x 1120","1792 x 1120","true","1","10","","","","",""
"null","<p style=""font-size: 80px;"">+ 10 points</p>","null","html-keyboard-response","61","646204","0.0-11.0-2.60","6130a32cd30a251765045601","fbrb3h","JK","65","F","{""name"":""Chrome"",""chrome"":true,""version"":""106.0"",""blink"":true,""mac"":true,""osname"":""macOS"",""osversion"":""10.15.7"",""a"":true}","9:22:12","1","3","Test_4","74","j","1","1012.1000000238419","1792 x 1120","1792 x 1120","true","1","10","","","","",""
"null","<p style=""font-size: 80px;"">+ 10 points</p>","null","html-keyboard-response","62","649986","0.0-11.0-2.61","6130a32cd30a251765045601","fbrb3h","JK","65","F","{""name"":""Chrome"",""chrome"":true,""version"":""106.0"",""blink"":true,""mac"":true,""osname"":""macOS"",""osversion"":""10.15.7"",""a"":true}","9:22:12","1","3","Test_3","70","f","1","1776.5","1792 x 1120","1792 x 1120","true","1","10","","","","",""
"null","<p style=""font-size: 80px;"">+ 0 points</p>","null","html-keyboard-response","63","654039","0.0-11.0-2.62","6130a32cd30a251765045601","fbrb3h","JK","65","F","{""name"":""Chrome"",""chrome"":true,""version"":""106.0"",""blink"":true,""mac"":true,""osname"":""macOS"",""osversion"":""10.15.7"",""a"":true}","9:22:12","1","4","Test_2","74","f","0","2045.800000011921","1792 x 1120","1792 x 1120","true","1","0","","","","",""
"null","<p style=""font-size: 80px;"">+ 10 points</p>","null","html-keyboard-response","64","656775","0.0-11.0-2.63","6130a32cd30a251765045601","fbrb3h","JK","65","F","{""name"":""Chrome"",""chrome"":true,""version"":""106.0"",""blink"":true,""mac"":true,""osname"":""macOS"",""osversion"":""10.15.7"",""a"":true}","9:22:12","1","4","Test_2","70","f","1","730.8000000119209","1792 x 1120","1792 x 1120","true","1","10","","","","",""
"null","<p style=""font-size: 80px;"">+ 10 points</p>","null","html-keyboard-response","65","660049","0.0-11.0-2.64","6130a32cd30a251765045601","fbrb3h","JK","65","F","{""name"":""Chrome"",""chrome"":true,""version"":""106.0"",""blink"":true,""mac"":true,""osname"":""macOS"",""osversion"":""10.15.7"",""a"":true}","9:22:12","1","4","Test_3","74","j","1","1267.199999988079","1792 x 1120","1792 x 1120","true","1","10","","","","",""
"null","<p style=""font-size: 80px;"">+ 10 points</p>","null","html-keyboard-response","66","663614","0.0-11.0-2.65","6130a32cd30a251765045601","fbrb3h","JK","65","F","{""name"":""Chrome"",""chrome"":true,""version"":""106.0"",""blink"":true,""mac"":true,""osname"":""macOS"",""osversion"":""10.15.7"",""a"":true}","9:22:12","1","4","Test_4","70","f","1","1556.800000011921","1792 x 1120","1792 x 1120","true","1","10","","","","",""
"null","<p style=""font-size: 80px;"">+ 10 points</p>","null","html-keyboard-response","67","667244","0.0-11.0-2.66","6130a32cd30a251765045601","fbrb3h","JK","65","F","{""name"":""Chrome"",""chrome"":true,""version"":""106.0"",""blink"":true,""mac"":true,""osname"":""macOS"",""osversion"":""10.15.7"",""a"":true}","9:22:12","1","4","Test_1","74","j","1","1623.2999999523163","1792 x 1120","1792 x 1120","true","1","10","","","","",""
"null","<p style=""font-size: 80px;"">+ 10 points</p>","null","html-keyboard-response","68","671639","0.0-11.0-2.67","6130a32cd30a251765045601","fbrb3h","JK","65","F","{""name"":""Chrome"",""chrome"":true,""version"":""106.0"",""blink"":true,""mac"":true,""osname"":""macOS"",""osversion"":""10.15.7"",""a"":true}","9:22:12","1","4","Test_1","74","j","1","2387.7999999523163","1792 x 1120","1792 x 1120","true","1","10","","","","",""
"null","<p style=""font-size: 80px;"">+ 0 points</p>","null","html-keyboard-response","69","675015","0.0-11.0-2.68","6130a32cd30a251765045601","fbrb3h","JK","65","F","{""name"":""Chrome"",""chrome"":true,""version"":""106.0"",""blink"":true,""mac"":true,""osname"":""macOS"",""osversion"":""10.15.7"",""a"":true}","9:22:12","1","4","Test_3","70","j","0","1367.4000000357628","1792 x 1120","1792 x 1120","true","1","0","","","","",""
"null","<p style=""font-size: 80px;"">+ 10 points</p>","null","html-keyboard-response","70","679580","0.0-11.0-2.69","6130a32cd30a251765045601","fbrb3h","JK","65","F","{""name"":""Chrome"",""chrome"":true,""version"":""106.0"",""blink"":true,""mac"":true,""osname"":""macOS"",""osversion"":""10.15.7"",""a"":true}","9:22:12","1","4","Test_3","74","j","1","2556.100000023842","1792 x 1120","1792 x 1120","true","1","10","","","","",""
"null","<p style=""font-size: 80px;"">+ 10 points</p>","null","html-keyboard-response","71","683538","0.0-11.0-2.70","6130a32cd30a251765045601","fbrb3h","JK","65","F","{""name"":""Chrome"",""chrome"":true,""version"":""106.0"",""blink"":true,""mac"":true,""osname"":""macOS"",""osversion"":""10.15.7"",""a"":true}","9:22:12","1","4","Test_4","70","f","1","1949.300000011921","1792 x 1120","1792 x 1120","true","1","10","","","","",""
"null","<p style=""font-size: 80px;"">+ 10 points</p>","null","html-keyboard-response","72","688364","0.0-11.0-2.71","6130a32cd30a251765045601","fbrb3h","JK","65","F","{""name"":""Chrome"",""chrome"":true,""version"":""106.0"",""blink"":true,""mac"":true,""osname"":""macOS"",""osversion"":""10.15.7"",""a"":true}","9:22:12","1","4","Test_2","70","f","1","2817","1792 x 1120","1792 x 1120","true","1","10","","","","",""
"null","<p style=""font-size: 80px;"">+ 10 points</p>","null","html-keyboard-response","73","692210","0.0-11.0-2.72","6130a32cd30a251765045601","fbrb3h","JK","65","F","{""name"":""Chrome"",""chrome"":true,""version"":""106.0"",""blink"":true,""mac"":true,""osname"":""macOS"",""osversion"":""10.15.7"",""a"":true}","9:22:12","1","4","Test_1","74","j","1","1838.699999988079","1792 x 1120","1792 x 1120","true","1","10","","","","",""
"null","<p style=""font-size: 80px;"">+ 10 points</p>","null","html-keyboard-response","74","696404","0.0-11.0-2.73","6130a32cd30a251765045601","fbrb3h","JK","65","F","{""name"":""Chrome"",""chrome"":true,""version"":""106.0"",""blink"":true,""mac"":true,""osname"":""macOS"",""osversion"":""10.15.7"",""a"":true}","9:22:12","1","4","Test_2","70","f","1","2184.899999976158","1792 x 1120","1792 x 1120","true","1","10","","","","",""
"null","<p style=""font-size: 80px;"">+ 10 points</p>","null","html-keyboard-response","75","699981","0.0-11.0-2.74","6130a32cd30a251765045601","fbrb3h","JK","65","F","{""name"":""Chrome"",""chrome"":true,""version"":""106.0"",""blink"":true,""mac"":true,""osname"":""macOS"",""osversion"":""10.15.7"",""a"":true}","9:22:12","1","4","Test_1","74","j","1","1565.0999999642372","1792 x 1120","1792 x 1120","true","1","10","","","","",""
"null","<p style=""font-size: 80px;"">+ 10 points</p>","null","html-keyboard-response","76","704226","0.0-11.0-2.75","6130a32cd30a251765045601","fbrb3h","JK","65","F","{""name"":""Chrome"",""chrome"":true,""version"":""106.0"",""blink"":true,""mac"":true,""osname"":""macOS"",""osversion"":""10.15.7"",""a"":true}","9:22:12","1","4","Test_2","70","f","1","2240.5","1792 x 1120","1792 x 1120","true","1","10","","","","",""
"null","<p style=""font-size: 80px;"">+ 10 points</p>","null","html-keyboard-response","77","708307","0.0-11.0-2.76","6130a32cd30a251765045601","fbrb3h","JK","65","F","{""name"":""Chrome"",""chrome"":true,""version"":""106.0"",""blink"":true,""mac"":true,""osname"":""macOS"",""osversion"":""10.15.7"",""a"":true}","9:22:12","1","4","Test_3","74","j","1","2070.800000011921","1792 x 1120","1792 x 1120","true","1","10","","","","",""
"null","<p style=""font-size: 80px;"">+ 10 points</p>","null","html-keyboard-response","78","711429","0.0-11.0-2.77","6130a32cd30a251765045601","fbrb3h","JK","65","F","{""name"":""Chrome"",""chrome"":true,""version"":""106.0"",""blink"":true,""mac"":true,""osname"":""macOS"",""osversion"":""10.15.7"",""a"":true}","9:22:12","1","4","Test_3","74","j","1","1115.800000011921","1792 x 1120","1792 x 1120","true","1","10","","","","",""
"null","<p style=""font-size: 80px;"">+ 10 points</p>","null","html-keyboard-response","79","714989","0.0-11.0-2.78","6130a32cd30a251765045601","fbrb3h","JK","65","F","{""name"":""Chrome"",""chrome"":true,""version"":""106.0"",""blink"":true,""mac"":true,""osname"":""macOS"",""osversion"":""10.15.7"",""a"":true}","9:22:12","1","4","Test_4","70","f","1","1548.7000000476837","1792 x 1120","1792 x 1120","true","1","10","","","","",""
"null","<p style=""font-size: 80px;"">+ 0 points</p>","null","html-keyboard-response","80","719245","0.0-11.0-2.79","6130a32cd30a251765045601","fbrb3h","JK","65","F","{""name"":""Chrome"",""chrome"":true,""version"":""106.0"",""blink"":true,""mac"":true,""osname"":""macOS"",""osversion"":""10.15.7"",""a"":true}","9:22:12","1","4","Test_3","70","j","0","2246.899999976158","1792 x 1120","1792 x 1120","true","1","0","","","","",""
"null","<p style=""font-size: 80px;"">+ 10 points</p>","null","html-keyboard-response","81","724019","0.0-11.0-2.80","6130a32cd30a251765045601","fbrb3h","JK","65","F","{""name"":""Chrome"",""chrome"":true,""version"":""106.0"",""blink"":true,""mac"":true,""osname"":""macOS"",""osversion"":""10.15.7"",""a"":true}","9:22:12","1","4","Test_4","70","f","1","2767.199999988079","1792 x 1120","1792 x 1120","true","1","10","","","","",""
"null","<p style=""font-size: 80px;"">+ 0 points</p>","null","html-keyboard-response","82","727250","0.0-11.0-2.81","6130a32cd30a251765045601","fbrb3h","JK","65","F","{""name"":""Chrome"",""chrome"":true,""version"":""106.0"",""blink"":true,""mac"":true,""osname"":""macOS"",""osversion"":""10.15.7"",""a"":true}","9:22:12","1","4","Test_4","74","f","0","1225.199999988079","1792 x 1120","1792 x 1120","true","1","0","","","","",""
"null","<p style=""font-size: 80px;"">+ 10 points</p>","null","html-keyboard-response","83","730360","0.0-11.0-2.82","6130a32cd30a251765045601","fbrb3h","JK","65","F","{""name"":""Chrome"",""chrome"":true,""version"":""106.0"",""blink"":true,""mac"":true,""osname"":""macOS"",""osversion"":""10.15.7"",""a"":true}","9:22:12","1","4","Test_4","70","f","1","1104.8999999761581","1792 x 1120","1792 x 1120","true","1","10","","","","",""
"null","<p style=""font-size: 80px;"">+ 10 points</p>","null","html-keyboard-response","84","733491","0.0-11.0-2.83","6130a32cd30a251765045601","fbrb3h","JK","65","F","{""name"":""Chrome"",""chrome"":true,""version"":""106.0"",""blink"":true,""mac"":true,""osname"":""macOS"",""osversion"":""10.15.7"",""a"":true}","9:22:12","1","4","Test_1","74","j","1","1122.2000000476837","1792 x 1120","1792 x 1120","true","1","10","","","","",""
"null","<p style=""font-size: 80px;"">+ 0 points</p>","null","html-keyboard-response","85","737448","0.0-11.0-2.84","6130a32cd30a251765045601","fbrb3h","JK","65","F","{""name"":""Chrome"",""chrome"":true,""version"":""106.0"",""blink"":true,""mac"":true,""osname"":""macOS"",""osversion"":""10.15.7"",""a"":true}","9:22:12","1","3","Test_1","74","f","0","1950.0999999642372","1792 x 1120","1792 x 1120","true","1","0","","","","",""
"null","<p style=""font-size: 80px;"">+ 0 points</p>","null","html-keyboard-response","86","741150","0.0-11.0-2.85","6130a32cd30a251765045601","fbrb3h","JK","65","F","{""name"":""Chrome"",""chrome"":true,""version"":""106.0"",""blink"":true,""mac"":true,""osname"":""macOS"",""osversion"":""10.15.7"",""a"":true}","9:22:12","1","3","Test_3","74","f","0","1696.3999999761581","1792 x 1120","1792 x 1120","true","1","0","","","","",""
"null","<p style=""font-size: 80px;"">+ 10 points</p>","null","html-keyboard-response","87","744963","0.0-11.0-2.86","6130a32cd30a251765045601","fbrb3h","JK","65","F","{""name"":""Chrome"",""chrome"":true,""version"":""106.0"",""blink"":true,""mac"":true,""osname"":""macOS"",""osversion"":""10.15.7"",""a"":true}","9:22:12","1","3","Test_1","70","f","1","1807.699999988079","1792 x 1120","1792 x 1120","true","1","10","","","","",""
"null","<p style=""font-size: 80px;"">+ 10 points</p>","null","html-keyboard-response","88","748019","0.0-11.0-2.87","6130a32cd30a251765045601","fbrb3h","JK","65","F","{""name"":""Chrome"",""chrome"":true,""version"":""106.0"",""blink"":true,""mac"":true,""osname"":""macOS"",""osversion"":""10.15.7"",""a"":true}","9:22:12","1","3","Test_1","70","f","1","1048.699999988079","1792 x 1120","1792 x 1120","true","1","10","","","","",""
"null","<p style=""font-size: 80px;"">+ 10 points</p>","null","html-keyboard-response","89","751176","0.0-11.0-2.88","6130a32cd30a251765045601","fbrb3h","JK","65","F","{""name"":""Chrome"",""chrome"":true,""version"":""106.0"",""blink"":true,""mac"":true,""osname"":""macOS"",""osversion"":""10.15.7"",""a"":true}","9:22:12","1","3","Test_4","74","j","1","1152.1000000238419","1792 x 1120","1792 x 1120","true","1","10","","","","",""
"null","<p style=""font-size: 80px;"">+ 10 points</p>","null","html-keyboard-response","90","755091","0.0-11.0-2.89","6130a32cd30a251765045601","fbrb3h","JK","65","F","{""name"":""Chrome"",""chrome"":true,""version"":""106.0"",""blink"":true,""mac"":true,""osname"":""macOS"",""osversion"":""10.15.7"",""a"":true}","9:22:12","1","3","Test_2","74","j","1","1907","1792 x 1120","1792 x 1120","true","1","10","","","","",""
"null","<p style=""font-size: 80px;"">+ 10 points</p>","null","html-keyboard-response","91","758238","0.0-11.0-2.90","6130a32cd30a251765045601","fbrb3h","JK","65","F","{""name"":""Chrome"",""chrome"":true,""version"":""106.0"",""blink"":true,""mac"":true,""osname"":""macOS"",""osversion"":""10.15.7"",""a"":true}","9:22:12","1","3","Test_2","74","j","1","1141","1792 x 1120","1792 x 1120","true","1","10","","","","",""
"null","<p style=""font-size: 80px;"">+ 10 points</p>","null","html-keyboard-response","92","761550","0.0-11.0-2.91","6130a32cd30a251765045601","fbrb3h","JK","65","F","{""name"":""Chrome"",""chrome"":true,""version"":""106.0"",""blink"":true,""mac"":true,""osname"":""macOS"",""osversion"":""10.15.7"",""a"":true}","9:22:12","1","3","Test_2","74","j","1","1303.2999999523163","1792 x 1120","1792 x 1120","true","1","10","","","","",""
"null","<p style=""font-size: 80px;"">+ 10 points</p>","null","html-keyboard-response","93","765134","0.0-11.0-2.92","6130a32cd30a251765045601","fbrb3h","JK","65","F","{""name"":""Chrome"",""chrome"":true,""version"":""106.0"",""blink"":true,""mac"":true,""osname"":""macOS"",""osversion"":""10.15.7"",""a"":true}","9:22:12","1","3","Test_2","74","j","1","1576","1792 x 1120","1792 x 1120","true","1","10","","","","",""
"null","<p style=""font-size: 80px;"">+ 10 points</p>","null","html-keyboard-response","94","768275","0.0-11.0-2.93","6130a32cd30a251765045601","fbrb3h","JK","65","F","{""name"":""Chrome"",""chrome"":true,""version"":""106.0"",""blink"":true,""mac"":true,""osname"":""macOS"",""osversion"":""10.15.7"",""a"":true}","9:22:12","1","3","Test_1","70","f","1","1134.300000011921","1792 x 1120","1792 x 1120","true","1","10","","","","",""
"null","<p style=""font-size: 80px;"">+ 10 points</p>","null","html-keyboard-response","95","771139","0.0-11.0-2.94","6130a32cd30a251765045601","fbrb3h","JK","65","F","{""name"":""Chrome"",""chrome"":true,""version"":""106.0"",""blink"":true,""mac"":true,""osname"":""macOS"",""osversion"":""10.15.7"",""a"":true}","9:22:12","1","3","Test_1","70","f","1","851.8999999761581","1792 x 1120","1792 x 1120","true","1","10","","","","",""
"null","<p style=""font-size: 80px;"">+ 10 points</p>","null","html-keyboard-response","96","773870","0.0-11.0-2.95","6130a32cd30a251765045601","fbrb3h","JK","65","F","{""name"":""Chrome"",""chrome"":true,""version"":""106.0"",""blink"":true,""mac"":true,""osname"":""macOS"",""osversion"":""10.15.7"",""a"":true}","9:22:12","1","3","Test_1","70","f","1","724.8999999761581","1792 x 1120","1792 x 1120","true","1","10","","","","",""
"null","<p style=""font-size: 80px;"">+ 10 points</p>","null","html-keyboard-response","97","777960","0.0-11.0-2.96","6130a32cd30a251765045601","fbrb3h","JK","65","F","{""name"":""Chrome"",""chrome"":true,""version"":""106.0"",""blink"":true,""mac"":true,""osname"":""macOS"",""osversion"":""10.15.7"",""a"":true}","9:22:12","1","3","Test_4","74","j","1","2084.5","1792 x 1120","1792 x 1120","true","1","10","","","","",""
"null","<p style=""font-size: 80px;"">+ 10 points</p>","null","html-keyboard-response","98","781641","0.0-11.0-2.97","6130a32cd30a251765045601","fbrb3h","JK","65","F","{""name"":""Chrome"",""chrome"":true,""version"":""106.0"",""blink"":true,""mac"":true,""osname"":""macOS"",""osversion"":""10.15.7"",""a"":true}","9:22:12","1","3","Test_4","74","j","1","1673.300000011921","1792 x 1120","1792 x 1120","true","1","10","","","","",""
"null","<p style=""font-size: 80px;"">+ 10 points</p>","null","html-keyboard-response","99","784590","0.0-11.0-2.98","6130a32cd30a251765045601","fbrb3h","JK","65","F","{""name"":""Chrome"",""chrome"":true,""version"":""106.0"",""blink"":true,""mac"":true,""osname"":""macOS"",""osversion"":""10.15.7"",""a"":true}","9:22:12","1","3","Test_4","74","j","1","944.1000000238419","1792 x 1120","1792 x 1120","true","1","10","","","","",""
"null","<p style=""font-size: 80px;"">+ 10 points</p>","null","html-keyboard-response","100","787273","0.0-11.0-2.99","6130a32cd30a251765045601","fbrb3h","JK","65","F","{""name"":""Chrome"",""chrome"":true,""version"":""106.0"",""blink"":true,""mac"":true,""osname"":""macOS"",""osversion"":""10.15.7"",""a"":true}","9:22:12","1","3","Test_4","74","j","1","675.3000000119209","1792 x 1120","1792 x 1120","true","1","10","","","","",""
"null","<p style=""font-size: 80px;"">+ 10 points</p>","null","html-keyboard-response","101","790820","0.0-11.0-2.100","6130a32cd30a251765045601","fbrb3h","JK","65","F","{""name"":""Chrome"",""chrome"":true,""version"":""106.0"",""blink"":true,""mac"":true,""osname"":""macOS"",""osversion"":""10.15.7"",""a"":true}","9:22:12","1","3","Test_2","74","j","1","1541.3999999761581","1792 x 1120","1792 x 1120","true","1","10","","","","",""
"null","<p style=""font-size: 80px;"">+ 10 points</p>","null","html-keyboard-response","102","794041","0.0-11.0-2.101","6130a32cd30a251765045601","fbrb3h","JK","65","F","{""name"":""Chrome"",""chrome"":true,""version"":""106.0"",""blink"":true,""mac"":true,""osname"":""macOS"",""osversion"":""10.15.7"",""a"":true}","9:22:12","1","3","Test_3","70","f","1","1213.300000011921","1792 x 1120","1792 x 1120","true","1","10","","","","",""
"null","<p style=""font-size: 80px;"">+ 10 points</p>","null","html-keyboard-response","103","796857","0.0-11.0-2.102","6130a32cd30a251765045601","fbrb3h","JK","65","F","{""name"":""Chrome"",""chrome"":true,""version"":""106.0"",""blink"":true,""mac"":true,""osname"":""macOS"",""osversion"":""10.15.7"",""a"":true}","9:22:12","1","3","Test_3","70","f","1","809.6000000238419","1792 x 1120","1792 x 1120","true","1","10","","","","",""
"null","<p style=""font-size: 80px;"">+ 10 points</p>","null","html-keyboard-response","104","800025","0.0-11.0-2.103","6130a32cd30a251765045601","fbrb3h","JK","65","F","{""name"":""Chrome"",""chrome"":true,""version"":""106.0"",""blink"":true,""mac"":true,""osname"":""macOS"",""osversion"":""10.15.7"",""a"":true}","9:22:12","1","3","Test_3","70","f","1","1159","1792 x 1120","1792 x 1120","true","1","10","","","","",""
"null","<p style=""font-size: 80px;"">+ 10 points</p>","null","html-keyboard-response","105","802903","0.0-11.0-2.104","6130a32cd30a251765045601","fbrb3h","JK","65","F","{""name"":""Chrome"",""chrome"":true,""version"":""106.0"",""blink"":true,""mac"":true,""osname"":""macOS"",""osversion"":""10.15.7"",""a"":true}","9:22:12","1","3","Test_3","70","f","1","870.2000000476837","1792 x 1120","1792 x 1120","true","1","10","","","","",""
"null","<p style=""font-size: 80px;"">+ 0 points</p>","null","html-keyboard-response","106","806447","0.0-11.0-2.105","6130a32cd30a251765045601","fbrb3h","JK","65","F","{""name"":""Chrome"",""chrome"":true,""version"":""106.0"",""blink"":true,""mac"":true,""osname"":""macOS"",""osversion"":""10.15.7"",""a"":true}","9:22:12","1","4","Test_1","70","j","0","1535.5","1792 x 1120","1792 x 1120","true","1","0","","","","",""
"null","<p style=""font-size: 80px;"">+ 10 points</p>","null","html-keyboard-response","107","809252","0.0-11.0-2.106","6130a32cd30a251765045601","fbrb3h","JK","65","F","{""name"":""Chrome"",""chrome"":true,""version"":""106.0"",""blink"":true,""mac"":true,""osname"":""macOS"",""osversion"":""10.15.7"",""a"":true}","9:22:12","1","4","Test_1","74","j","1","796.6000000238419","1792 x 1120","1792 x 1120","true","1","10","","","","",""
"null","<p style=""font-size: 80px;"">+ 10 points</p>","null","html-keyboard-response","108","812025","0.0-11.0-2.107","6130a32cd30a251765045601","fbrb3h","JK","65","F","{""name"":""Chrome"",""chrome"":true,""version"":""106.0"",""blink"":true,""mac"":true,""osname"":""macOS"",""osversion"":""10.15.7"",""a"":true}","9:22:12","1","4","Test_1","74","j","1","764.5","1792 x 1120","1792 x 1120","true","1","10","","","","",""
"null","<p style=""font-size: 80px;"">+ 10 points</p>","null","html-keyboard-response","109","815199","0.0-11.0-2.108","6130a32cd30a251765045601","fbrb3h","JK","65","F","{""name"":""Chrome"",""chrome"":true,""version"":""106.0"",""blink"":true,""mac"":true,""osname"":""macOS"",""osversion"":""10.15.7"",""a"":true}","9:22:12","1","4","Test_4","70","f","1","1164.6000000238419","1792 x 1120","1792 x 1120","true","1","10","","","","",""
"null","<p style=""font-size: 80px;"">+ 10 points</p>","null","html-keyboard-response","110","827140","0.0-11.0-2.109","6130a32cd30a251765045601","fbrb3h","JK","65","F","{""name"":""Chrome"",""chrome"":true,""version"":""106.0"",""blink"":true,""mac"":true,""osname"":""macOS"",""osversion"":""10.15.7"",""a"":true}","9:22:12","1","4","Test_2","70","f","1","2421.100000023842","1792 x 1120","1792 x 1120","true","1","10","","","","",""
"null","<p style=""font-size: 80px;"">+ 10 points</p>","null","html-keyboard-response","111","830020","0.0-11.0-2.110","6130a32cd30a251765045601","fbrb3h","JK","65","F","{""name"":""Chrome"",""chrome"":true,""version"":""106.0"",""blink"":true,""mac"":true,""osname"":""macOS"",""osversion"":""10.15.7"",""a"":true}","9:22:12","1","4","Test_2","70","f","1","870.6999999880791","1792 x 1120","1792 x 1120","true","1","10","","","","",""
"null","<p style=""font-size: 80px;"">+ 10 points</p>","null","html-keyboard-response","112","832806","0.0-11.0-2.111","6130a32cd30a251765045601","fbrb3h","JK","65","F","{""name"":""Chrome"",""chrome"":true,""version"":""106.0"",""blink"":true,""mac"":true,""osname"":""macOS"",""osversion"":""10.15.7"",""a"":true}","9:22:12","1","4","Test_2","70","f","1","777.5999999642372","1792 x 1120","1792 x 1120","true","1","10","","","","",""
"null","<p style=""font-size: 80px;"">+ 10 points</p>","null","html-keyboard-response","113","835593","0.0-11.0-2.112","6130a32cd30a251765045601","fbrb3h","JK","65","F","{""name"":""Chrome"",""chrome"":true,""version"":""106.0"",""blink"":true,""mac"":true,""osname"":""macOS"",""osversion"":""10.15.7"",""a"":true}","9:22:12","1","4","Test_2","70","f","1","778.1000000238419","1792 x 1120","1792 x 1120","true","1","10","","","","",""
"null","<p style=""font-size: 80px;"">+ 10 points</p>","null","html-keyboard-response","114","839066","0.0-11.0-2.113","6130a32cd30a251765045601","fbrb3h","JK","65","F","{""name"":""Chrome"",""chrome"":true,""version"":""106.0"",""blink"":true,""mac"":true,""osname"":""macOS"",""osversion"":""10.15.7"",""a"":true}","9:22:12","1","4","Test_1","74","j","1","1463.800000011921","1792 x 1120","1792 x 1120","true","1","10","","","","",""
"null","<p style=""font-size: 80px;"">+ 10 points</p>","null","html-keyboard-response","115","842404","0.0-11.0-2.114","6130a32cd30a251765045601","fbrb3h","JK","65","F","{""name"":""Chrome"",""chrome"":true,""version"":""106.0"",""blink"":true,""mac"":true,""osname"":""macOS"",""osversion"":""10.15.7"",""a"":true}","9:22:12","1","4","Test_4","70","f","1","1329.3999999761581","1792 x 1120","1792 x 1120","true","1","10","","","","",""
"null","<p style=""font-size: 80px;"">+ 10 points</p>","null","html-keyboard-response","116","845631","0.0-11.0-2.115","6130a32cd30a251765045601","fbrb3h","JK","65","F","{""name"":""Chrome"",""chrome"":true,""version"":""106.0"",""blink"":true,""mac"":true,""osname"":""macOS"",""osversion"":""10.15.7"",""a"":true}","9:22:12","1","4","Test_3","74","j","1","1220.4000000357628","1792 x 1120","1792 x 1120","true","1","10","","","","",""
"null","<p style=""font-size: 80px;"">+ 10 points</p>","null","html-keyboard-response","117","848612","0.0-11.0-2.116","6130a32cd30a251765045601","fbrb3h","JK","65","F","{""name"":""Chrome"",""chrome"":true,""version"":""106.0"",""blink"":true,""mac"":true,""osname"":""macOS"",""osversion"":""10.15.7"",""a"":true}","9:22:12","1","4","Test_3","74","j","1","973.6999999880791","1792 x 1120","1792 x 1120","true","1","10","","","","",""
"null","<p style=""font-size: 80px;"">+ 10 points</p>","null","html-keyboard-response","118","851450","0.0-11.0-2.117","6130a32cd30a251765045601","fbrb3h","JK","65","F","{""name"":""Chrome"",""chrome"":true,""version"":""106.0"",""blink"":true,""mac"":true,""osname"":""macOS"",""osversion"":""10.15.7"",""a"":true}","9:22:12","1","4","Test_3","74","j","1","829.8000000119209","1792 x 1120","1792 x 1120","true","1","10","","","","",""
"null","<p style=""font-size: 80px;"">+ 10 points</p>","null","html-keyboard-response","119","855215","0.0-11.0-2.118","6130a32cd30a251765045601","fbrb3h","JK","65","F","{""name"":""Chrome"",""chrome"":true,""version"":""106.0"",""blink"":true,""mac"":true,""osname"":""macOS"",""osversion"":""10.15.7"",""a"":true}","9:22:12","1","4","Test_1","74","j","1","1759.699999988079","1792 x 1120","1792 x 1120","true","1","10","","","","",""
"null","<p style=""font-size: 80px;"">+ 10 points</p>","null","html-keyboard-response","120","858666","0.0-11.0-2.119","6130a32cd30a251765045601","fbrb3h","JK","65","F","{""name"":""Chrome"",""chrome"":true,""version"":""106.0"",""blink"":true,""mac"":true,""osname"":""macOS"",""osversion"":""10.15.7"",""a"":true}","9:22:12","1","4","Test_4","70","f","1","1445.0999999642372","1792 x 1120","1792 x 1120","true","1","10","","","","",""
"null","<p style=""font-size: 80px;"">+ 10 points</p>","null","html-keyboard-response","121","861551","0.0-11.0-2.120","6130a32cd30a251765045601","fbrb3h","JK","65","F","{""name"":""Chrome"",""chrome"":true,""version"":""106.0"",""blink"":true,""mac"":true,""osname"":""macOS"",""osversion"":""10.15.7"",""a"":true}","9:22:12","1","4","Test_4","70","f","1","879.8000000119209","1792 x 1120","1792 x 1120","true","1","10","","","","",""
"null","<p style=""font-size: 80px;"">+ 10 points</p>","null","html-keyboard-response","122","864394","0.0-11.0-2.121","6130a32cd30a251765045601","fbrb3h","JK","65","F","{""name"":""Chrome"",""chrome"":true,""version"":""106.0"",""blink"":true,""mac"":true,""osname"":""macOS"",""osversion"":""10.15.7"",""a"":true}","9:22:12","1","4","Test_4","70","f","1","836.5999999642372","1792 x 1120","1792 x 1120","true","1","10","","","","",""
"null","<p style=""font-size: 80px;"">+ 10 points</p>","null","html-keyboard-response","123","867381","0.0-11.0-2.122","6130a32cd30a251765045601","fbrb3h","JK","65","F","{""name"":""Chrome"",""chrome"":true,""version"":""106.0"",""blink"":true,""mac"":true,""osname"":""macOS"",""osversion"":""10.15.7"",""a"":true}","9:22:12","1","4","Test_3","74","j","1","980.3000000119209","1792 x 1120","1792 x 1120","true","1","10","","","","",""
"null","<p style=""font-size: 80px;"">+ 10 points</p>","null","html-keyboard-response","124","870709","0.0-11.0-2.123","6130a32cd30a251765045601","fbrb3h","JK","65","F","{""name"":""Chrome"",""chrome"":true,""version"":""106.0"",""blink"":true,""mac"":true,""osname"":""macOS"",""osversion"":""10.15.7"",""a"":true}","9:22:12","1","4","Test_3","74","j","1","1323","1792 x 1120","1792 x 1120","true","1","10","","","","",""
"null","<p style=""font-size: 80px;"">+ 10 points</p>","null","html-keyboard-response","125","874127","0.0-11.0-2.124","6130a32cd30a251765045601","fbrb3h","JK","65","F","{""name"":""Chrome"",""chrome"":true,""version"":""106.0"",""blink"":true,""mac"":true,""osname"":""macOS"",""osversion"":""10.15.7"",""a"":true}","9:22:12","1","4","Test_3","74","j","1","1411.9000000357628","1792 x 1120","1792 x 1120","true","1","10","","","","",""
"null","<p style=""font-size: 80px;"">+ 10 points</p>","null","html-keyboard-response","126","876949","0.0-11.0-2.125","6130a32cd30a251765045601","fbrb3h","JK","65","F","{""name"":""Chrome"",""chrome"":true,""version"":""106.0"",""blink"":true,""mac"":true,""osname"":""macOS"",""osversion"":""10.15.7"",""a"":true}","9:22:12","1","4","Test_4","70","f","1","815.7999999523163","1792 x 1120","1792 x 1120","true","1","10","","","","",""
"null","<p style=""font-size: 80px;"">+ 10 points</p>","null","html-keyboard-response","127","881856","0.0-11.0-2.126","6130a32cd30a251765045601","fbrb3h","JK","65","F","{""name"":""Chrome"",""chrome"":true,""version"":""106.0"",""blink"":true,""mac"":true,""osname"":""macOS"",""osversion"":""10.15.7"",""a"":true}","9:22:12","1","4","Test_2","70","f","1","2900.300000011921","1792 x 1120","1792 x 1120","true","1","10","","","","",""
"null","<p style=""font-size: 80px;"">+ 10 points</p>","null","html-keyboard-response","128","885498","0.0-11.0-2.127","6130a32cd30a251765045601","fbrb3h","JK","65","F","{""name"":""Chrome"",""chrome"":true,""version"":""106.0"",""blink"":true,""mac"":true,""osname"":""macOS"",""osversion"":""10.15.7"",""a"":true}","9:22:12","1","4","Test_1","74","j","1","1635.4000000357628","1792 x 1120","1792 x 1120","true","1","10","","","","",""
"null","<p style=""font-size: 80px;"">+ 10 points</p>","null","html-keyboard-response","129","888218","0.0-11.0-2.128","6130a32cd30a251765045601","fbrb3h","JK","65","F","{""name"":""Chrome"",""chrome"":true,""version"":""106.0"",""blink"":true,""mac"":true,""osname"":""macOS"",""osversion"":""10.15.7"",""a"":true}","9:22:12","1","4","Test_2","70","f","1","711.5","1792 x 1120","1792 x 1120","true","1","10","","","","",""
"null","<p style=""font-size: 80px;"">+ 0 points</p>","null","html-keyboard-response","130","892512","0.0-11.0-2.129","6130a32cd30a251765045601","fbrb3h","JK","65","F","{""name"":""Chrome"",""chrome"":true,""version"":""106.0"",""blink"":true,""mac"":true,""osname"":""macOS"",""osversion"":""10.15.7"",""a"":true}","9:22:12","1","3","Test_3","74","f","0","2284.699999988079","1792 x 1120","1792 x 1120","true","1","0","","","","",""
"null","<p style=""font-size: 80px;"">+ 10 points</p>","null","html-keyboard-response","131","895768","0.0-11.0-2.130","6130a32cd30a251765045601","fbrb3h","JK","65","F","{""name"":""Chrome"",""chrome"":true,""version"":""106.0"",""blink"":true,""mac"":true,""osname"":""macOS"",""osversion"":""10.15.7"",""a"":true}","9:22:12","1","3","Test_2","74","j","1","1248.300000011921","1792 x 1120","1792 x 1120","true","1","10","","","","",""
"null","<p style=""font-size: 80px;"">+ 10 points</p>","null","html-keyboard-response","132","898469","0.0-11.0-2.131","6130a32cd30a251765045601","fbrb3h","JK","65","F","{""name"":""Chrome"",""chrome"":true,""version"":""106.0"",""blink"":true,""mac"":true,""osname"":""macOS"",""osversion"":""10.15.7"",""a"":true}","9:22:12","1","3","Test_2","74","j","1","694.4000000357628","1792 x 1120","1792 x 1120","true","1","10","","","","",""
"null","<p style=""font-size: 80px;"">+ 10 points</p>","null","html-keyboard-response","133","901429","0.0-11.0-2.132","6130a32cd30a251765045601","fbrb3h","JK","65","F","{""name"":""Chrome"",""chrome"":true,""version"":""106.0"",""blink"":true,""mac"":true,""osname"":""macOS"",""osversion"":""10.15.7"",""a"":true}","9:22:12","1","3","Test_1","70","f","1","951.8000000119209","1792 x 1120","1792 x 1120","true","1","10","","","","",""
"null","<p style=""font-size: 80px;"">+ 10 points</p>","null","html-keyboard-response","134","904809","0.0-11.0-2.133","6130a32cd30a251765045601","fbrb3h","JK","65","F","{""name"":""Chrome"",""chrome"":true,""version"":""106.0"",""blink"":true,""mac"":true,""osname"":""macOS"",""osversion"":""10.15.7"",""a"":true}","9:22:12","1","3","Test_3","70","f","1","1373","1792 x 1120","1792 x 1120","true","1","10","","","","",""
"null","<p style=""font-size: 80px;"">+ 10 points</p>","null","html-keyboard-response","135","908075","0.0-11.0-2.134","6130a32cd30a251765045601","fbrb3h","JK","65","F","{""name"":""Chrome"",""chrome"":true,""version"":""106.0"",""blink"":true,""mac"":true,""osname"":""macOS"",""osversion"":""10.15.7"",""a"":true}","9:22:12","1","3","Test_4","74","j","1","1255.3999999761581","1792 x 1120","1792 x 1120","true","1","10","","","","",""
"null","<p style=""font-size: 80px;"">+ 10 points</p>","null","html-keyboard-response","136","910864","0.0-11.0-2.135","6130a32cd30a251765045601","fbrb3h","JK","65","F","{""name"":""Chrome"",""chrome"":true,""version"":""106.0"",""blink"":true,""mac"":true,""osname"":""macOS"",""osversion"":""10.15.7"",""a"":true}","9:22:12","1","3","Test_2","74","j","1","781.6999999880791","1792 x 1120","1792 x 1120","true","1","10","","","","",""
"null","<p style=""font-size: 80px;"">+ 10 points</p>","null","html-keyboard-response","137","915574","0.0-11.0-2.136","6130a32cd30a251765045601","fbrb3h","JK","65","F","{""name"":""Chrome"",""chrome"":true,""version"":""106.0"",""blink"":true,""mac"":true,""osname"":""macOS"",""osversion"":""10.15.7"",""a"":true}","9:22:12","1","3","Test_3","70","f","1","2705.2000000476837","1792 x 1120","1792 x 1120","true","1","10","","","","",""
"null","<p style=""font-size: 80px;"">+ 10 points</p>","null","html-keyboard-response","138","918567","0.0-11.0-2.137","6130a32cd30a251765045601","fbrb3h","JK","65","F","{""name"":""Chrome"",""chrome"":true,""version"":""106.0"",""blink"":true,""mac"":true,""osname"":""macOS"",""osversion"":""10.15.7"",""a"":true}","9:22:12","1","3","Test_4","74","j","1","986","1792 x 1120","1792 x 1120","true","1","10","","","","",""
"null","<p style=""font-size: 80px;"">+ 10 points</p>","null","html-keyboard-response","139","922726","0.0-11.0-2.138","6130a32cd30a251765045601","fbrb3h","JK","65","F","{""name"":""Chrome"",""chrome"":true,""version"":""106.0"",""blink"":true,""mac"":true,""osname"":""macOS"",""osversion"":""10.15.7"",""a"":true}","9:22:12","1","3","Test_4","74","j","1","2148.300000011921","1792 x 1120","1792 x 1120","true","1","10","","","","",""
"null","<p style=""font-size: 80px;"">+ 10 points</p>","null","html-keyboard-response","140","925696","0.0-11.0-2.139","6130a32cd30a251765045601","fbrb3h","JK","65","F","{""name"":""Chrome"",""chrome"":true,""version"":""106.0"",""blink"":true,""mac"":true,""osname"":""macOS"",""osversion"":""10.15.7"",""a"":true}","9:22:12","1","3","Test_1","70","f","1","964.5999999642372","1792 x 1120","1792 x 1120","true","1","10","","","","",""
"null","<p style=""font-size: 80px;"">+ 10 points</p>","null","html-keyboard-response","141","928710","0.0-11.0-2.140","6130a32cd30a251765045601","fbrb3h","JK","65","F","{""name"":""Chrome"",""chrome"":true,""version"":""106.0"",""blink"":true,""mac"":true,""osname"":""macOS"",""osversion"":""10.15.7"",""a"":true}","9:22:12","1","3","Test_4","74","j","1","1008.1999999880791","1792 x 1120","1792 x 1120","true","1","10","","","","",""
"null","<p style=""font-size: 80px;"">+ 10 points</p>","null","html-keyboard-response","142","932129","0.0-11.0-2.141","6130a32cd30a251765045601","fbrb3h","JK","65","F","{""name"":""Chrome"",""chrome"":true,""version"":""106.0"",""blink"":true,""mac"":true,""osname"":""macOS"",""osversion"":""10.15.7"",""a"":true}","9:22:12","1","3","Test_3","70","f","1","1412.2000000476837","1792 x 1120","1792 x 1120","true","1","10","","","","",""
"null","<p style=""font-size: 80px;"">+ 10 points</p>","null","html-keyboard-response","143","935216","0.0-11.0-2.142","6130a32cd30a251765045601","fbrb3h","JK","65","F","{""name"":""Chrome"",""chrome"":true,""version"":""106.0"",""blink"":true,""mac"":true,""osname"":""macOS"",""osversion"":""10.15.7"",""a"":true}","9:22:12","1","3","Test_1","70","f","1","1080.800000011921","1792 x 1120","1792 x 1120","true","1","10","","","","",""
"null","<p style=""font-size: 80px;"">+ 0 points</p>","null","html-keyboard-response","144","938725","0.0-11.0-2.143","6130a32cd30a251765045601","fbrb3h","JK","65","F","{""name"":""Chrome"",""chrome"":true,""version"":""106.0"",""blink"":true,""mac"":true,""osname"":""macOS"",""osversion"":""10.15.7"",""a"":true}","9:22:12","1","3","Test_2","70","j","0","1498.1000000238419","1792 x 1120","1792 x 1120","true","1","0","","","","",""
"null","<p style=""font-size: 80px;"">+ 10 points</p>","null","html-keyboard-response","145","942641","0.0-11.0-2.144","6130a32cd30a251765045601","fbrb3h","JK","65","F","{""name"":""Chrome"",""chrome"":true,""version"":""106.0"",""blink"":true,""mac"":true,""osname"":""macOS"",""osversion"":""10.15.7"",""a"":true}","9:22:12","1","3","Test_1","70","f","1","1909.800000011921","1792 x 1120","1792 x 1120","true","1","10","","","","",""
"null","<p style=""font-size: 80px;"">+ 0 points</p>","null","html-keyboard-response","146","945313","0.0-11.0-2.145","6130a32cd30a251765045601","fbrb3h","JK","65","F","{""name"":""Chrome"",""chrome"":true,""version"":""106.0"",""blink"":true,""mac"":true,""osname"":""macOS"",""osversion"":""10.15.7"",""a"":true}","9:22:12","1","4","Test_2","74","f","0","664.5","1792 x 1120","1792 x 1120","true","1","0","","","","",""
"null","<p style=""font-size: 80px;"">+ 10 points</p>","null","html-keyboard-response","147","949179","0.0-11.0-2.146","6130a32cd30a251765045601","fbrb3h","JK","65","F","{""name"":""Chrome"",""chrome"":true,""version"":""106.0"",""blink"":true,""mac"":true,""osname"":""macOS"",""osversion"":""10.15.7"",""a"":true}","9:22:12","1","4","Test_2","70","f","1","1862.6000000238419","1792 x 1120","1792 x 1120","true","1","10","","","","",""
