"rt","stimulus","key_press","trial_type","trial_index","time_elapsed","internal_node_id","Prolific_ID","random_ID","initials","age","gender","pc_info","start_time","Phase","Rule","Stimulus","Response","CorrResp","Accuracy","ResponseTime","screen_resolution","window_resolution","focus","relevant","Points","responses","question_order","rev_check","butterfly_check","passed_practice"
"null","<p style=""font-size: 80px;"">+ 0 points</p>","null","html-keyboard-response","1","128225","0.0-7.0-2.0","5a75a77817ef3500016ffd06","msd4ak","NS","58","M","{""name"":""Chrome"",""chrome"":true,""version"":""106.0"",""blink"":true,""windows"":true,""osname"":""Windows"",""osversion"":""8.1"",""a"":true}","9:21:24","0","1","Practice_4","70","j","0","2034.4000000953674","1366 x 768","1366 x 768","true","1","0","","","","",""
"null","<p style=""font-size: 80px;"">+ 10 points</p>","null","html-keyboard-response","2","132425","0.0-7.0-2.1","5a75a77817ef3500016ffd06","msd4ak","NS","58","M","{""name"":""Chrome"",""chrome"":true,""version"":""106.0"",""blink"":true,""windows"":true,""osname"":""Windows"",""osversion"":""8.1"",""a"":true}","9:21:24","0","1","Practice_3","70","f","1","2187.7000002861023","1366 x 768","1366 x 768","true","1","10","","","","",""
"null","<p style=""font-size: 80px;"">+ 10 points</p>","null","html-keyboard-response","3","136604","0.0-7.0-2.2","5a75a77817ef3500016ffd06","msd4ak","NS","58","M","{""name"":""Chrome"",""chrome"":true,""version"":""106.0"",""blink"":true,""windows"":true,""osname"":""Windows"",""osversion"":""8.1"",""a"":true}","9:21:24","0","1","Practice_2","74","j","1","2168.4000000953674","1366 x 768","1366 x 768","true","1","10","","","","",""
"null","<p style=""font-size: 80px;"">+ 10 points</p>","null","html-keyboard-response","4","140251","0.0-7.0-2.3","5a75a77817ef3500016ffd06","msd4ak","NS","58","M","{""name"":""Chrome"",""chrome"":true,""version"":""106.0"",""blink"":true,""windows"":true,""osname"":""Windows"",""osversion"":""8.1"",""a"":true}","9:21:24","0","1","Practice_1","70","f","1","1641","1366 x 768","1366 x 768","true","1","10","","","","",""
"null","<p style=""font-size: 80px;"">+ 10 points</p>","null","html-keyboard-response","5","143291","0.0-7.0-2.4","5a75a77817ef3500016ffd06","msd4ak","NS","58","M","{""name"":""Chrome"",""chrome"":true,""version"":""106.0"",""blink"":true,""windows"":true,""osname"":""Windows"",""osversion"":""8.1"",""a"":true}","9:21:24","0","1","Practice_2","74","j","1","1031.6000003814697","1366 x 768","1366 x 768","true","1","10","","","","",""
"null","<p style=""font-size: 80px;"">+ 10 points</p>","null","html-keyboard-response","6","146877","0.0-7.0-2.5","5a75a77817ef3500016ffd06","msd4ak","NS","58","M","{""name"":""Chrome"",""chrome"":true,""version"":""106.0"",""blink"":true,""windows"":true,""osname"":""Windows"",""osversion"":""8.1"",""a"":true}","9:21:24","0","1","Practice_4","74","j","1","1580.2000002861023","1366 x 768","1366 x 768","true","1","10","","","","",""
"null","<p style=""font-size: 80px;"">+ 10 points</p>","null","html-keyboard-response","7","149965","0.0-7.0-2.6","5a75a77817ef3500016ffd06","msd4ak","NS","58","M","{""name"":""Chrome"",""chrome"":true,""version"":""106.0"",""blink"":true,""windows"":true,""osname"":""Windows"",""osversion"":""8.1"",""a"":true}","9:21:24","0","1","Practice_3","70","f","1","1078.7000002861023","1366 x 768","1366 x 768","true","1","10","","","","",""
"null","<p style=""font-size: 80px;"">+ 10 points</p>","null","html-keyboard-response","8","152862","0.0-7.0-2.7","5a75a77817ef3500016ffd06","msd4ak","NS","58","M","{""name"":""Chrome"",""chrome"":true,""version"":""106.0"",""blink"":true,""windows"":true,""osname"":""Windows"",""osversion"":""8.1"",""a"":true}","9:21:24","0","1","Practice_2","74","j","1","857.5","1366 x 768","1366 x 768","true","1","10","","","","",""
"null","<p style=""font-size: 80px;"">+ 10 points</p>","null","html-keyboard-response","9","155775","0.0-7.0-2.8","5a75a77817ef3500016ffd06","msd4ak","NS","58","M","{""name"":""Chrome"",""chrome"":true,""version"":""106.0"",""blink"":true,""windows"":true,""osname"":""Windows"",""osversion"":""8.1"",""a"":true}","9:21:24","0","1","Practice_3","70","f","1","899.5","1366 x 768","1366 x 768","true","1","10","","","","",""
"null","<p style=""font-size: 80px;"">+ 10 points</p>","null","html-keyboard-response","10","158773","0.0-7.0-2.9","5a75a77817ef3500016ffd06","msd4ak","NS","58","M","{""name"":""Chrome"",""chrome"":true,""version"":""106.0"",""blink"":true,""windows"":true,""osname"":""Windows"",""osversion"":""8.1"",""a"":true}","9:21:24","0","1","Practice_1","70","f","1","990","1366 x 768","1366 x 768","true","1","10","","","","",""
"null","<p style=""font-size: 80px;"">+ 10 points</p>","null","html-keyboard-response","11","161533","0.0-7.0-2.10","5a75a77817ef3500016ffd06","msd4ak","NS","58","M","{""name"":""Chrome"",""chrome"":true,""version"":""106.0"",""blink"":true,""windows"":true,""osname"":""Windows"",""osversion"":""8.1"",""a"":true}","9:21:24","0","1","Practice_1","70","f","1","743.3000001907349","1366 x 768","1366 x 768","true","1","10","","","","",""
"null","<p style=""font-size: 80px;"">+ 10 points</p>","null","html-keyboard-response","12","164198","0.0-7.0-2.11","5a75a77817ef3500016ffd06","msd4ak","NS","58","M","{""name"":""Chrome"",""chrome"":true,""version"":""106.0"",""blink"":true,""windows"":true,""osname"":""Windows"",""osversion"":""8.1"",""a"":true}","9:21:24","0","1","Practice_2","74","j","1","654.5","1366 x 768","1366 x 768","true","1","10","","","","",""
"null","<p style=""font-size: 80px;"">+ 10 points</p>","null","html-keyboard-response","13","167188","0.0-7.0-2.12","5a75a77817ef3500016ffd06","msd4ak","NS","58","M","{""name"":""Chrome"",""chrome"":true,""version"":""106.0"",""blink"":true,""windows"":true,""osname"":""Windows"",""osversion"":""8.1"",""a"":true}","9:21:24","0","1","Practice_1","70","f","1","983.9000000953674","1366 x 768","1366 x 768","true","1","10","","","","",""
"null","<p style=""font-size: 80px;"">+ 10 points</p>","null","html-keyboard-response","14","170026","0.0-7.0-2.13","5a75a77817ef3500016ffd06","msd4ak","NS","58","M","{""name"":""Chrome"",""chrome"":true,""version"":""106.0"",""blink"":true,""windows"":true,""osname"":""Windows"",""osversion"":""8.1"",""a"":true}","9:21:24","0","1","Practice_3","70","f","1","831.5999999046326","1366 x 768","1366 x 768","true","1","10","","","","",""
"null","<p style=""font-size: 80px;"">+ 10 points</p>","null","html-keyboard-response","15","172698","0.0-7.0-2.14","5a75a77817ef3500016ffd06","msd4ak","NS","58","M","{""name"":""Chrome"",""chrome"":true,""version"":""106.0"",""blink"":true,""windows"":true,""osname"":""Windows"",""osversion"":""8.1"",""a"":true}","9:21:24","0","1","Practice_3","70","f","1","665.5999999046326","1366 x 768","1366 x 768","true","1","10","","","","",""
"null","<p style=""font-size: 80px;"">+ 10 points</p>","null","html-keyboard-response","16","175402","0.0-7.0-2.15","5a75a77817ef3500016ffd06","msd4ak","NS","58","M","{""name"":""Chrome"",""chrome"":true,""version"":""106.0"",""blink"":true,""windows"":true,""osname"":""Windows"",""osversion"":""8.1"",""a"":true}","9:21:24","0","1","Practice_1","70","f","1","697.5","1366 x 768","1366 x 768","true","1","10","","","","",""
"null","<p style=""font-size: 80px;"">+ 10 points</p>","null","html-keyboard-response","17","178433","0.0-7.0-2.16","5a75a77817ef3500016ffd06","msd4ak","NS","58","M","{""name"":""Chrome"",""chrome"":true,""version"":""106.0"",""blink"":true,""windows"":true,""osname"":""Windows"",""osversion"":""8.1"",""a"":true}","9:21:24","0","1","Practice_4","74","j","1","1022.5","1366 x 768","1366 x 768","true","1","10","","","","",""
"null","<p style=""font-size: 80px;"">+ 10 points</p>","null","html-keyboard-response","18","181149","0.0-7.0-2.17","5a75a77817ef3500016ffd06","msd4ak","NS","58","M","{""name"":""Chrome"",""chrome"":true,""version"":""106.0"",""blink"":true,""windows"":true,""osname"":""Windows"",""osversion"":""8.1"",""a"":true}","9:21:24","0","1","Practice_4","74","j","1","703.8000001907349","1366 x 768","1366 x 768","true","1","10","","","","",""
"null","<p style=""font-size: 80px;"">+ 10 points</p>","null","html-keyboard-response","19","183804","0.0-7.0-2.18","5a75a77817ef3500016ffd06","msd4ak","NS","58","M","{""name"":""Chrome"",""chrome"":true,""version"":""106.0"",""blink"":true,""windows"":true,""osname"":""Windows"",""osversion"":""8.1"",""a"":true}","9:21:24","0","1","Practice_4","74","j","1","649.8999996185303","1366 x 768","1366 x 768","true","1","10","","","","",""
"null","<p style=""font-size: 80px;"">+ 10 points</p>","null","html-keyboard-response","20","186600","0.0-7.0-2.19","5a75a77817ef3500016ffd06","msd4ak","NS","58","M","{""name"":""Chrome"",""chrome"":true,""version"":""106.0"",""blink"":true,""windows"":true,""osname"":""Windows"",""osversion"":""8.1"",""a"":true}","9:21:24","0","1","Practice_2","74","j","1","778.5","1366 x 768","1366 x 768","true","1","10","","","","",""
"null","<p style=""font-size: 80px;"">+ 0 points</p>","null","html-keyboard-response","21","189312","0.0-7.0-2.20","5a75a77817ef3500016ffd06","msd4ak","NS","58","M","{""name"":""Chrome"",""chrome"":true,""version"":""106.0"",""blink"":true,""windows"":true,""osname"":""Windows"",""osversion"":""8.1"",""a"":true}","9:21:24","0","2","Practice_2","74","f","0","704.8000001907349","1366 x 768","1366 x 768","true","1","0","","","","",""
"null","<p style=""font-size: 80px;"">+ 0 points</p>","null","html-keyboard-response","22","192695","0.0-7.0-2.21","5a75a77817ef3500016ffd06","msd4ak","NS","58","M","{""name"":""Chrome"",""chrome"":true,""version"":""106.0"",""blink"":true,""windows"":true,""osname"":""Windows"",""osversion"":""8.1"",""a"":true}","9:21:24","0","2","Practice_4","74","f","0","1372.1999998092651","1366 x 768","1366 x 768","true","1","0","","","","",""
"null","<p style=""font-size: 80px;"">+ 10 points</p>","null","html-keyboard-response","23","195813","0.0-7.0-2.22","5a75a77817ef3500016ffd06","msd4ak","NS","58","M","{""name"":""Chrome"",""chrome"":true,""version"":""106.0"",""blink"":true,""windows"":true,""osname"":""Windows"",""osversion"":""8.1"",""a"":true}","9:21:24","0","2","Practice_3","74","j","1","1103.4000000953674","1366 x 768","1366 x 768","true","1","10","","","","",""
"null","<p style=""font-size: 80px;"">+ 10 points</p>","null","html-keyboard-response","24","198841","0.0-7.0-2.23","5a75a77817ef3500016ffd06","msd4ak","NS","58","M","{""name"":""Chrome"",""chrome"":true,""version"":""106.0"",""blink"":true,""windows"":true,""osname"":""Windows"",""osversion"":""8.1"",""a"":true}","9:21:24","0","2","Practice_1","74","j","1","1021.4000000953674","1366 x 768","1366 x 768","true","1","10","","","","",""
"null","<p style=""font-size: 80px;"">+ 10 points</p>","null","html-keyboard-response","25","201786","0.0-7.0-2.24","5a75a77817ef3500016ffd06","msd4ak","NS","58","M","{""name"":""Chrome"",""chrome"":true,""version"":""106.0"",""blink"":true,""windows"":true,""osname"":""Windows"",""osversion"":""8.1"",""a"":true}","9:21:24","0","2","Practice_4","70","f","1","932","1366 x 768","1366 x 768","true","1","10","","","","",""
"null","<p style=""font-size: 80px;"">+ 10 points</p>","null","html-keyboard-response","26","204699","0.0-7.0-2.25","5a75a77817ef3500016ffd06","msd4ak","NS","58","M","{""name"":""Chrome"",""chrome"":true,""version"":""106.0"",""blink"":true,""windows"":true,""osname"":""Windows"",""osversion"":""8.1"",""a"":true}","9:21:24","0","2","Practice_3","74","j","1","906.7999997138977","1366 x 768","1366 x 768","true","1","10","","","","",""
"null","<p style=""font-size: 80px;"">+ 10 points</p>","null","html-keyboard-response","27","207543","0.0-7.0-2.26","5a75a77817ef3500016ffd06","msd4ak","NS","58","M","{""name"":""Chrome"",""chrome"":true,""version"":""106.0"",""blink"":true,""windows"":true,""osname"":""Windows"",""osversion"":""8.1"",""a"":true}","9:21:24","0","2","Practice_3","74","j","1","838.6000003814697","1366 x 768","1366 x 768","true","1","10","","","","",""
"null","<p style=""font-size: 80px;"">+ 10 points</p>","null","html-keyboard-response","28","210497","0.0-7.0-2.27","5a75a77817ef3500016ffd06","msd4ak","NS","58","M","{""name"":""Chrome"",""chrome"":true,""version"":""106.0"",""blink"":true,""windows"":true,""osname"":""Windows"",""osversion"":""8.1"",""a"":true}","9:21:24","0","2","Practice_3","74","j","1","947.3000001907349","1366 x 768","1366 x 768","true","1","10","","","","",""
"null","<p style=""font-size: 80px;"">+ 10 points</p>","null","html-keyboard-response","29","213343","0.0-7.0-2.28","5a75a77817ef3500016ffd06","msd4ak","NS","58","M","{""name"":""Chrome"",""chrome"":true,""version"":""106.0"",""blink"":true,""windows"":true,""osname"":""Windows"",""osversion"":""8.1"",""a"":true}","9:21:24","0","2","Practice_3","74","j","1","839.3000001907349","1366 x 768","1366 x 768","true","1","10","","","","",""
"null","<p style=""font-size: 80px;"">+ 10 points</p>","null","html-keyboard-response","30","216305","0.0-7.0-2.29","5a75a77817ef3500016ffd06","msd4ak","NS","58","M","{""name"":""Chrome"",""chrome"":true,""version"":""106.0"",""blink"":true,""windows"":true,""osname"":""Windows"",""osversion"":""8.1"",""a"":true}","9:21:24","0","2","Practice_2","70","f","1","956.4000000953674","1366 x 768","1366 x 768","true","1","10","","","","",""
"null","<p style=""font-size: 80px;"">+ 10 points</p>","null","html-keyboard-response","31","219223","0.0-7.0-2.30","5a75a77817ef3500016ffd06","msd4ak","NS","58","M","{""name"":""Chrome"",""chrome"":true,""version"":""106.0"",""blink"":true,""windows"":true,""osname"":""Windows"",""osversion"":""8.1"",""a"":true}","9:21:24","0","2","Practice_2","70","f","1","901.3000001907349","1366 x 768","1366 x 768","true","1","10","","","","",""
"null","<p style=""font-size: 80px;"">+ 10 points</p>","null","html-keyboard-response","32","222294","0.0-7.0-2.31","5a75a77817ef3500016ffd06","msd4ak","NS","58","M","{""name"":""Chrome"",""chrome"":true,""version"":""106.0"",""blink"":true,""windows"":true,""osname"":""Windows"",""osversion"":""8.1"",""a"":true}","9:21:24","0","2","Practice_1","74","j","1","1059.6999998092651","1366 x 768","1366 x 768","true","1","10","","","","",""
"null","<p style=""font-size: 80px;"">+ 0 points</p>","null","html-keyboard-response","33","225090","0.0-7.0-2.32","5a75a77817ef3500016ffd06","msd4ak","NS","58","M","{""name"":""Chrome"",""chrome"":true,""version"":""106.0"",""blink"":true,""windows"":true,""osname"":""Windows"",""osversion"":""8.1"",""a"":true}","9:21:24","0","2","Practice_4","74","f","0","781","1366 x 768","1366 x 768","true","1","0","","","","",""
"null","<p style=""font-size: 80px;"">+ 0 points</p>","null","html-keyboard-response","34","227848","0.0-7.0-2.33","5a75a77817ef3500016ffd06","msd4ak","NS","58","M","{""name"":""Chrome"",""chrome"":true,""version"":""106.0"",""blink"":true,""windows"":true,""osname"":""Windows"",""osversion"":""8.1"",""a"":true}","9:21:24","0","2","Practice_2","74","f","0","751.6999998092651","1366 x 768","1366 x 768","true","1","0","","","","",""
"null","<p style=""font-size: 80px;"">+ 10 points</p>","null","html-keyboard-response","35","232799","0.0-7.0-2.34","5a75a77817ef3500016ffd06","msd4ak","NS","58","M","{""name"":""Chrome"",""chrome"":true,""version"":""106.0"",""blink"":true,""windows"":true,""osname"":""Windows"",""osversion"":""8.1"",""a"":true}","9:21:24","0","2","Practice_1","74","j","1","2945.2999997138977","1366 x 768","1366 x 768","true","1","10","","","","",""
"null","<p style=""font-size: 80px;"">+ 10 points</p>","null","html-keyboard-response","36","235857","0.0-7.0-2.35","5a75a77817ef3500016ffd06","msd4ak","NS","58","M","{""name"":""Chrome"",""chrome"":true,""version"":""106.0"",""blink"":true,""windows"":true,""osname"":""Windows"",""osversion"":""8.1"",""a"":true}","9:21:24","0","2","Practice_1","74","j","1","1037.6999998092651","1366 x 768","1366 x 768","true","1","10","","","","",""
"null","<p style=""font-size: 80px;"">+ 10 points</p>","null","html-keyboard-response","37","238830","0.0-7.0-2.36","5a75a77817ef3500016ffd06","msd4ak","NS","58","M","{""name"":""Chrome"",""chrome"":true,""version"":""106.0"",""blink"":true,""windows"":true,""osname"":""Windows"",""osversion"":""8.1"",""a"":true}","9:21:24","0","2","Practice_2","70","f","1","962.7000002861023","1366 x 768","1366 x 768","true","1","10","","","","",""
"null","<p style=""font-size: 80px;"">+ 10 points</p>","null","html-keyboard-response","38","242737","0.0-7.0-2.37","5a75a77817ef3500016ffd06","msd4ak","NS","58","M","{""name"":""Chrome"",""chrome"":true,""version"":""106.0"",""blink"":true,""windows"":true,""osname"":""Windows"",""osversion"":""8.1"",""a"":true}","9:21:24","0","2","Practice_4","70","f","1","1898.2000002861023","1366 x 768","1366 x 768","true","1","10","","","","",""
"null","<p style=""font-size: 80px;"">+ 10 points</p>","null","html-keyboard-response","39","245608","0.0-7.0-2.38","5a75a77817ef3500016ffd06","msd4ak","NS","58","M","{""name"":""Chrome"",""chrome"":true,""version"":""106.0"",""blink"":true,""windows"":true,""osname"":""Windows"",""osversion"":""8.1"",""a"":true}","9:21:24","0","2","Practice_1","74","j","1","862.4000000953674","1366 x 768","1366 x 768","true","1","10","","","","",""
"null","<p style=""font-size: 80px;"">+ 10 points</p>","null","html-keyboard-response","40","249378","0.0-7.0-2.39","5a75a77817ef3500016ffd06","msd4ak","NS","58","M","{""name"":""Chrome"",""chrome"":true,""version"":""106.0"",""blink"":true,""windows"":true,""osname"":""Windows"",""osversion"":""8.1"",""a"":true}","9:21:24","0","2","Practice_4","70","f","1","1750.3000001907349","1366 x 768","1366 x 768","true","1","10","","","","",""
"17949.700000286102","","","survey-multi-choice","127","267332","0.0-8.0","5a75a77817ef3500016ffd06","msd4ak","NS","58","M","{""name"":""Chrome"",""chrome"":true,""version"":""106.0"",""blink"":true,""windows"":true,""osname"":""Windows"",""osversion"":""8.1"",""a"":true}","9:21:24","","","","","","","","","","","1","","{""Q0"":""The red one"",""Q1"":""1""}","[0,1]","1","The red one","2"
"null","<p style=""font-size: 80px;"">+ 0 points</p>","null","html-keyboard-response","1","285708","0.0-11.0-2.0","5a75a77817ef3500016ffd06","msd4ak","NS","58","M","{""name"":""Chrome"",""chrome"":true,""version"":""106.0"",""blink"":true,""windows"":true,""osname"":""Windows"",""osversion"":""8.1"",""a"":true}","9:21:24","1","4","Test_4","74","f","0","2752.300000190735","1366 x 768","1366 x 768","true","1","0","","","","",""
"null","<p style=""font-size: 80px;"">+ 10 points</p>","null","html-keyboard-response","2","289607","0.0-11.0-2.1","5a75a77817ef3500016ffd06","msd4ak","NS","58","M","{""name"":""Chrome"",""chrome"":true,""version"":""106.0"",""blink"":true,""windows"":true,""osname"":""Windows"",""osversion"":""8.1"",""a"":true}","9:21:24","1","4","Test_2","70","f","1","1889.5","1366 x 768","1366 x 768","true","1","10","","","","",""
"null","<p style=""font-size: 80px;"">+ 10 points</p>","null","html-keyboard-response","3","292897","0.0-11.0-2.2","5a75a77817ef3500016ffd06","msd4ak","NS","58","M","{""name"":""Chrome"",""chrome"":true,""version"":""106.0"",""blink"":true,""windows"":true,""osname"":""Windows"",""osversion"":""8.1"",""a"":true}","9:21:24","1","4","Test_4","70","f","1","1271.1999998092651","1366 x 768","1366 x 768","true","1","10","","","","",""
"null","<p style=""font-size: 80px;"">+ 10 points</p>","null","html-keyboard-response","4","297085","0.0-11.0-2.3","5a75a77817ef3500016ffd06","msd4ak","NS","58","M","{""name"":""Chrome"",""chrome"":true,""version"":""106.0"",""blink"":true,""windows"":true,""osname"":""Windows"",""osversion"":""8.1"",""a"":true}","9:21:24","1","4","Test_1","74","j","1","2175.5","1366 x 768","1366 x 768","true","1","10","","","","",""
"null","<p style=""font-size: 80px;"">+ 10 points</p>","null","html-keyboard-response","5","300172","0.0-11.0-2.4","5a75a77817ef3500016ffd06","msd4ak","NS","58","M","{""name"":""Chrome"",""chrome"":true,""version"":""106.0"",""blink"":true,""windows"":true,""osname"":""Windows"",""osversion"":""8.1"",""a"":true}","9:21:24","1","4","Test_1","74","j","1","1077.6999998092651","1366 x 768","1366 x 768","true","1","10","","","","",""
"null","<p style=""font-size: 80px;"">+ 10 points</p>","null","html-keyboard-response","6","304716","0.0-11.0-2.5","5a75a77817ef3500016ffd06","msd4ak","NS","58","M","{""name"":""Chrome"",""chrome"":true,""version"":""106.0"",""blink"":true,""windows"":true,""osname"":""Windows"",""osversion"":""8.1"",""a"":true}","9:21:24","1","4","Test_3","74","j","1","2536.4000000953674","1366 x 768","1366 x 768","true","1","10","","","","",""
"null","<p style=""font-size: 80px;"">+ 10 points</p>","null","html-keyboard-response","7","307648","0.0-11.0-2.6","5a75a77817ef3500016ffd06","msd4ak","NS","58","M","{""name"":""Chrome"",""chrome"":true,""version"":""106.0"",""blink"":true,""windows"":true,""osname"":""Windows"",""osversion"":""8.1"",""a"":true}","9:21:24","1","4","Test_4","70","f","1","919.9000000953674","1366 x 768","1366 x 768","true","1","10","","","","",""
"null","<p style=""font-size: 80px;"">+ 10 points</p>","null","html-keyboard-response","8","310938","0.0-11.0-2.7","5a75a77817ef3500016ffd06","msd4ak","NS","58","M","{""name"":""Chrome"",""chrome"":true,""version"":""106.0"",""blink"":true,""windows"":true,""osname"":""Windows"",""osversion"":""8.1"",""a"":true}","9:21:24","1","4","Test_1","74","j","1","1268.6999998092651","1366 x 768","1366 x 768","true","1","10","","","","",""
"null","<p style=""font-size: 80px;"">+ 10 points</p>","null","html-keyboard-response","9","314091","0.0-11.0-2.8","5a75a77817ef3500016ffd06","msd4ak","NS","58","M","{""name"":""Chrome"",""chrome"":true,""version"":""106.0"",""blink"":true,""windows"":true,""osname"":""Windows"",""osversion"":""8.1"",""a"":true}","9:21:24","1","4","Test_2","70","f","1","1142.7999997138977","1366 x 768","1366 x 768","true","1","10","","","","",""
"null","<p style=""font-size: 80px;"">+ 10 points</p>","null","html-keyboard-response","10","317090","0.0-11.0-2.9","5a75a77817ef3500016ffd06","msd4ak","NS","58","M","{""name"":""Chrome"",""chrome"":true,""version"":""106.0"",""blink"":true,""windows"":true,""osname"":""Windows"",""osversion"":""8.1"",""a"":true}","9:21:24","1","4","Test_3","74","j","1","989.2000002861023","1366 x 768","1366 x 768","true","1","10","","","","",""
"null","<p style=""font-size: 80px;"">+ 10 points</p>","null","html-keyboard-response","11","319939","0.0-11.0-2.10","5a75a77817ef3500016ffd06","msd4ak","NS","58","M","{""name"":""Chrome"",""chrome"":true,""version"":""106.0"",""blink"":true,""windows"":true,""osname"":""Windows"",""osversion"":""8.1"",""a"":true}","9:21:24","1","4","Test_3","74","j","1","839","1366 x 768","1366 x 768","true","1","10","","","","",""
"null","<p style=""font-size: 80px;"">+ 10 points</p>","null","html-keyboard-response","12","322758","0.0-11.0-2.11","5a75a77817ef3500016ffd06","msd4ak","NS","58","M","{""name"":""Chrome"",""chrome"":true,""version"":""106.0"",""blink"":true,""windows"":true,""osname"":""Windows"",""osversion"":""8.1"",""a"":true}","9:21:24","1","4","Test_2","70","f","1","805.1999998092651","1366 x 768","1366 x 768","true","1","10","","","","",""
"null","<p style=""font-size: 80px;"">+ 10 points</p>","null","html-keyboard-response","13","325998","0.0-11.0-2.12","5a75a77817ef3500016ffd06","msd4ak","NS","58","M","{""name"":""Chrome"",""chrome"":true,""version"":""106.0"",""blink"":true,""windows"":true,""osname"":""Windows"",""osversion"":""8.1"",""a"":true}","9:21:24","1","4","Test_2","70","f","1","1221.8000001907349","1366 x 768","1366 x 768","true","1","10","","","","",""
"null","<p style=""font-size: 80px;"">+ 10 points</p>","null","html-keyboard-response","14","328719","0.0-11.0-2.13","5a75a77817ef3500016ffd06","msd4ak","NS","58","M","{""name"":""Chrome"",""chrome"":true,""version"":""106.0"",""blink"":true,""windows"":true,""osname"":""Windows"",""osversion"":""8.1"",""a"":true}","9:21:24","1","4","Test_1","74","j","1","709.5","1366 x 768","1366 x 768","true","1","10","","","","",""
"null","<p style=""font-size: 80px;"">+ 10 points</p>","null","html-keyboard-response","15","332398","0.0-11.0-2.14","5a75a77817ef3500016ffd06","msd4ak","NS","58","M","{""name"":""Chrome"",""chrome"":true,""version"":""106.0"",""blink"":true,""windows"":true,""osname"":""Windows"",""osversion"":""8.1"",""a"":true}","9:21:24","1","4","Test_3","74","j","1","1659.8000001907349","1366 x 768","1366 x 768","true","1","10","","","","",""
"null","<p style=""font-size: 80px;"">+ 0 points</p>","null","html-keyboard-response","16","335223","0.0-11.0-2.15","5a75a77817ef3500016ffd06","msd4ak","NS","58","M","{""name"":""Chrome"",""chrome"":true,""version"":""106.0"",""blink"":true,""windows"":true,""osname"":""Windows"",""osversion"":""8.1"",""a"":true}","9:21:24","1","3","Test_3","74","f","0","815.1000003814697","1366 x 768","1366 x 768","true","1","0","","","","",""
"null","<p style=""font-size: 80px;"">+ 10 points</p>","null","html-keyboard-response","17","338821","0.0-11.0-2.16","5a75a77817ef3500016ffd06","msd4ak","NS","58","M","{""name"":""Chrome"",""chrome"":true,""version"":""106.0"",""blink"":true,""windows"":true,""osname"":""Windows"",""osversion"":""8.1"",""a"":true}","9:21:24","1","3","Test_2","74","j","1","1589.1999998092651","1366 x 768","1366 x 768","true","1","10","","","","",""
"null","<p style=""font-size: 80px;"">+ 10 points</p>","null","html-keyboard-response","18","341725","0.0-11.0-2.17","5a75a77817ef3500016ffd06","msd4ak","NS","58","M","{""name"":""Chrome"",""chrome"":true,""version"":""106.0"",""blink"":true,""windows"":true,""osname"":""Windows"",""osversion"":""8.1"",""a"":true}","9:21:24","1","3","Test_2","74","j","1","887.9000000953674","1366 x 768","1366 x 768","true","1","10","","","","",""
"null","<p style=""font-size: 80px;"">+ 0 points</p>","null","html-keyboard-response","19","344588","0.0-11.0-2.18","5a75a77817ef3500016ffd06","msd4ak","NS","58","M","{""name"":""Chrome"",""chrome"":true,""version"":""106.0"",""blink"":true,""windows"":true,""osname"":""Windows"",""osversion"":""8.1"",""a"":true}","9:21:24","1","3","Test_4","70","j","0","854.6999998092651","1366 x 768","1366 x 768","true","1","0","","","","",""
"null","<p style=""font-size: 80px;"">+ 10 points</p>","null","html-keyboard-response","20","348064","0.0-11.0-2.19","5a75a77817ef3500016ffd06","msd4ak","NS","58","M","{""name"":""Chrome"",""chrome"":true,""version"":""106.0"",""blink"":true,""windows"":true,""osname"":""Windows"",""osversion"":""8.1"",""a"":true}","9:21:24","1","3","Test_3","70","f","1","1462.4000000953674","1366 x 768","1366 x 768","true","1","10","","","","",""
"null","<p style=""font-size: 80px;"">+ 0 points</p>","null","html-keyboard-response","21","352503","0.0-11.0-2.20","5a75a77817ef3500016ffd06","msd4ak","NS","58","M","{""name"":""Chrome"",""chrome"":true,""version"":""106.0"",""blink"":true,""windows"":true,""osname"":""Windows"",""osversion"":""8.1"",""a"":true}","9:21:24","1","3","Test_1","74","f","0","2431.300000190735","1366 x 768","1366 x 768","true","1","0","","","","",""
"null","<p style=""font-size: 80px;"">+ 10 points</p>","null","html-keyboard-response","22","355619","0.0-11.0-2.21","5a75a77817ef3500016ffd06","msd4ak","NS","58","M","{""name"":""Chrome"",""chrome"":true,""version"":""106.0"",""blink"":true,""windows"":true,""osname"":""Windows"",""osversion"":""8.1"",""a"":true}","9:21:24","1","3","Test_2","74","j","1","1099.4000000953674","1366 x 768","1366 x 768","true","1","10","","","","",""
"null","<p style=""font-size: 80px;"">+ 10 points</p>","null","html-keyboard-response","23","358588","0.0-11.0-2.22","5a75a77817ef3500016ffd06","msd4ak","NS","58","M","{""name"":""Chrome"",""chrome"":true,""version"":""106.0"",""blink"":true,""windows"":true,""osname"":""Windows"",""osversion"":""8.1"",""a"":true}","9:21:24","1","3","Test_4","74","j","1","960.7000002861023","1366 x 768","1366 x 768","true","1","10","","","","",""
"null","<p style=""font-size: 80px;"">+ 10 points</p>","null","html-keyboard-response","24","361620","0.0-11.0-2.23","5a75a77817ef3500016ffd06","msd4ak","NS","58","M","{""name"":""Chrome"",""chrome"":true,""version"":""106.0"",""blink"":true,""windows"":true,""osname"":""Windows"",""osversion"":""8.1"",""a"":true}","9:21:24","1","3","Test_3","70","f","1","1023.1999998092651","1366 x 768","1366 x 768","true","1","10","","","","",""
"null","<p style=""font-size: 80px;"">+ 10 points</p>","null","html-keyboard-response","25","365279","0.0-11.0-2.24","5a75a77817ef3500016ffd06","msd4ak","NS","58","M","{""name"":""Chrome"",""chrome"":true,""version"":""106.0"",""blink"":true,""windows"":true,""osname"":""Windows"",""osversion"":""8.1"",""a"":true}","9:21:24","1","3","Test_3","70","f","1","1651.2999997138977","1366 x 768","1366 x 768","true","1","10","","","","",""
"null","<p style=""font-size: 80px;"">+ 10 points</p>","null","html-keyboard-response","26","368195","0.0-11.0-2.25","5a75a77817ef3500016ffd06","msd4ak","NS","58","M","{""name"":""Chrome"",""chrome"":true,""version"":""106.0"",""blink"":true,""windows"":true,""osname"":""Windows"",""osversion"":""8.1"",""a"":true}","9:21:24","1","3","Test_1","70","f","1","904.8000001907349","1366 x 768","1366 x 768","true","1","10","","","","",""
"null","<p style=""font-size: 80px;"">+ 10 points</p>","null","html-keyboard-response","27","372802","0.0-11.0-2.26","5a75a77817ef3500016ffd06","msd4ak","NS","58","M","{""name"":""Chrome"",""chrome"":true,""version"":""106.0"",""blink"":true,""windows"":true,""osname"":""Windows"",""osversion"":""8.1"",""a"":true}","9:21:24","1","3","Test_1","70","f","1","2594.5","1366 x 768","1366 x 768","true","1","10","","","","",""
"null","<p style=""font-size: 80px;"">+ 10 points</p>","null","html-keyboard-response","28","375805","0.0-11.0-2.27","5a75a77817ef3500016ffd06","msd4ak","NS","58","M","{""name"":""Chrome"",""chrome"":true,""version"":""106.0"",""blink"":true,""windows"":true,""osname"":""Windows"",""osversion"":""8.1"",""a"":true}","9:21:24","1","3","Test_4","74","j","1","991.2999997138977","1366 x 768","1366 x 768","true","1","10","","","","",""
"null","<p style=""font-size: 80px;"">+ 10 points</p>","null","html-keyboard-response","29","379296","0.0-11.0-2.28","5a75a77817ef3500016ffd06","msd4ak","NS","58","M","{""name"":""Chrome"",""chrome"":true,""version"":""106.0"",""blink"":true,""windows"":true,""osname"":""Windows"",""osversion"":""8.1"",""a"":true}","9:21:24","1","3","Test_3","70","f","1","1475.7999997138977","1366 x 768","1366 x 768","true","1","10","","","","",""
"null","<p style=""font-size: 80px;"">+ 10 points</p>","null","html-keyboard-response","30","382204","0.0-11.0-2.29","5a75a77817ef3500016ffd06","msd4ak","NS","58","M","{""name"":""Chrome"",""chrome"":true,""version"":""106.0"",""blink"":true,""windows"":true,""osname"":""Windows"",""osversion"":""8.1"",""a"":true}","9:21:24","1","3","Test_2","74","j","1","899.0999999046326","1366 x 768","1366 x 768","true","1","10","","","","",""
"null","<p style=""font-size: 80px;"">+ 10 points</p>","null","html-keyboard-response","31","384995","0.0-11.0-2.30","5a75a77817ef3500016ffd06","msd4ak","NS","58","M","{""name"":""Chrome"",""chrome"":true,""version"":""106.0"",""blink"":true,""windows"":true,""osname"":""Windows"",""osversion"":""8.1"",""a"":true}","9:21:24","1","3","Test_2","74","j","1","779.7000002861023","1366 x 768","1366 x 768","true","1","10","","","","",""
"null","<p style=""font-size: 80px;"">+ 10 points</p>","null","html-keyboard-response","32","388439","0.0-11.0-2.31","5a75a77817ef3500016ffd06","msd4ak","NS","58","M","{""name"":""Chrome"",""chrome"":true,""version"":""106.0"",""blink"":true,""windows"":true,""osname"":""Windows"",""osversion"":""8.1"",""a"":true}","9:21:24","1","3","Test_4","74","j","1","1436.8000001907349","1366 x 768","1366 x 768","true","1","10","","","","",""
"null","<p style=""font-size: 80px;"">+ 10 points</p>","null","html-keyboard-response","33","391248","0.0-11.0-2.32","5a75a77817ef3500016ffd06","msd4ak","NS","58","M","{""name"":""Chrome"",""chrome"":true,""version"":""106.0"",""blink"":true,""windows"":true,""osname"":""Windows"",""osversion"":""8.1"",""a"":true}","9:21:24","1","3","Test_1","70","f","1","796.8999996185303","1366 x 768","1366 x 768","true","1","10","","","","",""
"null","<p style=""font-size: 80px;"">+ 0 points</p>","null","html-keyboard-response","34","394054","0.0-11.0-2.33","5a75a77817ef3500016ffd06","msd4ak","NS","58","M","{""name"":""Chrome"",""chrome"":true,""version"":""106.0"",""blink"":true,""windows"":true,""osname"":""Windows"",""osversion"":""8.1"",""a"":true}","9:21:24","1","4","Test_2","74","f","0","789.6999998092651","1366 x 768","1366 x 768","true","1","0","","","","",""
"null","<p style=""font-size: 80px;"">+ 10 points</p>","null","html-keyboard-response","35","397521","0.0-11.0-2.34","5a75a77817ef3500016ffd06","msd4ak","NS","58","M","{""name"":""Chrome"",""chrome"":true,""version"":""106.0"",""blink"":true,""windows"":true,""osname"":""Windows"",""osversion"":""8.1"",""a"":true}","9:21:24","1","4","Test_1","74","j","1","1448.2000002861023","1366 x 768","1366 x 768","true","1","10","","","","",""
"null","<p style=""font-size: 80px;"">+ 0 points</p>","null","html-keyboard-response","36","402231","0.0-11.0-2.35","5a75a77817ef3500016ffd06","msd4ak","NS","58","M","{""name"":""Chrome"",""chrome"":true,""version"":""106.0"",""blink"":true,""windows"":true,""osname"":""Windows"",""osversion"":""8.1"",""a"":true}","9:21:24","1","4","Test_1","70","j","0","2695.8999996185303","1366 x 768","1366 x 768","true","1","0","","","","",""
"null","<p style=""font-size: 80px;"">+ 10 points</p>","null","html-keyboard-response","37","405475","0.0-11.0-2.36","5a75a77817ef3500016ffd06","msd4ak","NS","58","M","{""name"":""Chrome"",""chrome"":true,""version"":""106.0"",""blink"":true,""windows"":true,""osname"":""Windows"",""osversion"":""8.1"",""a"":true}","9:21:24","1","4","Test_2","70","f","1","1233","1366 x 768","1366 x 768","true","1","10","","","","",""
"null","<p style=""font-size: 80px;"">+ 10 points</p>","null","html-keyboard-response","38","408901","0.0-11.0-2.37","5a75a77817ef3500016ffd06","msd4ak","NS","58","M","{""name"":""Chrome"",""chrome"":true,""version"":""106.0"",""blink"":true,""windows"":true,""osname"":""Windows"",""osversion"":""8.1"",""a"":true}","9:21:24","1","4","Test_3","74","j","1","1416.5","1366 x 768","1366 x 768","true","1","10","","","","",""
"null","<p style=""font-size: 80px;"">+ 10 points</p>","null","html-keyboard-response","39","413365","0.0-11.0-2.38","5a75a77817ef3500016ffd06","msd4ak","NS","58","M","{""name"":""Chrome"",""chrome"":true,""version"":""106.0"",""blink"":true,""windows"":true,""osname"":""Windows"",""osversion"":""8.1"",""a"":true}","9:21:24","1","4","Test_4","70","f","1","2449.0999999046326","1366 x 768","1366 x 768","true","1","10","","","","",""
"null","<p style=""font-size: 80px;"">+ 10 points</p>","null","html-keyboard-response","40","416361","0.0-11.0-2.39","5a75a77817ef3500016ffd06","msd4ak","NS","58","M","{""name"":""Chrome"",""chrome"":true,""version"":""106.0"",""blink"":true,""windows"":true,""osname"":""Windows"",""osversion"":""8.1"",""a"":true}","9:21:24","1","4","Test_3","74","j","1","976.5999999046326","1366 x 768","1366 x 768","true","1","10","","","","",""
"null","<p style=""font-size: 80px;"">+ 10 points</p>","null","html-keyboard-response","41","419143","0.0-11.0-2.40","5a75a77817ef3500016ffd06","msd4ak","NS","58","M","{""name"":""Chrome"",""chrome"":true,""version"":""106.0"",""blink"":true,""windows"":true,""osname"":""Windows"",""osversion"":""8.1"",""a"":true}","9:21:24","1","4","Test_3","74","j","1","772.4000000953674","1366 x 768","1366 x 768","true","1","10","","","","",""
"null","<p style=""font-size: 80px;"">+ 10 points</p>","null","html-keyboard-response","42","422050","0.0-11.0-2.41","5a75a77817ef3500016ffd06","msd4ak","NS","58","M","{""name"":""Chrome"",""chrome"":true,""version"":""106.0"",""blink"":true,""windows"":true,""osname"":""Windows"",""osversion"":""8.1"",""a"":true}","9:21:24","1","4","Test_3","74","j","1","899.5999999046326","1366 x 768","1366 x 768","true","1","10","","","","",""
"null","<p style=""font-size: 80px;"">+ 10 points</p>","null","html-keyboard-response","43","424995","0.0-11.0-2.42","5a75a77817ef3500016ffd06","msd4ak","NS","58","M","{""name"":""Chrome"",""chrome"":true,""version"":""106.0"",""blink"":true,""windows"":true,""osname"":""Windows"",""osversion"":""8.1"",""a"":true}","9:21:24","1","4","Test_3","74","j","1","926.5","1366 x 768","1366 x 768","true","1","10","","","","",""
"null","<p style=""font-size: 80px;"">+ 0 points</p>","null","html-keyboard-response","44","428177","0.0-11.0-2.43","5a75a77817ef3500016ffd06","msd4ak","NS","58","M","{""name"":""Chrome"",""chrome"":true,""version"":""106.0"",""blink"":true,""windows"":true,""osname"":""Windows"",""osversion"":""8.1"",""a"":true}","9:21:24","1","4","Test_1","70","j","0","1174.4000000953674","1366 x 768","1366 x 768","true","1","0","","","","",""
"null","<p style=""font-size: 80px;"">+ 10 points</p>","null","html-keyboard-response","45","430969","0.0-11.0-2.44","5a75a77817ef3500016ffd06","msd4ak","NS","58","M","{""name"":""Chrome"",""chrome"":true,""version"":""106.0"",""blink"":true,""windows"":true,""osname"":""Windows"",""osversion"":""8.1"",""a"":true}","9:21:24","1","4","Test_1","74","j","1","780.0999999046326","1366 x 768","1366 x 768","true","1","10","","","","",""
"null","<p style=""font-size: 80px;"">+ 10 points</p>","null","html-keyboard-response","46","433763","0.0-11.0-2.45","5a75a77817ef3500016ffd06","msd4ak","NS","58","M","{""name"":""Chrome"",""chrome"":true,""version"":""106.0"",""blink"":true,""windows"":true,""osname"":""Windows"",""osversion"":""8.1"",""a"":true}","9:21:24","1","4","Test_1","74","j","1","777.7000002861023","1366 x 768","1366 x 768","true","1","10","","","","",""
"null","<p style=""font-size: 80px;"">+ 10 points</p>","null","html-keyboard-response","47","439142","0.0-11.0-2.46","5a75a77817ef3500016ffd06","msd4ak","NS","58","M","{""name"":""Chrome"",""chrome"":true,""version"":""106.0"",""blink"":true,""windows"":true,""osname"":""Windows"",""osversion"":""8.1"",""a"":true}","9:21:24","1","4","Test_3","74","j","1","3366.5999999046326","1366 x 768","1366 x 768","true","1","10","","","","",""
"null","<p style=""font-size: 80px;"">+ 10 points</p>","null","html-keyboard-response","48","442142","0.0-11.0-2.47","5a75a77817ef3500016ffd06","msd4ak","NS","58","M","{""name"":""Chrome"",""chrome"":true,""version"":""106.0"",""blink"":true,""windows"":true,""osname"":""Windows"",""osversion"":""8.1"",""a"":true}","9:21:24","1","4","Test_4","70","f","1","980.5999999046326","1366 x 768","1366 x 768","true","1","10","","","","",""
"null","<p style=""font-size: 80px;"">+ 10 points</p>","null","html-keyboard-response","49","445085","0.0-11.0-2.48","5a75a77817ef3500016ffd06","msd4ak","NS","58","M","{""name"":""Chrome"",""chrome"":true,""version"":""106.0"",""blink"":true,""windows"":true,""osname"":""Windows"",""osversion"":""8.1"",""a"":true}","9:21:24","1","4","Test_4","70","f","1","934.2999997138977","1366 x 768","1366 x 768","true","1","10","","","","",""
"null","<p style=""font-size: 80px;"">+ 10 points</p>","null","html-keyboard-response","50","448069","0.0-11.0-2.49","5a75a77817ef3500016ffd06","msd4ak","NS","58","M","{""name"":""Chrome"",""chrome"":true,""version"":""106.0"",""blink"":true,""windows"":true,""osname"":""Windows"",""osversion"":""8.1"",""a"":true}","9:21:24","1","4","Test_4","70","f","1","970.1999998092651","1366 x 768","1366 x 768","true","1","10","","","","",""
"null","<p style=""font-size: 80px;"">+ 10 points</p>","null","html-keyboard-response","51","451086","0.0-11.0-2.50","5a75a77817ef3500016ffd06","msd4ak","NS","58","M","{""name"":""Chrome"",""chrome"":true,""version"":""106.0"",""blink"":true,""windows"":true,""osname"":""Windows"",""osversion"":""8.1"",""a"":true}","9:21:24","1","4","Test_4","70","f","1","1006.0999999046326","1366 x 768","1366 x 768","true","1","10","","","","",""
"null","<p style=""font-size: 80px;"">+ 10 points</p>","null","html-keyboard-response","52","455116","0.0-11.0-2.51","5a75a77817ef3500016ffd06","msd4ak","NS","58","M","{""name"":""Chrome"",""chrome"":true,""version"":""106.0"",""blink"":true,""windows"":true,""osname"":""Windows"",""osversion"":""8.1"",""a"":true}","9:21:24","1","4","Test_2","70","f","1","2020.5","1366 x 768","1366 x 768","true","1","10","","","","",""
"null","<p style=""font-size: 80px;"">+ 10 points</p>","null","html-keyboard-response","53","458765","0.0-11.0-2.52","5a75a77817ef3500016ffd06","msd4ak","NS","58","M","{""name"":""Chrome"",""chrome"":true,""version"":""106.0"",""blink"":true,""windows"":true,""osname"":""Windows"",""osversion"":""8.1"",""a"":true}","9:21:24","1","4","Test_2","70","f","1","1637.6999998092651","1366 x 768","1366 x 768","true","1","10","","","","",""
"null","<p style=""font-size: 80px;"">+ 10 points</p>","null","html-keyboard-response","54","461739","0.0-11.0-2.53","5a75a77817ef3500016ffd06","msd4ak","NS","58","M","{""name"":""Chrome"",""chrome"":true,""version"":""106.0"",""blink"":true,""windows"":true,""osname"":""Windows"",""osversion"":""8.1"",""a"":true}","9:21:24","1","4","Test_1","74","j","1","960.2999997138977","1366 x 768","1366 x 768","true","1","10","","","","",""
"null","<p style=""font-size: 80px;"">+ 10 points</p>","null","html-keyboard-response","55","464800","0.0-11.0-2.54","5a75a77817ef3500016ffd06","msd4ak","NS","58","M","{""name"":""Chrome"",""chrome"":true,""version"":""106.0"",""blink"":true,""windows"":true,""osname"":""Windows"",""osversion"":""8.1"",""a"":true}","9:21:24","1","4","Test_2","70","f","1","1046.3000001907349","1366 x 768","1366 x 768","true","1","10","","","","",""
"null","<p style=""font-size: 80px;"">+ 0 points</p>","null","html-keyboard-response","56","467742","0.0-11.0-2.55","5a75a77817ef3500016ffd06","msd4ak","NS","58","M","{""name"":""Chrome"",""chrome"":true,""version"":""106.0"",""blink"":true,""windows"":true,""osname"":""Windows"",""osversion"":""8.1"",""a"":true}","9:21:24","1","3","Test_2","70","j","0","927.7000002861023","1366 x 768","1366 x 768","true","1","0","","","","",""
"null","<p style=""font-size: 80px;"">+ 10 points</p>","null","html-keyboard-response","57","470808","0.0-11.0-2.56","5a75a77817ef3500016ffd06","msd4ak","NS","58","M","{""name"":""Chrome"",""chrome"":true,""version"":""106.0"",""blink"":true,""windows"":true,""osname"":""Windows"",""osversion"":""8.1"",""a"":true}","9:21:24","1","3","Test_3","70","f","1","1047.2000002861023","1366 x 768","1366 x 768","true","1","10","","","","",""
"null","<p style=""font-size: 80px;"">+ 0 points</p>","null","html-keyboard-response","58","474593","0.0-11.0-2.57","5a75a77817ef3500016ffd06","msd4ak","NS","58","M","{""name"":""Chrome"",""chrome"":true,""version"":""106.0"",""blink"":true,""windows"":true,""osname"":""Windows"",""osversion"":""8.1"",""a"":true}","9:21:24","1","3","Test_1","74","f","0","1773.2000002861023","1366 x 768","1366 x 768","true","1","0","","","","",""
"null","<p style=""font-size: 80px;"">+ 10 points</p>","null","html-keyboard-response","59","477994","0.0-11.0-2.58","5a75a77817ef3500016ffd06","msd4ak","NS","58","M","{""name"":""Chrome"",""chrome"":true,""version"":""106.0"",""blink"":true,""windows"":true,""osname"":""Windows"",""osversion"":""8.1"",""a"":true}","9:21:24","1","3","Test_1","70","f","1","1387","1366 x 768","1366 x 768","true","1","10","","","","",""
"null","<p style=""font-size: 80px;"">+ 10 points</p>","null","html-keyboard-response","60","481118","0.0-11.0-2.59","5a75a77817ef3500016ffd06","msd4ak","NS","58","M","{""name"":""Chrome"",""chrome"":true,""version"":""106.0"",""blink"":true,""windows"":true,""osname"":""Windows"",""osversion"":""8.1"",""a"":true}","9:21:24","1","3","Test_2","74","j","1","1115.5999999046326","1366 x 768","1366 x 768","true","1","10","","","","",""
"null","<p style=""font-size: 80px;"">+ 10 points</p>","null","html-keyboard-response","61","484827","0.0-11.0-2.60","5a75a77817ef3500016ffd06","msd4ak","NS","58","M","{""name"":""Chrome"",""chrome"":true,""version"":""106.0"",""blink"":true,""windows"":true,""osname"":""Windows"",""osversion"":""8.1"",""a"":true}","9:21:24","1","3","Test_2","74","j","1","1695.2000002861023","1366 x 768","1366 x 768","true","1","10","","","","",""
"null","<p style=""font-size: 80px;"">+ 10 points</p>","null","html-keyboard-response","62","488117","0.0-11.0-2.61","5a75a77817ef3500016ffd06","msd4ak","NS","58","M","{""name"":""Chrome"",""chrome"":true,""version"":""106.0"",""blink"":true,""windows"":true,""osname"":""Windows"",""osversion"":""8.1"",""a"":true}","9:21:24","1","3","Test_4","74","j","1","1278.4000000953674","1366 x 768","1366 x 768","true","1","10","","","","",""
"null","<p style=""font-size: 80px;"">+ 10 points</p>","null","html-keyboard-response","63","491180","0.0-11.0-2.62","5a75a77817ef3500016ffd06","msd4ak","NS","58","M","{""name"":""Chrome"",""chrome"":true,""version"":""106.0"",""blink"":true,""windows"":true,""osname"":""Windows"",""osversion"":""8.1"",""a"":true}","9:21:24","1","3","Test_1","70","f","1","1051.7999997138977","1366 x 768","1366 x 768","true","1","10","","","","",""
"null","<p style=""font-size: 80px;"">+ 10 points</p>","null","html-keyboard-response","64","494033","0.0-11.0-2.63","5a75a77817ef3500016ffd06","msd4ak","NS","58","M","{""name"":""Chrome"",""chrome"":true,""version"":""106.0"",""blink"":true,""windows"":true,""osname"":""Windows"",""osversion"":""8.1"",""a"":true}","9:21:24","1","3","Test_3","70","f","1","839.5","1366 x 768","1366 x 768","true","1","10","","","","",""
"null","<p style=""font-size: 80px;"">+ 10 points</p>","null","html-keyboard-response","65","496976","0.0-11.0-2.64","5a75a77817ef3500016ffd06","msd4ak","NS","58","M","{""name"":""Chrome"",""chrome"":true,""version"":""106.0"",""blink"":true,""windows"":true,""osname"":""Windows"",""osversion"":""8.1"",""a"":true}","9:21:24","1","3","Test_4","74","j","1","929.3000001907349","1366 x 768","1366 x 768","true","1","10","","","","",""
"null","<p style=""font-size: 80px;"">+ 10 points</p>","null","html-keyboard-response","66","500204","0.0-11.0-2.65","5a75a77817ef3500016ffd06","msd4ak","NS","58","M","{""name"":""Chrome"",""chrome"":true,""version"":""106.0"",""blink"":true,""windows"":true,""osname"":""Windows"",""osversion"":""8.1"",""a"":true}","9:21:24","1","3","Test_3","70","f","1","1214.2999997138977","1366 x 768","1366 x 768","true","1","10","","","","",""
"null","<p style=""font-size: 80px;"">+ 10 points</p>","null","html-keyboard-response","67","503047","0.0-11.0-2.66","5a75a77817ef3500016ffd06","msd4ak","NS","58","M","{""name"":""Chrome"",""chrome"":true,""version"":""106.0"",""blink"":true,""windows"":true,""osname"":""Windows"",""osversion"":""8.1"",""a"":true}","9:21:24","1","3","Test_2","74","j","1","835.6999998092651","1366 x 768","1366 x 768","true","1","10","","","","",""
"null","<p style=""font-size: 80px;"">+ 10 points</p>","null","html-keyboard-response","68","505875","0.0-11.0-2.67","5a75a77817ef3500016ffd06","msd4ak","NS","58","M","{""name"":""Chrome"",""chrome"":true,""version"":""106.0"",""blink"":true,""windows"":true,""osname"":""Windows"",""osversion"":""8.1"",""a"":true}","9:21:24","1","3","Test_2","74","j","1","816.6999998092651","1366 x 768","1366 x 768","true","1","10","","","","",""
"null","<p style=""font-size: 80px;"">+ 10 points</p>","null","html-keyboard-response","69","508752","0.0-11.0-2.68","5a75a77817ef3500016ffd06","msd4ak","NS","58","M","{""name"":""Chrome"",""chrome"":true,""version"":""106.0"",""blink"":true,""windows"":true,""osname"":""Windows"",""osversion"":""8.1"",""a"":true}","9:21:24","1","3","Test_2","74","j","1","857.7000002861023","1366 x 768","1366 x 768","true","1","10","","","","",""
"null","<p style=""font-size: 80px;"">+ 10 points</p>","null","html-keyboard-response","70","511541","0.0-11.0-2.69","5a75a77817ef3500016ffd06","msd4ak","NS","58","M","{""name"":""Chrome"",""chrome"":true,""version"":""106.0"",""blink"":true,""windows"":true,""osname"":""Windows"",""osversion"":""8.1"",""a"":true}","9:21:24","1","3","Test_1","70","f","1","779.5999999046326","1366 x 768","1366 x 768","true","1","10","","","","",""
"null","<p style=""font-size: 80px;"">+ 10 points</p>","null","html-keyboard-response","71","514964","0.0-11.0-2.70","5a75a77817ef3500016ffd06","msd4ak","NS","58","M","{""name"":""Chrome"",""chrome"":true,""version"":""106.0"",""blink"":true,""windows"":true,""osname"":""Windows"",""osversion"":""8.1"",""a"":true}","9:21:24","1","3","Test_3","70","f","1","1412.4000000953674","1366 x 768","1366 x 768","true","1","10","","","","",""
"null","<p style=""font-size: 80px;"">+ 10 points</p>","null","html-keyboard-response","72","518314","0.0-11.0-2.71","5a75a77817ef3500016ffd06","msd4ak","NS","58","M","{""name"":""Chrome"",""chrome"":true,""version"":""106.0"",""blink"":true,""windows"":true,""osname"":""Windows"",""osversion"":""8.1"",""a"":true}","9:21:24","1","3","Test_1","70","f","1","1337.5","1366 x 768","1366 x 768","true","1","10","","","","",""
"null","<p style=""font-size: 80px;"">+ 10 points</p>","null","html-keyboard-response","73","521272","0.0-11.0-2.72","5a75a77817ef3500016ffd06","msd4ak","NS","58","M","{""name"":""Chrome"",""chrome"":true,""version"":""106.0"",""blink"":true,""windows"":true,""osname"":""Windows"",""osversion"":""8.1"",""a"":true}","9:21:24","1","3","Test_4","74","j","1","948.5999999046326","1366 x 768","1366 x 768","true","1","10","","","","",""
"null","<p style=""font-size: 80px;"">+ 10 points</p>","null","html-keyboard-response","74","524755","0.0-11.0-2.73","5a75a77817ef3500016ffd06","msd4ak","NS","58","M","{""name"":""Chrome"",""chrome"":true,""version"":""106.0"",""blink"":true,""windows"":true,""osname"":""Windows"",""osversion"":""8.1"",""a"":true}","9:21:24","1","3","Test_4","74","j","1","1473.4000000953674","1366 x 768","1366 x 768","true","1","10","","","","",""
"null","<p style=""font-size: 80px;"">+ 10 points</p>","null","html-keyboard-response","75","527703","0.0-11.0-2.74","5a75a77817ef3500016ffd06","msd4ak","NS","58","M","{""name"":""Chrome"",""chrome"":true,""version"":""106.0"",""blink"":true,""windows"":true,""osname"":""Windows"",""osversion"":""8.1"",""a"":true}","9:21:24","1","3","Test_1","70","f","1","931.3999996185303","1366 x 768","1366 x 768","true","1","10","","","","",""
"null","<p style=""font-size: 80px;"">+ 10 points</p>","null","html-keyboard-response","76","530580","0.0-11.0-2.75","5a75a77817ef3500016ffd06","msd4ak","NS","58","M","{""name"":""Chrome"",""chrome"":true,""version"":""106.0"",""blink"":true,""windows"":true,""osname"":""Windows"",""osversion"":""8.1"",""a"":true}","9:21:24","1","3","Test_4","74","j","1","868.4000000953674","1366 x 768","1366 x 768","true","1","10","","","","",""
"null","<p style=""font-size: 80px;"">+ 10 points</p>","null","html-keyboard-response","77","535325","0.0-11.0-2.76","5a75a77817ef3500016ffd06","msd4ak","NS","58","M","{""name"":""Chrome"",""chrome"":true,""version"":""106.0"",""blink"":true,""windows"":true,""osname"":""Windows"",""osversion"":""8.1"",""a"":true}","9:21:24","1","3","Test_3","70","f","1","2726.9000000953674","1366 x 768","1366 x 768","true","1","10","","","","",""
"null","<p style=""font-size: 80px;"">+ 10 points</p>","null","html-keyboard-response","78","538253","0.0-11.0-2.77","5a75a77817ef3500016ffd06","msd4ak","NS","58","M","{""name"":""Chrome"",""chrome"":true,""version"":""106.0"",""blink"":true,""windows"":true,""osname"":""Windows"",""osversion"":""8.1"",""a"":true}","9:21:24","1","3","Test_3","70","f","1","913.5","1366 x 768","1366 x 768","true","1","10","","","","",""
"null","<p style=""font-size: 80px;"">+ 0 points</p>","null","html-keyboard-response","79","541306","0.0-11.0-2.78","5a75a77817ef3500016ffd06","msd4ak","NS","58","M","{""name"":""Chrome"",""chrome"":true,""version"":""106.0"",""blink"":true,""windows"":true,""osname"":""Windows"",""osversion"":""8.1"",""a"":true}","9:21:24","1","4","Test_1","70","j","0","1039.9000000953674","1366 x 768","1366 x 768","true","1","0","","","","",""
"null","<p style=""font-size: 80px;"">+ 10 points</p>","null","html-keyboard-response","80","547620","0.0-11.0-2.79","5a75a77817ef3500016ffd06","msd4ak","NS","58","M","{""name"":""Chrome"",""chrome"":true,""version"":""106.0"",""blink"":true,""windows"":true,""osname"":""Windows"",""osversion"":""8.1"",""a"":true}","9:21:24","1","4","Test_2","70","f","1","4304.400000095367","1366 x 768","1366 x 768","true","1","10","","","","",""
"null","<p style=""font-size: 80px;"">+ 10 points</p>","null","html-keyboard-response","81","553769","0.0-11.0-2.80","5a75a77817ef3500016ffd06","msd4ak","NS","58","M","{""name"":""Chrome"",""chrome"":true,""version"":""106.0"",""blink"":true,""windows"":true,""osname"":""Windows"",""osversion"":""8.1"",""a"":true}","9:21:24","1","4","Test_3","74","j","1","4137.199999809265","1366 x 768","1366 x 768","true","1","10","","","","",""
"null","<p style=""font-size: 80px;"">+ 10 points</p>","null","html-keyboard-response","82","556632","0.0-11.0-2.81","5a75a77817ef3500016ffd06","msd4ak","NS","58","M","{""name"":""Chrome"",""chrome"":true,""version"":""106.0"",""blink"":true,""windows"":true,""osname"":""Windows"",""osversion"":""8.1"",""a"":true}","9:21:24","1","4","Test_3","74","j","1","856.1999998092651","1366 x 768","1366 x 768","true","1","10","","","","",""
"null","<p style=""font-size: 80px;"">+ 10 points</p>","null","html-keyboard-response","83","559454","0.0-11.0-2.82","5a75a77817ef3500016ffd06","msd4ak","NS","58","M","{""name"":""Chrome"",""chrome"":true,""version"":""106.0"",""blink"":true,""windows"":true,""osname"":""Windows"",""osversion"":""8.1"",""a"":true}","9:21:24","1","4","Test_4","70","f","1","812.9000000953674","1366 x 768","1366 x 768","true","1","10","","","","",""
"null","<p style=""font-size: 80px;"">+ 10 points</p>","null","html-keyboard-response","84","562212","0.0-11.0-2.83","5a75a77817ef3500016ffd06","msd4ak","NS","58","M","{""name"":""Chrome"",""chrome"":true,""version"":""106.0"",""blink"":true,""windows"":true,""osname"":""Windows"",""osversion"":""8.1"",""a"":true}","9:21:24","1","4","Test_3","74","j","1","738.2999997138977","1366 x 768","1366 x 768","true","1","10","","","","",""
"null","<p style=""font-size: 80px;"">+ 10 points</p>","null","html-keyboard-response","85","565217","0.0-11.0-2.84","5a75a77817ef3500016ffd06","msd4ak","NS","58","M","{""name"":""Chrome"",""chrome"":true,""version"":""106.0"",""blink"":true,""windows"":true,""osname"":""Windows"",""osversion"":""8.1"",""a"":true}","9:21:24","1","4","Test_2","70","f","1","996.3000001907349","1366 x 768","1366 x 768","true","1","10","","","","",""
"null","<p style=""font-size: 80px;"">+ 10 points</p>","null","html-keyboard-response","86","568371","0.0-11.0-2.85","5a75a77817ef3500016ffd06","msd4ak","NS","58","M","{""name"":""Chrome"",""chrome"":true,""version"":""106.0"",""blink"":true,""windows"":true,""osname"":""Windows"",""osversion"":""8.1"",""a"":true}","9:21:24","1","4","Test_2","70","f","1","1140.7000002861023","1366 x 768","1366 x 768","true","1","10","","","","",""
"null","<p style=""font-size: 80px;"">+ 10 points</p>","null","html-keyboard-response","87","571645","0.0-11.0-2.86","5a75a77817ef3500016ffd06","msd4ak","NS","58","M","{""name"":""Chrome"",""chrome"":true,""version"":""106.0"",""blink"":true,""windows"":true,""osname"":""Windows"",""osversion"":""8.1"",""a"":true}","9:21:24","1","4","Test_3","74","j","1","1257.6999998092651","1366 x 768","1366 x 768","true","1","10","","","","",""
"null","<p style=""font-size: 80px;"">+ 10 points</p>","null","html-keyboard-response","88","574551","0.0-11.0-2.87","5a75a77817ef3500016ffd06","msd4ak","NS","58","M","{""name"":""Chrome"",""chrome"":true,""version"":""106.0"",""blink"":true,""windows"":true,""osname"":""Windows"",""osversion"":""8.1"",""a"":true}","9:21:24","1","4","Test_3","74","j","1","894.5999999046326","1366 x 768","1366 x 768","true","1","10","","","","",""
"null","<p style=""font-size: 80px;"">+ 10 points</p>","null","html-keyboard-response","89","577466","0.0-11.0-2.88","5a75a77817ef3500016ffd06","msd4ak","NS","58","M","{""name"":""Chrome"",""chrome"":true,""version"":""106.0"",""blink"":true,""windows"":true,""osname"":""Windows"",""osversion"":""8.1"",""a"":true}","9:21:24","1","4","Test_2","70","f","1","900.0999999046326","1366 x 768","1366 x 768","true","1","10","","","","",""
"null","<p style=""font-size: 80px;"">+ 10 points</p>","null","html-keyboard-response","90","580347","0.0-11.0-2.89","5a75a77817ef3500016ffd06","msd4ak","NS","58","M","{""name"":""Chrome"",""chrome"":true,""version"":""106.0"",""blink"":true,""windows"":true,""osname"":""Windows"",""osversion"":""8.1"",""a"":true}","9:21:24","1","4","Test_4","70","f","1","863.9000000953674","1366 x 768","1366 x 768","true","1","10","","","","",""
"null","<p style=""font-size: 80px;"">+ 10 points</p>","null","html-keyboard-response","91","585260","0.0-11.0-2.90","5a75a77817ef3500016ffd06","msd4ak","NS","58","M","{""name"":""Chrome"",""chrome"":true,""version"":""106.0"",""blink"":true,""windows"":true,""osname"":""Windows"",""osversion"":""8.1"",""a"":true}","9:21:24","1","4","Test_1","74","j","1","2903.4000000953674","1366 x 768","1366 x 768","true","1","10","","","","",""
"null","<p style=""font-size: 80px;"">+ 10 points</p>","null","html-keyboard-response","92","588543","0.0-11.0-2.91","5a75a77817ef3500016ffd06","msd4ak","NS","58","M","{""name"":""Chrome"",""chrome"":true,""version"":""106.0"",""blink"":true,""windows"":true,""osname"":""Windows"",""osversion"":""8.1"",""a"":true}","9:21:24","1","4","Test_1","74","j","1","1264.6999998092651","1366 x 768","1366 x 768","true","1","10","","","","",""
"null","<p style=""font-size: 80px;"">+ 10 points</p>","null","html-keyboard-response","93","591307","0.0-11.0-2.92","5a75a77817ef3500016ffd06","msd4ak","NS","58","M","{""name"":""Chrome"",""chrome"":true,""version"":""106.0"",""blink"":true,""windows"":true,""osname"":""Windows"",""osversion"":""8.1"",""a"":true}","9:21:24","1","4","Test_2","70","f","1","754.5","1366 x 768","1366 x 768","true","1","10","","","","",""
"null","<p style=""font-size: 80px;"">+ 10 points</p>","null","html-keyboard-response","94","594326","0.0-11.0-2.93","5a75a77817ef3500016ffd06","msd4ak","NS","58","M","{""name"":""Chrome"",""chrome"":true,""version"":""106.0"",""blink"":true,""windows"":true,""osname"":""Windows"",""osversion"":""8.1"",""a"":true}","9:21:24","1","4","Test_1","74","j","1","1007.5999999046326","1366 x 768","1366 x 768","true","1","10","","","","",""
"null","<p style=""font-size: 80px;"">+ 10 points</p>","null","html-keyboard-response","95","597092","0.0-11.0-2.94","5a75a77817ef3500016ffd06","msd4ak","NS","58","M","{""name"":""Chrome"",""chrome"":true,""version"":""106.0"",""blink"":true,""windows"":true,""osname"":""Windows"",""osversion"":""8.1"",""a"":true}","9:21:24","1","4","Test_4","70","f","1","757.5","1366 x 768","1366 x 768","true","1","10","","","","",""
"null","<p style=""font-size: 80px;"">+ 10 points</p>","null","html-keyboard-response","96","599971","0.0-11.0-2.95","5a75a77817ef3500016ffd06","msd4ak","NS","58","M","{""name"":""Chrome"",""chrome"":true,""version"":""106.0"",""blink"":true,""windows"":true,""osname"":""Windows"",""osversion"":""8.1"",""a"":true}","9:21:24","1","4","Test_4","70","f","1","869.5999999046326","1366 x 768","1366 x 768","true","1","10","","","","",""
"null","<p style=""font-size: 80px;"">+ 10 points</p>","null","html-keyboard-response","97","602815","0.0-11.0-2.96","5a75a77817ef3500016ffd06","msd4ak","NS","58","M","{""name"":""Chrome"",""chrome"":true,""version"":""106.0"",""blink"":true,""windows"":true,""osname"":""Windows"",""osversion"":""8.1"",""a"":true}","9:21:24","1","4","Test_4","70","f","1","833.1999998092651","1366 x 768","1366 x 768","true","1","10","","","","",""
"null","<p style=""font-size: 80px;"">+ 0 points</p>","null","html-keyboard-response","98","605900","0.0-11.0-2.97","5a75a77817ef3500016ffd06","msd4ak","NS","58","M","{""name"":""Chrome"",""chrome"":true,""version"":""106.0"",""blink"":true,""windows"":true,""osname"":""Windows"",""osversion"":""8.1"",""a"":true}","9:21:24","1","3","Test_2","70","j","0","1071.2999997138977","1366 x 768","1366 x 768","true","1","0","","","","",""
"null","<p style=""font-size: 80px;"">+ 10 points</p>","null","html-keyboard-response","99","608936","0.0-11.0-2.98","5a75a77817ef3500016ffd06","msd4ak","NS","58","M","{""name"":""Chrome"",""chrome"":true,""version"":""106.0"",""blink"":true,""windows"":true,""osname"":""Windows"",""osversion"":""8.1"",""a"":true}","9:21:24","1","3","Test_4","74","j","1","1019.3000001907349","1366 x 768","1366 x 768","true","1","10","","","","",""
"null","<p style=""font-size: 80px;"">+ 10 points</p>","null","html-keyboard-response","100","614641","0.0-11.0-2.99","5a75a77817ef3500016ffd06","msd4ak","NS","58","M","{""name"":""Chrome"",""chrome"":true,""version"":""106.0"",""blink"":true,""windows"":true,""osname"":""Windows"",""osversion"":""8.1"",""a"":true}","9:21:24","1","3","Test_2","74","j","1","3694.800000190735","1366 x 768","1366 x 768","true","1","10","","","","",""
"null","<p style=""font-size: 80px;"">+ 10 points</p>","null","html-keyboard-response","101","619561","0.0-11.0-2.100","5a75a77817ef3500016ffd06","msd4ak","NS","58","M","{""name"":""Chrome"",""chrome"":true,""version"":""106.0"",""blink"":true,""windows"":true,""osname"":""Windows"",""osversion"":""8.1"",""a"":true}","9:21:24","1","3","Test_1","70","f","1","2905.199999809265","1366 x 768","1366 x 768","true","1","10","","","","",""
"null","<p style=""font-size: 80px;"">+ 10 points</p>","null","html-keyboard-response","102","622561","0.0-11.0-2.101","5a75a77817ef3500016ffd06","msd4ak","NS","58","M","{""name"":""Chrome"",""chrome"":true,""version"":""106.0"",""blink"":true,""windows"":true,""osname"":""Windows"",""osversion"":""8.1"",""a"":true}","9:21:24","1","3","Test_1","70","f","1","982.2999997138977","1366 x 768","1366 x 768","true","1","10","","","","",""
"null","<p style=""font-size: 80px;"">+ 10 points</p>","null","html-keyboard-response","103","625557","0.0-11.0-2.102","5a75a77817ef3500016ffd06","msd4ak","NS","58","M","{""name"":""Chrome"",""chrome"":true,""version"":""106.0"",""blink"":true,""windows"":true,""osname"":""Windows"",""osversion"":""8.1"",""a"":true}","9:21:24","1","3","Test_1","70","f","1","967.3000001907349","1366 x 768","1366 x 768","true","1","10","","","","",""
"null","<p style=""font-size: 80px;"">+ 10 points</p>","null","html-keyboard-response","104","628981","0.0-11.0-2.103","5a75a77817ef3500016ffd06","msd4ak","NS","58","M","{""name"":""Chrome"",""chrome"":true,""version"":""106.0"",""blink"":true,""windows"":true,""osname"":""Windows"",""osversion"":""8.1"",""a"":true}","9:21:24","1","3","Test_4","74","j","1","1411.4000000953674","1366 x 768","1366 x 768","true","1","10","","","","",""
"null","<p style=""font-size: 80px;"">+ 10 points</p>","null","html-keyboard-response","105","632269","0.0-11.0-2.104","5a75a77817ef3500016ffd06","msd4ak","NS","58","M","{""name"":""Chrome"",""chrome"":true,""version"":""106.0"",""blink"":true,""windows"":true,""osname"":""Windows"",""osversion"":""8.1"",""a"":true}","9:21:24","1","3","Test_1","70","f","1","1277.6999998092651","1366 x 768","1366 x 768","true","1","10","","","","",""
"null","<p style=""font-size: 80px;"">+ 10 points</p>","null","html-keyboard-response","106","635600","0.0-11.0-2.105","5a75a77817ef3500016ffd06","msd4ak","NS","58","M","{""name"":""Chrome"",""chrome"":true,""version"":""106.0"",""blink"":true,""windows"":true,""osname"":""Windows"",""osversion"":""8.1"",""a"":true}","9:21:24","1","3","Test_4","74","j","1","1323.1000003814697","1366 x 768","1366 x 768","true","1","10","","","","",""
"null","<p style=""font-size: 80px;"">+ 10 points</p>","null","html-keyboard-response","107","638652","0.0-11.0-2.106","5a75a77817ef3500016ffd06","msd4ak","NS","58","M","{""name"":""Chrome"",""chrome"":true,""version"":""106.0"",""blink"":true,""windows"":true,""osname"":""Windows"",""osversion"":""8.1"",""a"":true}","9:21:24","1","3","Test_4","74","j","1","1041.5999999046326","1366 x 768","1366 x 768","true","1","10","","","","",""
"null","<p style=""font-size: 80px;"">+ 10 points</p>","null","html-keyboard-response","108","641502","0.0-11.0-2.107","5a75a77817ef3500016ffd06","msd4ak","NS","58","M","{""name"":""Chrome"",""chrome"":true,""version"":""106.0"",""blink"":true,""windows"":true,""osname"":""Windows"",""osversion"":""8.1"",""a"":true}","9:21:24","1","3","Test_3","70","f","1","835.1000003814697","1366 x 768","1366 x 768","true","1","10","","","","",""
"null","<p style=""font-size: 80px;"">+ 10 points</p>","null","html-keyboard-response","109","644499","0.0-11.0-2.108","5a75a77817ef3500016ffd06","msd4ak","NS","58","M","{""name"":""Chrome"",""chrome"":true,""version"":""106.0"",""blink"":true,""windows"":true,""osname"":""Windows"",""osversion"":""8.1"",""a"":true}","9:21:24","1","3","Test_3","70","f","1","980.2999997138977","1366 x 768","1366 x 768","true","1","10","","","","",""
"null","<p style=""font-size: 80px;"">+ 10 points</p>","null","html-keyboard-response","110","662082","0.0-11.0-2.109","5a75a77817ef3500016ffd06","msd4ak","NS","58","M","{""name"":""Chrome"",""chrome"":true,""version"":""106.0"",""blink"":true,""windows"":true,""osname"":""Windows"",""osversion"":""8.1"",""a"":true}","9:21:24","1","3","Test_3","70","f","1","1256.5999999046326","1366 x 768","1366 x 768","true","1","10","","","","",""
"null","<p style=""font-size: 80px;"">+ 10 points</p>","null","html-keyboard-response","111","665461","0.0-11.0-2.110","5a75a77817ef3500016ffd06","msd4ak","NS","58","M","{""name"":""Chrome"",""chrome"":true,""version"":""106.0"",""blink"":true,""windows"":true,""osname"":""Windows"",""osversion"":""8.1"",""a"":true}","9:21:24","1","3","Test_4","74","j","1","1369.8000001907349","1366 x 768","1366 x 768","true","1","10","","","","",""
"null","<p style=""font-size: 80px;"">+ 10 points</p>","null","html-keyboard-response","112","668583","0.0-11.0-2.111","5a75a77817ef3500016ffd06","msd4ak","NS","58","M","{""name"":""Chrome"",""chrome"":true,""version"":""106.0"",""blink"":true,""windows"":true,""osname"":""Windows"",""osversion"":""8.1"",""a"":true}","9:21:24","1","3","Test_4","74","j","1","1113.5999999046326","1366 x 768","1366 x 768","true","1","10","","","","",""
"null","<p style=""font-size: 80px;"">+ 10 points</p>","null","html-keyboard-response","113","671737","0.0-11.0-2.112","5a75a77817ef3500016ffd06","msd4ak","NS","58","M","{""name"":""Chrome"",""chrome"":true,""version"":""106.0"",""blink"":true,""windows"":true,""osname"":""Windows"",""osversion"":""8.1"",""a"":true}","9:21:24","1","3","Test_2","74","j","1","1144.8999996185303","1366 x 768","1366 x 768","true","1","10","","","","",""
"null","<p style=""font-size: 80px;"">+ 10 points</p>","null","html-keyboard-response","114","674652","0.0-11.0-2.113","5a75a77817ef3500016ffd06","msd4ak","NS","58","M","{""name"":""Chrome"",""chrome"":true,""version"":""106.0"",""blink"":true,""windows"":true,""osname"":""Windows"",""osversion"":""8.1"",""a"":true}","9:21:24","1","3","Test_3","70","f","1","904.5","1366 x 768","1366 x 768","true","1","10","","","","",""
"null","<p style=""font-size: 80px;"">+ 10 points</p>","null","html-keyboard-response","115","677738","0.0-11.0-2.114","5a75a77817ef3500016ffd06","msd4ak","NS","58","M","{""name"":""Chrome"",""chrome"":true,""version"":""106.0"",""blink"":true,""windows"":true,""osname"":""Windows"",""osversion"":""8.1"",""a"":true}","9:21:24","1","3","Test_1","70","f","1","1073.8000001907349","1366 x 768","1366 x 768","true","1","10","","","","",""
"null","<p style=""font-size: 80px;"">+ 10 points</p>","null","html-keyboard-response","116","681264","0.0-11.0-2.115","5a75a77817ef3500016ffd06","msd4ak","NS","58","M","{""name"":""Chrome"",""chrome"":true,""version"":""106.0"",""blink"":true,""windows"":true,""osname"":""Windows"",""osversion"":""8.1"",""a"":true}","9:21:24","1","3","Test_3","70","f","1","1516.9000000953674","1366 x 768","1366 x 768","true","1","10","","","","",""
"null","<p style=""font-size: 80px;"">+ 10 points</p>","null","html-keyboard-response","117","684165","0.0-11.0-2.116","5a75a77817ef3500016ffd06","msd4ak","NS","58","M","{""name"":""Chrome"",""chrome"":true,""version"":""106.0"",""blink"":true,""windows"":true,""osname"":""Windows"",""osversion"":""8.1"",""a"":true}","9:21:24","1","3","Test_2","74","j","1","881.6999998092651","1366 x 768","1366 x 768","true","1","10","","","","",""
"null","<p style=""font-size: 80px;"">+ 10 points</p>","null","html-keyboard-response","118","687022","0.0-11.0-2.117","5a75a77817ef3500016ffd06","msd4ak","NS","58","M","{""name"":""Chrome"",""chrome"":true,""version"":""106.0"",""blink"":true,""windows"":true,""osname"":""Windows"",""osversion"":""8.1"",""a"":true}","9:21:24","1","3","Test_2","74","j","1","841.5999999046326","1366 x 768","1366 x 768","true","1","10","","","","",""
"null","<p style=""font-size: 80px;"">+ 10 points</p>","null","html-keyboard-response","119","690047","0.0-11.0-2.118","5a75a77817ef3500016ffd06","msd4ak","NS","58","M","{""name"":""Chrome"",""chrome"":true,""version"":""106.0"",""blink"":true,""windows"":true,""osname"":""Windows"",""osversion"":""8.1"",""a"":true}","9:21:24","1","3","Test_2","74","j","1","1011.5","1366 x 768","1366 x 768","true","1","10","","","","",""
"null","<p style=""font-size: 80px;"">+ 10 points</p>","null","html-keyboard-response","120","692933","0.0-11.0-2.119","5a75a77817ef3500016ffd06","msd4ak","NS","58","M","{""name"":""Chrome"",""chrome"":true,""version"":""106.0"",""blink"":true,""windows"":true,""osname"":""Windows"",""osversion"":""8.1"",""a"":true}","9:21:24","1","3","Test_3","70","f","1","869.9000000953674","1366 x 768","1366 x 768","true","1","10","","","","",""
"null","<p style=""font-size: 80px;"">+ 10 points</p>","null","html-keyboard-response","121","696163","0.0-11.0-2.120","5a75a77817ef3500016ffd06","msd4ak","NS","58","M","{""name"":""Chrome"",""chrome"":true,""version"":""106.0"",""blink"":true,""windows"":true,""osname"":""Windows"",""osversion"":""8.1"",""a"":true}","9:21:24","1","3","Test_1","70","f","1","1216.2000002861023","1366 x 768","1366 x 768","true","1","10","","","","",""
"null","<p style=""font-size: 80px;"">+ 0 points</p>","null","html-keyboard-response","122","699764","0.0-11.0-2.121","5a75a77817ef3500016ffd06","msd4ak","NS","58","M","{""name"":""Chrome"",""chrome"":true,""version"":""106.0"",""blink"":true,""windows"":true,""osname"":""Windows"",""osversion"":""8.1"",""a"":true}","9:21:24","1","4","Test_2","74","f","0","1591.5","1366 x 768","1366 x 768","true","1","0","","","","",""
"null","<p style=""font-size: 80px;"">+ 10 points</p>","null","html-keyboard-response","123","703355","0.0-11.0-2.122","5a75a77817ef3500016ffd06","msd4ak","NS","58","M","{""name"":""Chrome"",""chrome"":true,""version"":""106.0"",""blink"":true,""windows"":true,""osname"":""Windows"",""osversion"":""8.1"",""a"":true}","9:21:24","1","4","Test_1","74","j","1","1581.9000000953674","1366 x 768","1366 x 768","true","1","10","","","","",""
"null","<p style=""font-size: 80px;"">+ 10 points</p>","null","html-keyboard-response","124","706697","0.0-11.0-2.123","5a75a77817ef3500016ffd06","msd4ak","NS","58","M","{""name"":""Chrome"",""chrome"":true,""version"":""106.0"",""blink"":true,""windows"":true,""osname"":""Windows"",""osversion"":""8.1"",""a"":true}","9:21:24","1","4","Test_4","70","f","1","1330.4000000953674","1366 x 768","1366 x 768","true","1","10","","","","",""
"null","<p style=""font-size: 80px;"">+ 10 points</p>","null","html-keyboard-response","125","709738","0.0-11.0-2.124","5a75a77817ef3500016ffd06","msd4ak","NS","58","M","{""name"":""Chrome"",""chrome"":true,""version"":""106.0"",""blink"":true,""windows"":true,""osname"":""Windows"",""osversion"":""8.1"",""a"":true}","9:21:24","1","4","Test_4","70","f","1","1023","1366 x 768","1366 x 768","true","1","10","","","","",""
"null","<p style=""font-size: 80px;"">+ 10 points</p>","null","html-keyboard-response","126","712877","0.0-11.0-2.125","5a75a77817ef3500016ffd06","msd4ak","NS","58","M","{""name"":""Chrome"",""chrome"":true,""version"":""106.0"",""blink"":true,""windows"":true,""osname"":""Windows"",""osversion"":""8.1"",""a"":true}","9:21:24","1","4","Test_3","74","j","1","1128.9000000953674","1366 x 768","1366 x 768","true","1","10","","","","",""
"null","<p style=""font-size: 80px;"">+ 10 points</p>","null","html-keyboard-response","127","715682","0.0-11.0-2.126","5a75a77817ef3500016ffd06","msd4ak","NS","58","M","{""name"":""Chrome"",""chrome"":true,""version"":""106.0"",""blink"":true,""windows"":true,""osname"":""Windows"",""osversion"":""8.1"",""a"":true}","9:21:24","1","4","Test_2","70","f","1","794","1366 x 768","1366 x 768","true","1","10","","","","",""
"null","<p style=""font-size: 80px;"">+ 10 points</p>","null","html-keyboard-response","128","719009","0.0-11.0-2.127","5a75a77817ef3500016ffd06","msd4ak","NS","58","M","{""name"":""Chrome"",""chrome"":true,""version"":""106.0"",""blink"":true,""windows"":true,""osname"":""Windows"",""osversion"":""8.1"",""a"":true}","9:21:24","1","4","Test_4","70","f","1","1311.0999999046326","1366 x 768","1366 x 768","true","1","10","","","","",""
"null","<p style=""font-size: 80px;"">+ 10 points</p>","null","html-keyboard-response","129","722194","0.0-11.0-2.128","5a75a77817ef3500016ffd06","msd4ak","NS","58","M","{""name"":""Chrome"",""chrome"":true,""version"":""106.0"",""blink"":true,""windows"":true,""osname"":""Windows"",""osversion"":""8.1"",""a"":true}","9:21:24","1","4","Test_1","74","j","1","1175","1366 x 768","1366 x 768","true","1","10","","","","",""
"null","<p style=""font-size: 80px;"">+ 10 points</p>","null","html-keyboard-response","130","726016","0.0-11.0-2.129","5a75a77817ef3500016ffd06","msd4ak","NS","58","M","{""name"":""Chrome"",""chrome"":true,""version"":""106.0"",""blink"":true,""windows"":true,""osname"":""Windows"",""osversion"":""8.1"",""a"":true}","9:21:24","1","4","Test_3","74","j","1","1811.0999999046326","1366 x 768","1366 x 768","true","1","10","","","","",""
"null","<p style=""font-size: 80px;"">+ 10 points</p>","null","html-keyboard-response","131","729089","0.0-11.0-2.130","5a75a77817ef3500016ffd06","msd4ak","NS","58","M","{""name"":""Chrome"",""chrome"":true,""version"":""106.0"",""blink"":true,""windows"":true,""osname"":""Windows"",""osversion"":""8.1"",""a"":true}","9:21:24","1","4","Test_1","74","j","1","1058.2999997138977","1366 x 768","1366 x 768","true","1","10","","","","",""
"null","<p style=""font-size: 80px;"">+ 10 points</p>","null","html-keyboard-response","132","732064","0.0-11.0-2.131","5a75a77817ef3500016ffd06","msd4ak","NS","58","M","{""name"":""Chrome"",""chrome"":true,""version"":""106.0"",""blink"":true,""windows"":true,""osname"":""Windows"",""osversion"":""8.1"",""a"":true}","9:21:24","1","4","Test_4","70","f","1","964.6999998092651","1366 x 768","1366 x 768","true","1","10","","","","",""
"null","<p style=""font-size: 80px;"">+ 10 points</p>","null","html-keyboard-response","133","734861","0.0-11.0-2.132","5a75a77817ef3500016ffd06","msd4ak","NS","58","M","{""name"":""Chrome"",""chrome"":true,""version"":""106.0"",""blink"":true,""windows"":true,""osname"":""Windows"",""osversion"":""8.1"",""a"":true}","9:21:24","1","4","Test_3","74","j","1","781.0999999046326","1366 x 768","1366 x 768","true","1","10","","","","",""
"null","<p style=""font-size: 80px;"">+ 10 points</p>","null","html-keyboard-response","134","737962","0.0-11.0-2.133","5a75a77817ef3500016ffd06","msd4ak","NS","58","M","{""name"":""Chrome"",""chrome"":true,""version"":""106.0"",""blink"":true,""windows"":true,""osname"":""Windows"",""osversion"":""8.1"",""a"":true}","9:21:24","1","4","Test_3","74","j","1","1087.4000000953674","1366 x 768","1366 x 768","true","1","10","","","","",""
"null","<p style=""font-size: 80px;"">+ 10 points</p>","null","html-keyboard-response","135","741144","0.0-11.0-2.134","5a75a77817ef3500016ffd06","msd4ak","NS","58","M","{""name"":""Chrome"",""chrome"":true,""version"":""106.0"",""blink"":true,""windows"":true,""osname"":""Windows"",""osversion"":""8.1"",""a"":true}","9:21:24","1","4","Test_1","74","j","1","1170.6999998092651","1366 x 768","1366 x 768","true","1","10","","","","",""
"null","<p style=""font-size: 80px;"">+ 10 points</p>","null","html-keyboard-response","136","744816","0.0-11.0-2.135","5a75a77817ef3500016ffd06","msd4ak","NS","58","M","{""name"":""Chrome"",""chrome"":true,""version"":""106.0"",""blink"":true,""windows"":true,""osname"":""Windows"",""osversion"":""8.1"",""a"":true}","9:21:24","1","4","Test_2","70","f","1","1657.5999999046326","1366 x 768","1366 x 768","true","1","10","","","","",""
"null","<p style=""font-size: 80px;"">+ 10 points</p>","null","html-keyboard-response","137","747719","0.0-11.0-2.136","5a75a77817ef3500016ffd06","msd4ak","NS","58","M","{""name"":""Chrome"",""chrome"":true,""version"":""106.0"",""blink"":true,""windows"":true,""osname"":""Windows"",""osversion"":""8.1"",""a"":true}","9:21:24","1","4","Test_2","70","f","1","884.6000003814697","1366 x 768","1366 x 768","true","1","10","","","","",""
"null","<p style=""font-size: 80px;"">+ 0 points</p>","null","html-keyboard-response","138","750633","0.0-11.0-2.137","5a75a77817ef3500016ffd06","msd4ak","NS","58","M","{""name"":""Chrome"",""chrome"":true,""version"":""106.0"",""blink"":true,""windows"":true,""osname"":""Windows"",""osversion"":""8.1"",""a"":true}","9:21:24","1","3","Test_3","74","f","0","902.5999999046326","1366 x 768","1366 x 768","true","1","0","","","","",""
"null","<p style=""font-size: 80px;"">+ 10 points</p>","null","html-keyboard-response","139","753975","0.0-11.0-2.138","5a75a77817ef3500016ffd06","msd4ak","NS","58","M","{""name"":""Chrome"",""chrome"":true,""version"":""106.0"",""blink"":true,""windows"":true,""osname"":""Windows"",""osversion"":""8.1"",""a"":true}","9:21:24","1","3","Test_3","70","f","1","1331.4000000953674","1366 x 768","1366 x 768","true","1","10","","","","",""
"null","<p style=""font-size: 80px;"">+ 10 points</p>","null","html-keyboard-response","140","757111","0.0-11.0-2.139","5a75a77817ef3500016ffd06","msd4ak","NS","58","M","{""name"":""Chrome"",""chrome"":true,""version"":""106.0"",""blink"":true,""windows"":true,""osname"":""Windows"",""osversion"":""8.1"",""a"":true}","9:21:24","1","3","Test_3","70","f","1","1118.8999996185303","1366 x 768","1366 x 768","true","1","10","","","","",""
"null","<p style=""font-size: 80px;"">+ 10 points</p>","null","html-keyboard-response","141","760027","0.0-11.0-2.140","5a75a77817ef3500016ffd06","msd4ak","NS","58","M","{""name"":""Chrome"",""chrome"":true,""version"":""106.0"",""blink"":true,""windows"":true,""osname"":""Windows"",""osversion"":""8.1"",""a"":true}","9:21:24","1","3","Test_4","74","j","1","904.1999998092651","1366 x 768","1366 x 768","true","1","10","","","","",""
"null","<p style=""font-size: 80px;"">+ 10 points</p>","null","html-keyboard-response","142","762992","0.0-11.0-2.141","5a75a77817ef3500016ffd06","msd4ak","NS","58","M","{""name"":""Chrome"",""chrome"":true,""version"":""106.0"",""blink"":true,""windows"":true,""osname"":""Windows"",""osversion"":""8.1"",""a"":true}","9:21:24","1","3","Test_4","74","j","1","952","1366 x 768","1366 x 768","true","1","10","","","","",""
"null","<p style=""font-size: 80px;"">+ 10 points</p>","null","html-keyboard-response","143","766197","0.0-11.0-2.142","5a75a77817ef3500016ffd06","msd4ak","NS","58","M","{""name"":""Chrome"",""chrome"":true,""version"":""106.0"",""blink"":true,""windows"":true,""osname"":""Windows"",""osversion"":""8.1"",""a"":true}","9:21:24","1","3","Test_1","70","f","1","1192.6000003814697","1366 x 768","1366 x 768","true","1","10","","","","",""
"null","<p style=""font-size: 80px;"">+ 10 points</p>","null","html-keyboard-response","144","771747","0.0-11.0-2.143","5a75a77817ef3500016ffd06","msd4ak","NS","58","M","{""name"":""Chrome"",""chrome"":true,""version"":""106.0"",""blink"":true,""windows"":true,""osname"":""Windows"",""osversion"":""8.1"",""a"":true}","9:21:24","1","3","Test_1","70","f","1","3537.699999809265","1366 x 768","1366 x 768","true","1","10","","","","",""
"null","<p style=""font-size: 80px;"">+ 10 points</p>","null","html-keyboard-response","145","774631","0.0-11.0-2.144","5a75a77817ef3500016ffd06","msd4ak","NS","58","M","{""name"":""Chrome"",""chrome"":true,""version"":""106.0"",""blink"":true,""windows"":true,""osname"":""Windows"",""osversion"":""8.1"",""a"":true}","9:21:24","1","3","Test_2","74","j","1","871.8000001907349","1366 x 768","1366 x 768","true","1","10","","","","",""
"null","<p style=""font-size: 80px;"">+ 10 points</p>","null","html-keyboard-response","146","777455","0.0-11.0-2.145","5a75a77817ef3500016ffd06","msd4ak","NS","58","M","{""name"":""Chrome"",""chrome"":true,""version"":""106.0"",""blink"":true,""windows"":true,""osname"":""Windows"",""osversion"":""8.1"",""a"":true}","9:21:24","1","3","Test_1","70","f","1","794.4000000953674","1366 x 768","1366 x 768","true","1","10","","","","",""
"null","<p style=""font-size: 80px;"">+ 10 points</p>","null","html-keyboard-response","147","782232","0.0-11.0-2.146","5a75a77817ef3500016ffd06","msd4ak","NS","58","M","{""name"":""Chrome"",""chrome"":true,""version"":""106.0"",""blink"":true,""windows"":true,""osname"":""Windows"",""osversion"":""8.1"",""a"":true}","9:21:24","1","3","Test_3","70","f","1","2767.9000000953674","1366 x 768","1366 x 768","true","1","10","","","","",""
"null","<p style=""font-size: 80px;"">+ 10 points</p>","null","html-keyboard-response","148","788399","0.0-11.0-2.147","5a75a77817ef3500016ffd06","msd4ak","NS","58","M","{""name"":""Chrome"",""chrome"":true,""version"":""106.0"",""blink"":true,""windows"":true,""osname"":""Windows"",""osversion"":""8.1"",""a"":true}","9:21:24","1","3","Test_3","70","f","1","4149.60000038147","1366 x 768","1366 x 768","true","1","10","","","","",""
"null","<p style=""font-size: 80px;"">+ 10 points</p>","null","html-keyboard-response","149","791701","0.0-11.0-2.148","5a75a77817ef3500016ffd06","msd4ak","NS","58","M","{""name"":""Chrome"",""chrome"":true,""version"":""106.0"",""blink"":true,""windows"":true,""osname"":""Windows"",""osversion"":""8.1"",""a"":true}","9:21:24","1","3","Test_2","74","j","1","1286.4000000953674","1366 x 768","1366 x 768","true","1","10","","","","",""
"null","<p style=""font-size: 80px;"">+ 10 points</p>","null","html-keyboard-response","150","794892","0.0-11.0-2.149","5a75a77817ef3500016ffd06","msd4ak","NS","58","M","{""name"":""Chrome"",""chrome"":true,""version"":""106.0"",""blink"":true,""windows"":true,""osname"":""Windows"",""osversion"":""8.1"",""a"":true}","9:21:24","1","3","Test_2","74","j","1","1178.6000003814697","1366 x 768","1366 x 768","true","1","10","","","","",""
"null","<p style=""font-size: 80px;"">+ 10 points</p>","null","html-keyboard-response","151","798120","0.0-11.0-2.150","5a75a77817ef3500016ffd06","msd4ak","NS","58","M","{""name"":""Chrome"",""chrome"":true,""version"":""106.0"",""blink"":true,""windows"":true,""osname"":""Windows"",""osversion"":""8.1"",""a"":true}","9:21:24","1","3","Test_1","70","f","1","1217.9000000953674","1366 x 768","1366 x 768","true","1","10","","","","",""
"null","<p style=""font-size: 80px;"">+ 10 points</p>","null","html-keyboard-response","152","800989","0.0-11.0-2.151","5a75a77817ef3500016ffd06","msd4ak","NS","58","M","{""name"":""Chrome"",""chrome"":true,""version"":""106.0"",""blink"":true,""windows"":true,""osname"":""Windows"",""osversion"":""8.1"",""a"":true}","9:21:24","1","3","Test_4","74","j","1","855.5","1366 x 768","1366 x 768","true","1","10","","","","",""
"null","<p style=""font-size: 80px;"">+ 10 points</p>","null","html-keyboard-response","153","803904","0.0-11.0-2.152","5a75a77817ef3500016ffd06","msd4ak","NS","58","M","{""name"":""Chrome"",""chrome"":true,""version"":""106.0"",""blink"":true,""windows"":true,""osname"":""Windows"",""osversion"":""8.1"",""a"":true}","9:21:24","1","3","Test_4","74","j","1","901.1999998092651","1366 x 768","1366 x 768","true","1","10","","","","",""
"null","<p style=""font-size: 80px;"">+ 10 points</p>","null","html-keyboard-response","154","806802","0.0-11.0-2.153","5a75a77817ef3500016ffd06","msd4ak","NS","58","M","{""name"":""Chrome"",""chrome"":true,""version"":""106.0"",""blink"":true,""windows"":true,""osname"":""Windows"",""osversion"":""8.1"",""a"":true}","9:21:24","1","3","Test_1","70","f","1","886.8999996185303","1366 x 768","1366 x 768","true","1","10","","","","",""
"null","<p style=""font-size: 80px;"">+ 10 points</p>","null","html-keyboard-response","155","811041","0.0-11.0-2.154","5a75a77817ef3500016ffd06","msd4ak","NS","58","M","{""name"":""Chrome"",""chrome"":true,""version"":""106.0"",""blink"":true,""windows"":true,""osname"":""Windows"",""osversion"":""8.1"",""a"":true}","9:21:24","1","3","Test_3","70","f","1","2226","1366 x 768","1366 x 768","true","1","10","","","","",""
"null","<p style=""font-size: 80px;"">+ 10 points</p>","null","html-keyboard-response","156","814537","0.0-11.0-2.155","5a75a77817ef3500016ffd06","msd4ak","NS","58","M","{""name"":""Chrome"",""chrome"":true,""version"":""106.0"",""blink"":true,""windows"":true,""osname"":""Windows"",""osversion"":""8.1"",""a"":true}","9:21:24","1","3","Test_1","70","f","1","1487","1366 x 768","1366 x 768","true","1","10","","","","",""
"null","<p style=""font-size: 80px;"">+ 10 points</p>","null","html-keyboard-response","157","817698","0.0-11.0-2.156","5a75a77817ef3500016ffd06","msd4ak","NS","58","M","{""name"":""Chrome"",""chrome"":true,""version"":""106.0"",""blink"":true,""windows"":true,""osname"":""Windows"",""osversion"":""8.1"",""a"":true}","9:21:24","1","3","Test_2","74","j","1","1147.3999996185303","1366 x 768","1366 x 768","true","1","10","","","","",""
"null","<p style=""font-size: 80px;"">+ 10 points</p>","null","html-keyboard-response","158","820542","0.0-11.0-2.157","5a75a77817ef3500016ffd06","msd4ak","NS","58","M","{""name"":""Chrome"",""chrome"":true,""version"":""106.0"",""blink"":true,""windows"":true,""osname"":""Windows"",""osversion"":""8.1"",""a"":true}","9:21:24","1","3","Test_2","74","j","1","830.7999997138977","1366 x 768","1366 x 768","true","1","10","","","","",""
"null","<p style=""font-size: 80px;"">+ 10 points</p>","null","html-keyboard-response","159","823366","0.0-11.0-2.158","5a75a77817ef3500016ffd06","msd4ak","NS","58","M","{""name"":""Chrome"",""chrome"":true,""version"":""106.0"",""blink"":true,""windows"":true,""osname"":""Windows"",""osversion"":""8.1"",""a"":true}","9:21:24","1","3","Test_2","74","j","1","816.0999999046326","1366 x 768","1366 x 768","true","1","10","","","","",""
"null","<p style=""font-size: 80px;"">+ 10 points</p>","null","html-keyboard-response","160","826521","0.0-11.0-2.159","5a75a77817ef3500016ffd06","msd4ak","NS","58","M","{""name"":""Chrome"",""chrome"":true,""version"":""106.0"",""blink"":true,""windows"":true,""osname"":""Windows"",""osversion"":""8.1"",""a"":true}","9:21:24","1","3","Test_4","74","j","1","1140.6999998092651","1366 x 768","1366 x 768","true","1","10","","","","",""
"null","<p style=""font-size: 80px;"">+ 0 points</p>","null","html-keyboard-response","161","829300","0.0-11.0-2.160","5a75a77817ef3500016ffd06","msd4ak","NS","58","M","{""name"":""Chrome"",""chrome"":true,""version"":""106.0"",""blink"":true,""windows"":true,""osname"":""Windows"",""osversion"":""8.1"",""a"":true}","9:21:24","1","4","Test_1","70","j","0","763.0999999046326","1366 x 768","1366 x 768","true","1","0","","","","",""
"null","<p style=""font-size: 80px;"">+ 0 points</p>","null","html-keyboard-response","162","833769","0.0-11.0-2.161","5a75a77817ef3500016ffd06","msd4ak","NS","58","M","{""name"":""Chrome"",""chrome"":true,""version"":""106.0"",""blink"":true,""windows"":true,""osname"":""Windows"",""osversion"":""8.1"",""a"":true}","9:21:24","1","4","Test_3","70","j","0","2459.199999809265","1366 x 768","1366 x 768","true","1","0","","","","",""
"null","<p style=""font-size: 80px;"">+ 0 points</p>","null","html-keyboard-response","163","837016","0.0-11.0-2.162","5a75a77817ef3500016ffd06","msd4ak","NS","58","M","{""name"":""Chrome"",""chrome"":true,""version"":""106.0"",""blink"":true,""windows"":true,""osname"":""Windows"",""osversion"":""8.1"",""a"":true}","9:21:24","1","4","Test_4","74","f","0","1233.9000000953674","1366 x 768","1366 x 768","true","1","0","","","","",""
"null","<p style=""font-size: 80px;"">+ 10 points</p>","null","html-keyboard-response","164","839740","0.0-11.0-2.163","5a75a77817ef3500016ffd06","msd4ak","NS","58","M","{""name"":""Chrome"",""chrome"":true,""version"":""106.0"",""blink"":true,""windows"":true,""osname"":""Windows"",""osversion"":""8.1"",""a"":true}","9:21:24","1","4","Test_4","70","f","1","712.0999999046326","1366 x 768","1366 x 768","true","1","10","","","","",""
"null","<p style=""font-size: 80px;"">+ 10 points</p>","null","html-keyboard-response","165","842716","0.0-11.0-2.164","5a75a77817ef3500016ffd06","msd4ak","NS","58","M","{""name"":""Chrome"",""chrome"":true,""version"":""106.0"",""blink"":true,""windows"":true,""osname"":""Windows"",""osversion"":""8.1"",""a"":true}","9:21:24","1","4","Test_4","70","f","1","961.0999999046326","1366 x 768","1366 x 768","true","1","10","","","","",""
"null","<p style=""font-size: 80px;"">+ 10 points</p>","null","html-keyboard-response","166","847908","0.0-11.0-2.165","5a75a77817ef3500016ffd06","msd4ak","NS","58","M","{""name"":""Chrome"",""chrome"":true,""version"":""106.0"",""blink"":true,""windows"":true,""osname"":""Windows"",""osversion"":""8.1"",""a"":true}","9:21:24","1","4","Test_2","70","f","1","3179.0999999046326","1366 x 768","1366 x 768","true","1","10","","","","",""
"null","<p style=""font-size: 80px;"">+ 10 points</p>","null","html-keyboard-response","167","851665","0.0-11.0-2.166","5a75a77817ef3500016ffd06","msd4ak","NS","58","M","{""name"":""Chrome"",""chrome"":true,""version"":""106.0"",""blink"":true,""windows"":true,""osname"":""Windows"",""osversion"":""8.1"",""a"":true}","9:21:24","1","4","Test_3","74","j","1","1745.6999998092651","1366 x 768","1366 x 768","true","1","10","","","","",""
"null","<p style=""font-size: 80px;"">+ 0 points</p>","null","html-keyboard-response","168","856247","0.0-11.0-2.167","5a75a77817ef3500016ffd06","msd4ak","NS","58","M","{""name"":""Chrome"",""chrome"":true,""version"":""106.0"",""blink"":true,""windows"":true,""osname"":""Windows"",""osversion"":""8.1"",""a"":true}","9:21:24","1","4","Test_1","70","j","0","2565.5","1366 x 768","1366 x 768","true","1","0","","","","",""
"null","<p style=""font-size: 80px;"">+ 10 points</p>","null","html-keyboard-response","169","861610","0.0-11.0-2.168","5a75a77817ef3500016ffd06","msd4ak","NS","58","M","{""name"":""Chrome"",""chrome"":true,""version"":""106.0"",""blink"":true,""windows"":true,""osname"":""Windows"",""osversion"":""8.1"",""a"":true}","9:21:24","1","4","Test_3","74","j","1","3354.2999997138977","1366 x 768","1366 x 768","true","1","10","","","","",""
"null","<p style=""font-size: 80px;"">+ 10 points</p>","null","html-keyboard-response","170","865549","0.0-11.0-2.169","5a75a77817ef3500016ffd06","msd4ak","NS","58","M","{""name"":""Chrome"",""chrome"":true,""version"":""106.0"",""blink"":true,""windows"":true,""osname"":""Windows"",""osversion"":""8.1"",""a"":true}","9:21:24","1","4","Test_1","74","j","1","1924.5","1366 x 768","1366 x 768","true","1","10","","","","",""
"null","<p style=""font-size: 80px;"">+ 10 points</p>","null","html-keyboard-response","171","868556","0.0-11.0-2.170","5a75a77817ef3500016ffd06","msd4ak","NS","58","M","{""name"":""Chrome"",""chrome"":true,""version"":""106.0"",""blink"":true,""windows"":true,""osname"":""Windows"",""osversion"":""8.1"",""a"":true}","9:21:24","1","4","Test_1","74","j","1","997.6999998092651","1366 x 768","1366 x 768","true","1","10","","","","",""
"null","<p style=""font-size: 80px;"">+ 10 points</p>","null","html-keyboard-response","172","872779","0.0-11.0-2.171","5a75a77817ef3500016ffd06","msd4ak","NS","58","M","{""name"":""Chrome"",""chrome"":true,""version"":""106.0"",""blink"":true,""windows"":true,""osname"":""Windows"",""osversion"":""8.1"",""a"":true}","9:21:24","1","4","Test_4","70","f","1","2210.5","1366 x 768","1366 x 768","true","1","10","","","","",""
"null","<p style=""font-size: 80px;"">+ 10 points</p>","null","html-keyboard-response","173","876368","0.0-11.0-2.172","5a75a77817ef3500016ffd06","msd4ak","NS","58","M","{""name"":""Chrome"",""chrome"":true,""version"":""106.0"",""blink"":true,""windows"":true,""osname"":""Windows"",""osversion"":""8.1"",""a"":true}","9:21:24","1","4","Test_2","70","f","1","1572.7000002861023","1366 x 768","1366 x 768","true","1","10","","","","",""
"null","<p style=""font-size: 80px;"">+ 10 points</p>","null","html-keyboard-response","174","879392","0.0-11.0-2.173","5a75a77817ef3500016ffd06","msd4ak","NS","58","M","{""name"":""Chrome"",""chrome"":true,""version"":""106.0"",""blink"":true,""windows"":true,""osname"":""Windows"",""osversion"":""8.1"",""a"":true}","9:21:24","1","4","Test_2","70","f","1","1001","1366 x 768","1366 x 768","true","1","10","","","","",""
"null","<p style=""font-size: 80px;"">+ 10 points</p>","null","html-keyboard-response","175","882565","0.0-11.0-2.174","5a75a77817ef3500016ffd06","msd4ak","NS","58","M","{""name"":""Chrome"",""chrome"":true,""version"":""106.0"",""blink"":true,""windows"":true,""osname"":""Windows"",""osversion"":""8.1"",""a"":true}","9:21:24","1","4","Test_2","70","f","1","1148.0999999046326","1366 x 768","1366 x 768","true","1","10","","","","",""
"null","<p style=""font-size: 80px;"">+ 10 points</p>","null","html-keyboard-response","176","886288","0.0-11.0-2.175","5a75a77817ef3500016ffd06","msd4ak","NS","58","M","{""name"":""Chrome"",""chrome"":true,""version"":""106.0"",""blink"":true,""windows"":true,""osname"":""Windows"",""osversion"":""8.1"",""a"":true}","9:21:24","1","4","Test_3","74","j","1","1712.1999998092651","1366 x 768","1366 x 768","true","1","10","","","","",""
"null","<p style=""font-size: 80px;"">+ 0 points</p>","null","html-keyboard-response","177","889291","0.0-11.0-2.176","5a75a77817ef3500016ffd06","msd4ak","NS","58","M","{""name"":""Chrome"",""chrome"":true,""version"":""106.0"",""blink"":true,""windows"":true,""osname"":""Windows"",""osversion"":""8.1"",""a"":true}","9:21:24","1","3","Test_3","74","f","0","984.4000000953674","1366 x 768","1366 x 768","true","1","0","","","","",""
"null","<p style=""font-size: 80px;"">+ 10 points</p>","null","html-keyboard-response","178","894613","0.0-11.0-2.177","5a75a77817ef3500016ffd06","msd4ak","NS","58","M","{""name"":""Chrome"",""chrome"":true,""version"":""106.0"",""blink"":true,""windows"":true,""osname"":""Windows"",""osversion"":""8.1"",""a"":true}","9:21:24","1","3","Test_4","74","j","1","3307.9000000953674","1366 x 768","1366 x 768","true","1","10","","","","",""
"null","<p style=""font-size: 80px;"">+ 10 points</p>","null","html-keyboard-response","179","897697","0.0-11.0-2.178","5a75a77817ef3500016ffd06","msd4ak","NS","58","M","{""name"":""Chrome"",""chrome"":true,""version"":""106.0"",""blink"":true,""windows"":true,""osname"":""Windows"",""osversion"":""8.1"",""a"":true}","9:21:24","1","3","Test_1","70","f","1","1073.6000003814697","1366 x 768","1366 x 768","true","1","10","","","","",""
"null","<p style=""font-size: 80px;"">+ 10 points</p>","null","html-keyboard-response","180","900653","0.0-11.0-2.179","5a75a77817ef3500016ffd06","msd4ak","NS","58","M","{""name"":""Chrome"",""chrome"":true,""version"":""106.0"",""blink"":true,""windows"":true,""osname"":""Windows"",""osversion"":""8.1"",""a"":true}","9:21:24","1","3","Test_4","74","j","1","947.9000000953674","1366 x 768","1366 x 768","true","1","10","","","","",""
"null","<p style=""font-size: 80px;"">+ 10 points</p>","null","html-keyboard-response","181","903697","0.0-11.0-2.180","5a75a77817ef3500016ffd06","msd4ak","NS","58","M","{""name"":""Chrome"",""chrome"":true,""version"":""106.0"",""blink"":true,""windows"":true,""osname"":""Windows"",""osversion"":""8.1"",""a"":true}","9:21:24","1","3","Test_4","74","j","1","1029","1366 x 768","1366 x 768","true","1","10","","","","",""
"null","<p style=""font-size: 80px;"">+ 10 points</p>","null","html-keyboard-response","182","906499","0.0-11.0-2.181","5a75a77817ef3500016ffd06","msd4ak","NS","58","M","{""name"":""Chrome"",""chrome"":true,""version"":""106.0"",""blink"":true,""windows"":true,""osname"":""Windows"",""osversion"":""8.1"",""a"":true}","9:21:24","1","3","Test_3","70","f","1","788.0999999046326","1366 x 768","1366 x 768","true","1","10","","","","",""
"null","<p style=""font-size: 80px;"">+ 0 points</p>","null","html-keyboard-response","183","912463","0.0-11.0-2.182","5a75a77817ef3500016ffd06","msd4ak","NS","58","M","{""name"":""Chrome"",""chrome"":true,""version"":""106.0"",""blink"":true,""windows"":true,""osname"":""Windows"",""osversion"":""8.1"",""a"":true}","9:21:24","1","3","Test_2","70","j","0","3945.7000002861023","1366 x 768","1366 x 768","true","1","0","","","","",""
"null","<p style=""font-size: 80px;"">+ 10 points</p>","null","html-keyboard-response","184","916099","0.0-11.0-2.183","5a75a77817ef3500016ffd06","msd4ak","NS","58","M","{""name"":""Chrome"",""chrome"":true,""version"":""106.0"",""blink"":true,""windows"":true,""osname"":""Windows"",""osversion"":""8.1"",""a"":true}","9:21:24","1","3","Test_1","70","f","1","1627","1366 x 768","1366 x 768","true","1","10","","","","",""
"null","<p style=""font-size: 80px;"">+ 10 points</p>","null","html-keyboard-response","185","919340","0.0-11.0-2.184","5a75a77817ef3500016ffd06","msd4ak","NS","58","M","{""name"":""Chrome"",""chrome"":true,""version"":""106.0"",""blink"":true,""windows"":true,""osname"":""Windows"",""osversion"":""8.1"",""a"":true}","9:21:24","1","3","Test_2","74","j","1","1231.8000001907349","1366 x 768","1366 x 768","true","1","10","","","","",""
"null","<p style=""font-size: 80px;"">+ 10 points</p>","null","html-keyboard-response","186","922467","0.0-11.0-2.185","5a75a77817ef3500016ffd06","msd4ak","NS","58","M","{""name"":""Chrome"",""chrome"":true,""version"":""106.0"",""blink"":true,""windows"":true,""osname"":""Windows"",""osversion"":""8.1"",""a"":true}","9:21:24","1","3","Test_2","74","j","1","1116.5999999046326","1366 x 768","1366 x 768","true","1","10","","","","",""
"null","<p style=""font-size: 80px;"">+ 10 points</p>","null","html-keyboard-response","187","925345","0.0-11.0-2.186","5a75a77817ef3500016ffd06","msd4ak","NS","58","M","{""name"":""Chrome"",""chrome"":true,""version"":""106.0"",""blink"":true,""windows"":true,""osname"":""Windows"",""osversion"":""8.1"",""a"":true}","9:21:24","1","3","Test_1","70","f","1","859.5","1366 x 768","1366 x 768","true","1","10","","","","",""
"null","<p style=""font-size: 80px;"">+ 10 points</p>","null","html-keyboard-response","188","928489","0.0-11.0-2.187","5a75a77817ef3500016ffd06","msd4ak","NS","58","M","{""name"":""Chrome"",""chrome"":true,""version"":""106.0"",""blink"":true,""windows"":true,""osname"":""Windows"",""osversion"":""8.1"",""a"":true}","9:21:24","1","3","Test_3","70","f","1","1127.7000002861023","1366 x 768","1366 x 768","true","1","10","","","","",""
