"rt","stimulus","key_press","trial_type","trial_index","time_elapsed","internal_node_id","Prolific_ID","random_ID","initials","age","gender","pc_info","start_time","Phase","Rule","Stimulus","Response","CorrResp","Accuracy","ResponseTime","screen_resolution","window_resolution","focus","relevant","Points","responses","question_order","rev_check","butterfly_check","passed_practice"
"null","<p style=""font-size: 80px;"">+ 10 points</p>","null","html-keyboard-response","1","73044","0.0-7.0-2.0","57c57ea095a3ea00016e5a14","rf98hl","TH","35","F","{""name"":""Chrome"",""chrome"":true,""version"":""106.0"",""blink"":true,""windows"":true,""osname"":""Windows"",""osversion"":""10"",""a"":true}","9:10:37","0","1","Practice_2","74","j","1","1223.7000000178814","1920 x 1080","1920 x 1080","true","1","10","","","","",""
"null","<p style=""font-size: 80px;"">+ 10 points</p>","null","html-keyboard-response","2","76048","0.0-7.0-2.1","57c57ea095a3ea00016e5a14","rf98hl","TH","35","F","{""name"":""Chrome"",""chrome"":true,""version"":""106.0"",""blink"":true,""windows"":true,""osname"":""Windows"",""osversion"":""10"",""a"":true}","9:10:37","0","1","Practice_3","70","f","1","986.5999999940395","1920 x 1080","1920 x 1080","true","1","10","","","","",""
"null","<p style=""font-size: 80px;"">+ 0 points</p>","null","html-keyboard-response","3","79020","0.0-7.0-2.2","57c57ea095a3ea00016e5a14","rf98hl","TH","35","F","{""name"":""Chrome"",""chrome"":true,""version"":""106.0"",""blink"":true,""windows"":true,""osname"":""Windows"",""osversion"":""10"",""a"":true}","9:10:37","0","1","Practice_1","74","f","0","952.9000000059605","1920 x 1080","1920 x 1080","true","1","0","","","","",""
"null","<p style=""font-size: 80px;"">+ 10 points</p>","null","html-keyboard-response","4","82065","0.0-7.0-2.3","57c57ea095a3ea00016e5a14","rf98hl","TH","35","F","{""name"":""Chrome"",""chrome"":true,""version"":""106.0"",""blink"":true,""windows"":true,""osname"":""Windows"",""osversion"":""10"",""a"":true}","9:10:37","0","1","Practice_4","74","j","1","1022.4000000059605","1920 x 1080","1920 x 1080","true","1","10","","","","",""
"null","<p style=""font-size: 80px;"">+ 10 points</p>","null","html-keyboard-response","5","84672","0.0-7.0-2.4","57c57ea095a3ea00016e5a14","rf98hl","TH","35","F","{""name"":""Chrome"",""chrome"":true,""version"":""106.0"",""blink"":true,""windows"":true,""osname"":""Windows"",""osversion"":""10"",""a"":true}","9:10:37","0","1","Practice_1","70","f","1","585.3000000119209","1920 x 1080","1920 x 1080","true","1","10","","","","",""
"null","<p style=""font-size: 80px;"">+ 10 points</p>","null","html-keyboard-response","6","87199","0.0-7.0-2.5","57c57ea095a3ea00016e5a14","rf98hl","TH","35","F","{""name"":""Chrome"",""chrome"":true,""version"":""106.0"",""blink"":true,""windows"":true,""osname"":""Windows"",""osversion"":""10"",""a"":true}","9:10:37","0","1","Practice_4","74","j","1","519.4000000059605","1920 x 1080","1920 x 1080","true","1","10","","","","",""
"null","<p style=""font-size: 80px;"">+ 0 points</p>","null","html-keyboard-response","7","90042","0.0-7.0-2.6","57c57ea095a3ea00016e5a14","rf98hl","TH","35","F","{""name"":""Chrome"",""chrome"":true,""version"":""106.0"",""blink"":true,""windows"":true,""osname"":""Windows"",""osversion"":""10"",""a"":true}","9:10:37","0","1","Practice_2","70","j","0","833.2999999821186","1920 x 1080","1920 x 1080","true","1","0","","","","",""
"null","<p style=""font-size: 80px;"">+ 0 points</p>","null","html-keyboard-response","8","92555","0.0-7.0-2.7","57c57ea095a3ea00016e5a14","rf98hl","TH","35","F","{""name"":""Chrome"",""chrome"":true,""version"":""106.0"",""blink"":true,""windows"":true,""osname"":""Windows"",""osversion"":""10"",""a"":true}","9:10:37","0","1","Practice_1","74","f","0","501.60000002384186","1920 x 1080","1920 x 1080","true","1","0","","","","",""
"null","<p style=""font-size: 80px;"">+ 0 points</p>","null","html-keyboard-response","9","96078","0.0-7.0-2.8","57c57ea095a3ea00016e5a14","rf98hl","TH","35","F","{""name"":""Chrome"",""chrome"":true,""version"":""106.0"",""blink"":true,""windows"":true,""osname"":""Windows"",""osversion"":""10"",""a"":true}","9:10:37","0","1","Practice_3","74","f","0","1504.9000000059605","1920 x 1080","1920 x 1080","true","1","0","","","","",""
"null","<p style=""font-size: 80px;"">+ 10 points</p>","null","html-keyboard-response","10","99514","0.0-7.0-2.9","57c57ea095a3ea00016e5a14","rf98hl","TH","35","F","{""name"":""Chrome"",""chrome"":true,""version"":""106.0"",""blink"":true,""windows"":true,""osname"":""Windows"",""osversion"":""10"",""a"":true}","9:10:37","0","1","Practice_3","70","f","1","1423.5","1920 x 1080","1920 x 1080","true","1","10","","","","",""
"null","<p style=""font-size: 80px;"">+ 10 points</p>","null","html-keyboard-response","11","102027","0.0-7.0-2.10","57c57ea095a3ea00016e5a14","rf98hl","TH","35","F","{""name"":""Chrome"",""chrome"":true,""version"":""106.0"",""blink"":true,""windows"":true,""osname"":""Windows"",""osversion"":""10"",""a"":true}","9:10:37","0","1","Practice_2","74","j","1","503.19999998807907","1920 x 1080","1920 x 1080","true","1","10","","","","",""
"null","<p style=""font-size: 80px;"">+ 10 points</p>","null","html-keyboard-response","12","104671","0.0-7.0-2.11","57c57ea095a3ea00016e5a14","rf98hl","TH","35","F","{""name"":""Chrome"",""chrome"":true,""version"":""106.0"",""blink"":true,""windows"":true,""osname"":""Windows"",""osversion"":""10"",""a"":true}","9:10:37","0","1","Practice_2","74","j","1","627.9000000059605","1920 x 1080","1920 x 1080","true","1","10","","","","",""
"null","<p style=""font-size: 80px;"">+ 10 points</p>","null","html-keyboard-response","13","107334","0.0-7.0-2.12","57c57ea095a3ea00016e5a14","rf98hl","TH","35","F","{""name"":""Chrome"",""chrome"":true,""version"":""106.0"",""blink"":true,""windows"":true,""osname"":""Windows"",""osversion"":""10"",""a"":true}","9:10:37","0","1","Practice_3","70","f","1","642.7999999821186","1920 x 1080","1920 x 1080","true","1","10","","","","",""
"null","<p style=""font-size: 80px;"">+ 0 points</p>","null","html-keyboard-response","14","109919","0.0-7.0-2.13","57c57ea095a3ea00016e5a14","rf98hl","TH","35","F","{""name"":""Chrome"",""chrome"":true,""version"":""106.0"",""blink"":true,""windows"":true,""osname"":""Windows"",""osversion"":""10"",""a"":true}","9:10:37","0","1","Practice_1","74","f","0","576","1920 x 1080","1920 x 1080","true","1","0","","","","",""
"null","<p style=""font-size: 80px;"">+ 10 points</p>","null","html-keyboard-response","15","112481","0.0-7.0-2.14","57c57ea095a3ea00016e5a14","rf98hl","TH","35","F","{""name"":""Chrome"",""chrome"":true,""version"":""106.0"",""blink"":true,""windows"":true,""osname"":""Windows"",""osversion"":""10"",""a"":true}","9:10:37","0","1","Practice_4","74","j","1","541.1999999880791","1920 x 1080","1920 x 1080","true","1","10","","","","",""
"null","<p style=""font-size: 80px;"">+ 10 points</p>","null","html-keyboard-response","16","114997","0.0-7.0-2.15","57c57ea095a3ea00016e5a14","rf98hl","TH","35","F","{""name"":""Chrome"",""chrome"":true,""version"":""106.0"",""blink"":true,""windows"":true,""osname"":""Windows"",""osversion"":""10"",""a"":true}","9:10:37","0","1","Practice_1","70","f","1","496.19999998807907","1920 x 1080","1920 x 1080","true","1","10","","","","",""
"null","<p style=""font-size: 80px;"">+ 10 points</p>","null","html-keyboard-response","17","117610","0.0-7.0-2.16","57c57ea095a3ea00016e5a14","rf98hl","TH","35","F","{""name"":""Chrome"",""chrome"":true,""version"":""106.0"",""blink"":true,""windows"":true,""osname"":""Windows"",""osversion"":""10"",""a"":true}","9:10:37","0","1","Practice_4","74","j","1","592.9000000059605","1920 x 1080","1920 x 1080","true","1","10","","","","",""
"null","<p style=""font-size: 80px;"">+ 0 points</p>","null","html-keyboard-response","18","120598","0.0-7.0-2.17","57c57ea095a3ea00016e5a14","rf98hl","TH","35","F","{""name"":""Chrome"",""chrome"":true,""version"":""106.0"",""blink"":true,""windows"":true,""osname"":""Windows"",""osversion"":""10"",""a"":true}","9:10:37","0","1","Practice_2","70","j","0","957.5","1920 x 1080","1920 x 1080","true","1","0","","","","",""
"null","<p style=""font-size: 80px;"">+ 10 points</p>","null","html-keyboard-response","19","124048","0.0-7.0-2.18","57c57ea095a3ea00016e5a14","rf98hl","TH","35","F","{""name"":""Chrome"",""chrome"":true,""version"":""106.0"",""blink"":true,""windows"":true,""osname"":""Windows"",""osversion"":""10"",""a"":true}","9:10:37","0","1","Practice_3","70","f","1","1441.2999999821186","1920 x 1080","1920 x 1080","true","1","10","","","","",""
"null","<p style=""font-size: 80px;"">+ 0 points</p>","null","html-keyboard-response","20","127251","0.0-7.0-2.19","57c57ea095a3ea00016e5a14","rf98hl","TH","35","F","{""name"":""Chrome"",""chrome"":true,""version"":""106.0"",""blink"":true,""windows"":true,""osname"":""Windows"",""osversion"":""10"",""a"":true}","9:10:37","0","1","Practice_4","70","j","0","1178","1920 x 1080","1920 x 1080","true","1","0","","","","",""
"null","<p style=""font-size: 80px;"">+ 0 points</p>","null","html-keyboard-response","21","131125","0.0-7.0-2.20","57c57ea095a3ea00016e5a14","rf98hl","TH","35","F","{""name"":""Chrome"",""chrome"":true,""version"":""106.0"",""blink"":true,""windows"":true,""osname"":""Windows"",""osversion"":""10"",""a"":true}","9:10:37","0","2","Practice_1","70","j","0","1870.2000000178814","1920 x 1080","1920 x 1080","true","1","0","","","","",""
"null","<p style=""font-size: 80px;"">+ 0 points</p>","null","html-keyboard-response","22","134335","0.0-7.0-2.21","57c57ea095a3ea00016e5a14","rf98hl","TH","35","F","{""name"":""Chrome"",""chrome"":true,""version"":""106.0"",""blink"":true,""windows"":true,""osname"":""Windows"",""osversion"":""10"",""a"":true}","9:10:37","0","2","Practice_4","74","f","0","1197.800000011921","1920 x 1080","1920 x 1080","true","1","0","","","","",""
"null","<p style=""font-size: 80px;"">+ 10 points</p>","null","html-keyboard-response","23","136983","0.0-7.0-2.22","57c57ea095a3ea00016e5a14","rf98hl","TH","35","F","{""name"":""Chrome"",""chrome"":true,""version"":""106.0"",""blink"":true,""windows"":true,""osname"":""Windows"",""osversion"":""10"",""a"":true}","9:10:37","0","2","Practice_4","70","f","1","626.5999999940395","1920 x 1080","1920 x 1080","true","1","10","","","","",""
"null","<p style=""font-size: 80px;"">+ 10 points</p>","null","html-keyboard-response","24","139774","0.0-7.0-2.23","57c57ea095a3ea00016e5a14","rf98hl","TH","35","F","{""name"":""Chrome"",""chrome"":true,""version"":""106.0"",""blink"":true,""windows"":true,""osname"":""Windows"",""osversion"":""10"",""a"":true}","9:10:37","0","2","Practice_4","70","f","1","778.8999999761581","1920 x 1080","1920 x 1080","true","1","10","","","","",""
"null","<p style=""font-size: 80px;"">+ 0 points</p>","null","html-keyboard-response","25","142367","0.0-7.0-2.24","57c57ea095a3ea00016e5a14","rf98hl","TH","35","F","{""name"":""Chrome"",""chrome"":true,""version"":""106.0"",""blink"":true,""windows"":true,""osname"":""Windows"",""osversion"":""10"",""a"":true}","9:10:37","0","2","Practice_3","70","j","0","580.3999999761581","1920 x 1080","1920 x 1080","true","1","0","","","","",""
"null","<p style=""font-size: 80px;"">+ 0 points</p>","null","html-keyboard-response","26","145124","0.0-7.0-2.25","57c57ea095a3ea00016e5a14","rf98hl","TH","35","F","{""name"":""Chrome"",""chrome"":true,""version"":""106.0"",""blink"":true,""windows"":true,""osname"":""Windows"",""osversion"":""10"",""a"":true}","9:10:37","0","2","Practice_1","70","j","0","737.3000000119209","1920 x 1080","1920 x 1080","true","1","0","","","","",""
"null","<p style=""font-size: 80px;"">+ 0 points</p>","null","html-keyboard-response","27","147887","0.0-7.0-2.26","57c57ea095a3ea00016e5a14","rf98hl","TH","35","F","{""name"":""Chrome"",""chrome"":true,""version"":""106.0"",""blink"":true,""windows"":true,""osname"":""Windows"",""osversion"":""10"",""a"":true}","9:10:37","0","2","Practice_3","70","j","0","743.9000000059605","1920 x 1080","1920 x 1080","true","1","0","","","","",""
"null","<p style=""font-size: 80px;"">+ 0 points</p>","null","html-keyboard-response","28","150909","0.0-7.0-2.27","57c57ea095a3ea00016e5a14","rf98hl","TH","35","F","{""name"":""Chrome"",""chrome"":true,""version"":""106.0"",""blink"":true,""windows"":true,""osname"":""Windows"",""osversion"":""10"",""a"":true}","9:10:37","0","2","Practice_4","74","f","0","1004","1920 x 1080","1920 x 1080","true","1","0","","","","",""
"null","<p style=""font-size: 80px;"">+ 0 points</p>","null","html-keyboard-response","29","153721","0.0-7.0-2.28","57c57ea095a3ea00016e5a14","rf98hl","TH","35","F","{""name"":""Chrome"",""chrome"":true,""version"":""106.0"",""blink"":true,""windows"":true,""osname"":""Windows"",""osversion"":""10"",""a"":true}","9:10:37","0","2","Practice_2","74","f","0","786.8999999761581","1920 x 1080","1920 x 1080","true","1","0","","","","",""
"null","<p style=""font-size: 80px;"">+ 0 points</p>","null","html-keyboard-response","30","156725","0.0-7.0-2.29","57c57ea095a3ea00016e5a14","rf98hl","TH","35","F","{""name"":""Chrome"",""chrome"":true,""version"":""106.0"",""blink"":true,""windows"":true,""osname"":""Windows"",""osversion"":""10"",""a"":true}","9:10:37","0","2","Practice_3","70","j","0","998.7000000178814","1920 x 1080","1920 x 1080","true","1","0","","","","",""
"null","<p style=""font-size: 80px;"">+ 0 points</p>","null","html-keyboard-response","31","159650","0.0-7.0-2.30","57c57ea095a3ea00016e5a14","rf98hl","TH","35","F","{""name"":""Chrome"",""chrome"":true,""version"":""106.0"",""blink"":true,""windows"":true,""osname"":""Windows"",""osversion"":""10"",""a"":true}","9:10:37","0","2","Practice_1","70","j","0","893.5999999940395","1920 x 1080","1920 x 1080","true","1","0","","","","",""
"null","<p style=""font-size: 80px;"">+ 0 points</p>","null","html-keyboard-response","32","162693","0.0-7.0-2.31","57c57ea095a3ea00016e5a14","rf98hl","TH","35","F","{""name"":""Chrome"",""chrome"":true,""version"":""106.0"",""blink"":true,""windows"":true,""osname"":""Windows"",""osversion"":""10"",""a"":true}","9:10:37","0","2","Practice_3","70","j","0","1033.9000000059605","1920 x 1080","1920 x 1080","true","1","0","","","","",""
"null","<p style=""font-size: 80px;"">+ 0 points</p>","null","html-keyboard-response","33","165391","0.0-7.0-2.32","57c57ea095a3ea00016e5a14","rf98hl","TH","35","F","{""name"":""Chrome"",""chrome"":true,""version"":""106.0"",""blink"":true,""windows"":true,""osname"":""Windows"",""osversion"":""10"",""a"":true}","9:10:37","0","2","Practice_1","70","j","0","692.7999999821186","1920 x 1080","1920 x 1080","true","1","0","","","","",""
"null","<p style=""font-size: 80px;"">+ 0 points</p>","null","html-keyboard-response","34","168279","0.0-7.0-2.33","57c57ea095a3ea00016e5a14","rf98hl","TH","35","F","{""name"":""Chrome"",""chrome"":true,""version"":""106.0"",""blink"":true,""windows"":true,""osname"":""Windows"",""osversion"":""10"",""a"":true}","9:10:37","0","2","Practice_2","74","f","0","870.6999999880791","1920 x 1080","1920 x 1080","true","1","0","","","","",""
"null","<p style=""font-size: 80px;"">+ 0 points</p>","null","html-keyboard-response","35","170987","0.0-7.0-2.34","57c57ea095a3ea00016e5a14","rf98hl","TH","35","F","{""name"":""Chrome"",""chrome"":true,""version"":""106.0"",""blink"":true,""windows"":true,""osname"":""Windows"",""osversion"":""10"",""a"":true}","9:10:37","0","2","Practice_4","74","f","0","689.0999999940395","1920 x 1080","1920 x 1080","true","1","0","","","","",""
"null","<p style=""font-size: 80px;"">+ 0 points</p>","null","html-keyboard-response","36","173641","0.0-7.0-2.35","57c57ea095a3ea00016e5a14","rf98hl","TH","35","F","{""name"":""Chrome"",""chrome"":true,""version"":""106.0"",""blink"":true,""windows"":true,""osname"":""Windows"",""osversion"":""10"",""a"":true}","9:10:37","0","2","Practice_2","74","f","0","641.7000000178814","1920 x 1080","1920 x 1080","true","1","0","","","","",""
"null","<p style=""font-size: 80px;"">+ 10 points</p>","null","html-keyboard-response","37","176153","0.0-7.0-2.36","57c57ea095a3ea00016e5a14","rf98hl","TH","35","F","{""name"":""Chrome"",""chrome"":true,""version"":""106.0"",""blink"":true,""windows"":true,""osname"":""Windows"",""osversion"":""10"",""a"":true}","9:10:37","0","2","Practice_2","70","f","1","495.80000001192093","1920 x 1080","1920 x 1080","true","1","10","","","","",""
"null","<p style=""font-size: 80px;"">+ 10 points</p>","null","html-keyboard-response","38","178685","0.0-7.0-2.37","57c57ea095a3ea00016e5a14","rf98hl","TH","35","F","{""name"":""Chrome"",""chrome"":true,""version"":""106.0"",""blink"":true,""windows"":true,""osname"":""Windows"",""osversion"":""10"",""a"":true}","9:10:37","0","2","Practice_2","70","f","1","522.8000000119209","1920 x 1080","1920 x 1080","true","1","10","","","","",""
"null","<p style=""font-size: 80px;"">+ 0 points</p>","null","html-keyboard-response","39","181204","0.0-7.0-2.38","57c57ea095a3ea00016e5a14","rf98hl","TH","35","F","{""name"":""Chrome"",""chrome"":true,""version"":""106.0"",""blink"":true,""windows"":true,""osname"":""Windows"",""osversion"":""10"",""a"":true}","9:10:37","0","2","Practice_1","70","j","0","510.7000000178814","1920 x 1080","1920 x 1080","true","1","0","","","","",""
"null","<p style=""font-size: 80px;"">+ 0 points</p>","null","html-keyboard-response","40","183840","0.0-7.0-2.39","57c57ea095a3ea00016e5a14","rf98hl","TH","35","F","{""name"":""Chrome"",""chrome"":true,""version"":""106.0"",""blink"":true,""windows"":true,""osname"":""Windows"",""osversion"":""10"",""a"":true}","9:10:37","0","2","Practice_3","70","j","0","628.0999999940395","1920 x 1080","1920 x 1080","true","1","0","","","","",""
"18229.90000000596","","","survey-multi-choice","127","202072","0.0-8.0","57c57ea095a3ea00016e5a14","rf98hl","TH","35","F","{""name"":""Chrome"",""chrome"":true,""version"":""106.0"",""blink"":true,""windows"":true,""osname"":""Windows"",""osversion"":""10"",""a"":true}","9:10:37","","","","","","","","","","","1","","{""Q0"":""The green one"",""Q1"":""5""}","[0,1]","5","The green one","0"
"null","<p style=""font-size: 80px;"">+ 10 points</p>","null","html-keyboard-response","1","211877","0.0-9.0-1.0-2.0","57c57ea095a3ea00016e5a14","rf98hl","TH","35","F","{""name"":""Chrome"",""chrome"":true,""version"":""106.0"",""blink"":true,""windows"":true,""osname"":""Windows"",""osversion"":""10"",""a"":true}","9:10:37","0","1","Practice_2","74","j","1","1789.5","1920 x 1080","1920 x 1080","true","1","10","","","","",""
"null","<p style=""font-size: 80px;"">+ 10 points</p>","null","html-keyboard-response","2","214921","0.0-9.0-1.0-2.1","57c57ea095a3ea00016e5a14","rf98hl","TH","35","F","{""name"":""Chrome"",""chrome"":true,""version"":""106.0"",""blink"":true,""windows"":true,""osname"":""Windows"",""osversion"":""10"",""a"":true}","9:10:37","0","1","Practice_3","70","f","1","1023.0999999940395","1920 x 1080","1920 x 1080","true","1","10","","","","",""
"null","<p style=""font-size: 80px;"">+ 10 points</p>","null","html-keyboard-response","3","218436","0.0-9.0-1.0-2.2","57c57ea095a3ea00016e5a14","rf98hl","TH","35","F","{""name"":""Chrome"",""chrome"":true,""version"":""106.0"",""blink"":true,""windows"":true,""osname"":""Windows"",""osversion"":""10"",""a"":true}","9:10:37","0","1","Practice_1","70","f","1","1504.0999999940395","1920 x 1080","1920 x 1080","true","1","10","","","","",""
"null","<p style=""font-size: 80px;"">+ 10 points</p>","null","html-keyboard-response","4","221939","0.0-9.0-1.0-2.3","57c57ea095a3ea00016e5a14","rf98hl","TH","35","F","{""name"":""Chrome"",""chrome"":true,""version"":""106.0"",""blink"":true,""windows"":true,""osname"":""Windows"",""osversion"":""10"",""a"":true}","9:10:37","0","1","Practice_4","74","j","1","1495","1920 x 1080","1920 x 1080","true","1","10","","","","",""
"null","<p style=""font-size: 80px;"">+ 10 points</p>","null","html-keyboard-response","5","225251","0.0-9.0-1.0-2.4","57c57ea095a3ea00016e5a14","rf98hl","TH","35","F","{""name"":""Chrome"",""chrome"":true,""version"":""106.0"",""blink"":true,""windows"":true,""osname"":""Windows"",""osversion"":""10"",""a"":true}","9:10:37","0","1","Practice_1","70","f","1","1300.2000000178814","1920 x 1080","1920 x 1080","true","1","10","","","","",""
"null","<p style=""font-size: 80px;"">+ 10 points</p>","null","html-keyboard-response","6","228323","0.0-9.0-1.0-2.5","57c57ea095a3ea00016e5a14","rf98hl","TH","35","F","{""name"":""Chrome"",""chrome"":true,""version"":""106.0"",""blink"":true,""windows"":true,""osname"":""Windows"",""osversion"":""10"",""a"":true}","9:10:37","0","1","Practice_4","74","j","1","1062","1920 x 1080","1920 x 1080","true","1","10","","","","",""
"null","<p style=""font-size: 80px;"">+ 10 points</p>","null","html-keyboard-response","7","231950","0.0-9.0-1.0-2.6","57c57ea095a3ea00016e5a14","rf98hl","TH","35","F","{""name"":""Chrome"",""chrome"":true,""version"":""106.0"",""blink"":true,""windows"":true,""osname"":""Windows"",""osversion"":""10"",""a"":true}","9:10:37","0","1","Practice_2","74","j","1","1608.699999988079","1920 x 1080","1920 x 1080","true","1","10","","","","",""
"null","<p style=""font-size: 80px;"">+ 10 points</p>","null","html-keyboard-response","8","234785","0.0-9.0-1.0-2.7","57c57ea095a3ea00016e5a14","rf98hl","TH","35","F","{""name"":""Chrome"",""chrome"":true,""version"":""106.0"",""blink"":true,""windows"":true,""osname"":""Windows"",""osversion"":""10"",""a"":true}","9:10:37","0","1","Practice_1","70","f","1","815.7000000178814","1920 x 1080","1920 x 1080","true","1","10","","","","",""
"null","<p style=""font-size: 80px;"">+ 10 points</p>","null","html-keyboard-response","9","237893","0.0-9.0-1.0-2.8","57c57ea095a3ea00016e5a14","rf98hl","TH","35","F","{""name"":""Chrome"",""chrome"":true,""version"":""106.0"",""blink"":true,""windows"":true,""osname"":""Windows"",""osversion"":""10"",""a"":true}","9:10:37","0","1","Practice_3","70","f","1","1090.5","1920 x 1080","1920 x 1080","true","1","10","","","","",""
"null","<p style=""font-size: 80px;"">+ 10 points</p>","null","html-keyboard-response","10","240757","0.0-9.0-1.0-2.9","57c57ea095a3ea00016e5a14","rf98hl","TH","35","F","{""name"":""Chrome"",""chrome"":true,""version"":""106.0"",""blink"":true,""windows"":true,""osname"":""Windows"",""osversion"":""10"",""a"":true}","9:10:37","0","1","Practice_3","70","f","1","850.5","1920 x 1080","1920 x 1080","true","1","10","","","","",""
"null","<p style=""font-size: 80px;"">+ 10 points</p>","null","html-keyboard-response","11","243704","0.0-9.0-1.0-2.10","57c57ea095a3ea00016e5a14","rf98hl","TH","35","F","{""name"":""Chrome"",""chrome"":true,""version"":""106.0"",""blink"":true,""windows"":true,""osname"":""Windows"",""osversion"":""10"",""a"":true}","9:10:37","0","1","Practice_2","74","j","1","927.1999999880791","1920 x 1080","1920 x 1080","true","1","10","","","","",""
"null","<p style=""font-size: 80px;"">+ 10 points</p>","null","html-keyboard-response","12","246439","0.0-9.0-1.0-2.11","57c57ea095a3ea00016e5a14","rf98hl","TH","35","F","{""name"":""Chrome"",""chrome"":true,""version"":""106.0"",""blink"":true,""windows"":true,""osname"":""Windows"",""osversion"":""10"",""a"":true}","9:10:37","0","1","Practice_2","74","j","1","727.3000000119209","1920 x 1080","1920 x 1080","true","1","10","","","","",""
"null","<p style=""font-size: 80px;"">+ 10 points</p>","null","html-keyboard-response","13","249327","0.0-9.0-1.0-2.12","57c57ea095a3ea00016e5a14","rf98hl","TH","35","F","{""name"":""Chrome"",""chrome"":true,""version"":""106.0"",""blink"":true,""windows"":true,""osname"":""Windows"",""osversion"":""10"",""a"":true}","9:10:37","0","1","Practice_3","70","f","1","859.5999999940395","1920 x 1080","1920 x 1080","true","1","10","","","","",""
"null","<p style=""font-size: 80px;"">+ 10 points</p>","null","html-keyboard-response","14","252324","0.0-9.0-1.0-2.13","57c57ea095a3ea00016e5a14","rf98hl","TH","35","F","{""name"":""Chrome"",""chrome"":true,""version"":""106.0"",""blink"":true,""windows"":true,""osname"":""Windows"",""osversion"":""10"",""a"":true}","9:10:37","0","1","Practice_1","70","f","1","991.0999999940395","1920 x 1080","1920 x 1080","true","1","10","","","","",""
"null","<p style=""font-size: 80px;"">+ 10 points</p>","null","html-keyboard-response","15","255197","0.0-9.0-1.0-2.14","57c57ea095a3ea00016e5a14","rf98hl","TH","35","F","{""name"":""Chrome"",""chrome"":true,""version"":""106.0"",""blink"":true,""windows"":true,""osname"":""Windows"",""osversion"":""10"",""a"":true}","9:10:37","0","1","Practice_4","74","j","1","843.4000000059605","1920 x 1080","1920 x 1080","true","1","10","","","","",""
"null","<p style=""font-size: 80px;"">+ 10 points</p>","null","html-keyboard-response","16","258103","0.0-9.0-1.0-2.15","57c57ea095a3ea00016e5a14","rf98hl","TH","35","F","{""name"":""Chrome"",""chrome"":true,""version"":""106.0"",""blink"":true,""windows"":true,""osname"":""Windows"",""osversion"":""10"",""a"":true}","9:10:37","0","1","Practice_1","70","f","1","887.9000000059605","1920 x 1080","1920 x 1080","true","1","10","","","","",""
"null","<p style=""font-size: 80px;"">+ 10 points</p>","null","html-keyboard-response","17","260954","0.0-9.0-1.0-2.16","57c57ea095a3ea00016e5a14","rf98hl","TH","35","F","{""name"":""Chrome"",""chrome"":true,""version"":""106.0"",""blink"":true,""windows"":true,""osname"":""Windows"",""osversion"":""10"",""a"":true}","9:10:37","0","1","Practice_4","74","j","1","839.9000000059605","1920 x 1080","1920 x 1080","true","1","10","","","","",""
"null","<p style=""font-size: 80px;"">+ 10 points</p>","null","html-keyboard-response","18","263705","0.0-9.0-1.0-2.17","57c57ea095a3ea00016e5a14","rf98hl","TH","35","F","{""name"":""Chrome"",""chrome"":true,""version"":""106.0"",""blink"":true,""windows"":true,""osname"":""Windows"",""osversion"":""10"",""a"":true}","9:10:37","0","1","Practice_2","74","j","1","745","1920 x 1080","1920 x 1080","true","1","10","","","","",""
"null","<p style=""font-size: 80px;"">+ 10 points</p>","null","html-keyboard-response","19","266785","0.0-9.0-1.0-2.18","57c57ea095a3ea00016e5a14","rf98hl","TH","35","F","{""name"":""Chrome"",""chrome"":true,""version"":""106.0"",""blink"":true,""windows"":true,""osname"":""Windows"",""osversion"":""10"",""a"":true}","9:10:37","0","1","Practice_3","70","f","1","1048.4000000059605","1920 x 1080","1920 x 1080","true","1","10","","","","",""
"null","<p style=""font-size: 80px;"">+ 10 points</p>","null","html-keyboard-response","20","270021","0.0-9.0-1.0-2.19","57c57ea095a3ea00016e5a14","rf98hl","TH","35","F","{""name"":""Chrome"",""chrome"":true,""version"":""106.0"",""blink"":true,""windows"":true,""osname"":""Windows"",""osversion"":""10"",""a"":true}","9:10:37","0","1","Practice_4","74","j","1","1229.5","1920 x 1080","1920 x 1080","true","1","10","","","","",""
"null","<p style=""font-size: 80px;"">+ 0 points</p>","null","html-keyboard-response","21","272896","0.0-9.0-1.0-2.20","57c57ea095a3ea00016e5a14","rf98hl","TH","35","F","{""name"":""Chrome"",""chrome"":true,""version"":""106.0"",""blink"":true,""windows"":true,""osname"":""Windows"",""osversion"":""10"",""a"":true}","9:10:37","0","2","Practice_1","70","j","0","857.4000000059605","1920 x 1080","1920 x 1080","true","1","0","","","","",""
"null","<p style=""font-size: 80px;"">+ 10 points</p>","null","html-keyboard-response","22","276043","0.0-9.0-1.0-2.21","57c57ea095a3ea00016e5a14","rf98hl","TH","35","F","{""name"":""Chrome"",""chrome"":true,""version"":""106.0"",""blink"":true,""windows"":true,""osname"":""Windows"",""osversion"":""10"",""a"":true}","9:10:37","0","2","Practice_4","70","f","1","1117.7000000178814","1920 x 1080","1920 x 1080","true","1","10","","","","",""
"null","<p style=""font-size: 80px;"">+ 10 points</p>","null","html-keyboard-response","23","280027","0.0-9.0-1.0-2.22","57c57ea095a3ea00016e5a14","rf98hl","TH","35","F","{""name"":""Chrome"",""chrome"":true,""version"":""106.0"",""blink"":true,""windows"":true,""osname"":""Windows"",""osversion"":""10"",""a"":true}","9:10:37","0","2","Practice_4","70","f","1","1966","1920 x 1080","1920 x 1080","true","1","10","","","","",""
"null","<p style=""font-size: 80px;"">+ 10 points</p>","null","html-keyboard-response","24","283556","0.0-9.0-1.0-2.23","57c57ea095a3ea00016e5a14","rf98hl","TH","35","F","{""name"":""Chrome"",""chrome"":true,""version"":""106.0"",""blink"":true,""windows"":true,""osname"":""Windows"",""osversion"":""10"",""a"":true}","9:10:37","0","2","Practice_4","70","f","1","1518.4000000059605","1920 x 1080","1920 x 1080","true","1","10","","","","",""
"null","<p style=""font-size: 80px;"">+ 10 points</p>","null","html-keyboard-response","25","286583","0.0-9.0-1.0-2.24","57c57ea095a3ea00016e5a14","rf98hl","TH","35","F","{""name"":""Chrome"",""chrome"":true,""version"":""106.0"",""blink"":true,""windows"":true,""osname"":""Windows"",""osversion"":""10"",""a"":true}","9:10:37","0","2","Practice_3","74","j","1","1010.7999999821186","1920 x 1080","1920 x 1080","true","1","10","","","","",""
"null","<p style=""font-size: 80px;"">+ 10 points</p>","null","html-keyboard-response","26","290477","0.0-9.0-1.0-2.25","57c57ea095a3ea00016e5a14","rf98hl","TH","35","F","{""name"":""Chrome"",""chrome"":true,""version"":""106.0"",""blink"":true,""windows"":true,""osname"":""Windows"",""osversion"":""10"",""a"":true}","9:10:37","0","2","Practice_1","74","j","1","1886.0999999940395","1920 x 1080","1920 x 1080","true","1","10","","","","",""
"null","<p style=""font-size: 80px;"">+ 10 points</p>","null","html-keyboard-response","27","296882","0.0-9.0-1.0-2.26","57c57ea095a3ea00016e5a14","rf98hl","TH","35","F","{""name"":""Chrome"",""chrome"":true,""version"":""106.0"",""blink"":true,""windows"":true,""osname"":""Windows"",""osversion"":""10"",""a"":true}","9:10:37","0","2","Practice_3","74","j","1","4377.800000011921","1920 x 1080","1920 x 1080","true","1","10","","","","",""
"null","<p style=""font-size: 80px;"">+ 10 points</p>","null","html-keyboard-response","28","300272","0.0-9.0-1.0-2.27","57c57ea095a3ea00016e5a14","rf98hl","TH","35","F","{""name"":""Chrome"",""chrome"":true,""version"":""106.0"",""blink"":true,""windows"":true,""osname"":""Windows"",""osversion"":""10"",""a"":true}","9:10:37","0","2","Practice_4","70","f","1","1383.9000000059605","1920 x 1080","1920 x 1080","true","1","10","","","","",""
"null","<p style=""font-size: 80px;"">+ 10 points</p>","null","html-keyboard-response","29","303891","0.0-9.0-1.0-2.28","57c57ea095a3ea00016e5a14","rf98hl","TH","35","F","{""name"":""Chrome"",""chrome"":true,""version"":""106.0"",""blink"":true,""windows"":true,""osname"":""Windows"",""osversion"":""10"",""a"":true}","9:10:37","0","2","Practice_2","70","f","1","1599.300000011921","1920 x 1080","1920 x 1080","true","1","10","","","","",""
"null","<p style=""font-size: 80px;"">+ 10 points</p>","null","html-keyboard-response","30","307243","0.0-9.0-1.0-2.29","57c57ea095a3ea00016e5a14","rf98hl","TH","35","F","{""name"":""Chrome"",""chrome"":true,""version"":""106.0"",""blink"":true,""windows"":true,""osname"":""Windows"",""osversion"":""10"",""a"":true}","9:10:37","0","2","Practice_3","74","j","1","1330.199999988079","1920 x 1080","1920 x 1080","true","1","10","","","","",""
"null","<p style=""font-size: 80px;"">+ 10 points</p>","null","html-keyboard-response","31","310711","0.0-9.0-1.0-2.30","57c57ea095a3ea00016e5a14","rf98hl","TH","35","F","{""name"":""Chrome"",""chrome"":true,""version"":""106.0"",""blink"":true,""windows"":true,""osname"":""Windows"",""osversion"":""10"",""a"":true}","9:10:37","0","2","Practice_1","74","j","1","1449.0999999940395","1920 x 1080","1920 x 1080","true","1","10","","","","",""
"null","<p style=""font-size: 80px;"">+ 10 points</p>","null","html-keyboard-response","32","313760","0.0-9.0-1.0-2.31","57c57ea095a3ea00016e5a14","rf98hl","TH","35","F","{""name"":""Chrome"",""chrome"":true,""version"":""106.0"",""blink"":true,""windows"":true,""osname"":""Windows"",""osversion"":""10"",""a"":true}","9:10:37","0","2","Practice_3","74","j","1","1023.5","1920 x 1080","1920 x 1080","true","1","10","","","","",""
"null","<p style=""font-size: 80px;"">+ 10 points</p>","null","html-keyboard-response","33","318479","0.0-9.0-1.0-2.32","57c57ea095a3ea00016e5a14","rf98hl","TH","35","F","{""name"":""Chrome"",""chrome"":true,""version"":""106.0"",""blink"":true,""windows"":true,""osname"":""Windows"",""osversion"":""10"",""a"":true}","9:10:37","0","2","Practice_1","74","j","1","2694.5999999940395","1920 x 1080","1920 x 1080","true","1","10","","","","",""
"null","<p style=""font-size: 80px;"">+ 10 points</p>","null","html-keyboard-response","34","321704","0.0-9.0-1.0-2.33","57c57ea095a3ea00016e5a14","rf98hl","TH","35","F","{""name"":""Chrome"",""chrome"":true,""version"":""106.0"",""blink"":true,""windows"":true,""osname"":""Windows"",""osversion"":""10"",""a"":true}","9:10:37","0","2","Practice_2","70","f","1","1213.5999999940395","1920 x 1080","1920 x 1080","true","1","10","","","","",""
"null","<p style=""font-size: 80px;"">+ 10 points</p>","null","html-keyboard-response","35","324882","0.0-9.0-1.0-2.34","57c57ea095a3ea00016e5a14","rf98hl","TH","35","F","{""name"":""Chrome"",""chrome"":true,""version"":""106.0"",""blink"":true,""windows"":true,""osname"":""Windows"",""osversion"":""10"",""a"":true}","9:10:37","0","2","Practice_4","70","f","1","1156.0999999940395","1920 x 1080","1920 x 1080","true","1","10","","","","",""
"null","<p style=""font-size: 80px;"">+ 10 points</p>","null","html-keyboard-response","36","327977","0.0-9.0-1.0-2.35","57c57ea095a3ea00016e5a14","rf98hl","TH","35","F","{""name"":""Chrome"",""chrome"":true,""version"":""106.0"",""blink"":true,""windows"":true,""osname"":""Windows"",""osversion"":""10"",""a"":true}","9:10:37","0","2","Practice_2","70","f","1","1078.0999999940395","1920 x 1080","1920 x 1080","true","1","10","","","","",""
"null","<p style=""font-size: 80px;"">+ 10 points</p>","null","html-keyboard-response","37","331204","0.0-9.0-1.0-2.36","57c57ea095a3ea00016e5a14","rf98hl","TH","35","F","{""name"":""Chrome"",""chrome"":true,""version"":""106.0"",""blink"":true,""windows"":true,""osname"":""Windows"",""osversion"":""10"",""a"":true}","9:10:37","0","2","Practice_2","70","f","1","1209.2999999821186","1920 x 1080","1920 x 1080","true","1","10","","","","",""
"null","<p style=""font-size: 80px;"">+ 10 points</p>","null","html-keyboard-response","38","334229","0.0-9.0-1.0-2.37","57c57ea095a3ea00016e5a14","rf98hl","TH","35","F","{""name"":""Chrome"",""chrome"":true,""version"":""106.0"",""blink"":true,""windows"":true,""osname"":""Windows"",""osversion"":""10"",""a"":true}","9:10:37","0","2","Practice_2","70","f","1","1010.6999999880791","1920 x 1080","1920 x 1080","true","1","10","","","","",""
"null","<p style=""font-size: 80px;"">+ 10 points</p>","null","html-keyboard-response","39","337411","0.0-9.0-1.0-2.38","57c57ea095a3ea00016e5a14","rf98hl","TH","35","F","{""name"":""Chrome"",""chrome"":true,""version"":""106.0"",""blink"":true,""windows"":true,""osname"":""Windows"",""osversion"":""10"",""a"":true}","9:10:37","0","2","Practice_1","74","j","1","1159.0999999940395","1920 x 1080","1920 x 1080","true","1","10","","","","",""
"null","<p style=""font-size: 80px;"">+ 10 points</p>","null","html-keyboard-response","40","340653","0.0-9.0-1.0-2.39","57c57ea095a3ea00016e5a14","rf98hl","TH","35","F","{""name"":""Chrome"",""chrome"":true,""version"":""106.0"",""blink"":true,""windows"":true,""osname"":""Windows"",""osversion"":""10"",""a"":true}","9:10:37","0","2","Practice_3","74","j","1","1225.3999999761581","1920 x 1080","1920 x 1080","true","1","10","","","","",""
"8937.699999988079","","","survey-multi-choice","249","349592","0.0-9.0-2.0","57c57ea095a3ea00016e5a14","rf98hl","TH","35","F","{""name"":""Chrome"",""chrome"":true,""version"":""106.0"",""blink"":true,""windows"":true,""osname"":""Windows"",""osversion"":""10"",""a"":true}","9:10:37","","","","","","","","","","","1","","{""Q0"":""The red one"",""Q1"":""1""}","[0,1]","1","The red one","2"
"null","<p style=""font-size: 80px;"">+ 10 points</p>","null","html-keyboard-response","1","360549","0.0-11.0-2.0","57c57ea095a3ea00016e5a14","rf98hl","TH","35","F","{""name"":""Chrome"",""chrome"":true,""version"":""106.0"",""blink"":true,""windows"":true,""osname"":""Windows"",""osversion"":""10"",""a"":true}","9:10:37","1","3","Test_3","70","f","1","1760","1920 x 1080","1920 x 1080","true","1","10","","","","",""
"null","<p style=""font-size: 80px;"">+ 10 points</p>","null","html-keyboard-response","2","364647","0.0-11.0-2.1","57c57ea095a3ea00016e5a14","rf98hl","TH","35","F","{""name"":""Chrome"",""chrome"":true,""version"":""106.0"",""blink"":true,""windows"":true,""osname"":""Windows"",""osversion"":""10"",""a"":true}","9:10:37","1","3","Test_1","70","f","1","2087.5999999940395","1920 x 1080","1920 x 1080","true","1","10","","","","",""
"null","<p style=""font-size: 80px;"">+ 10 points</p>","null","html-keyboard-response","3","368799","0.0-11.0-2.2","57c57ea095a3ea00016e5a14","rf98hl","TH","35","F","{""name"":""Chrome"",""chrome"":true,""version"":""106.0"",""blink"":true,""windows"":true,""osname"":""Windows"",""osversion"":""10"",""a"":true}","9:10:37","1","3","Test_1","70","f","1","2136.0999999940395","1920 x 1080","1920 x 1080","true","1","10","","","","",""
"null","<p style=""font-size: 80px;"">+ 10 points</p>","null","html-keyboard-response","4","372304","0.0-11.0-2.3","57c57ea095a3ea00016e5a14","rf98hl","TH","35","F","{""name"":""Chrome"",""chrome"":true,""version"":""106.0"",""blink"":true,""windows"":true,""osname"":""Windows"",""osversion"":""10"",""a"":true}","9:10:37","1","3","Test_4","74","j","1","1478.3999999761581","1920 x 1080","1920 x 1080","true","1","10","","","","",""
"null","<p style=""font-size: 80px;"">+ 10 points</p>","null","html-keyboard-response","5","376377","0.0-11.0-2.4","57c57ea095a3ea00016e5a14","rf98hl","TH","35","F","{""name"":""Chrome"",""chrome"":true,""version"":""106.0"",""blink"":true,""windows"":true,""osname"":""Windows"",""osversion"":""10"",""a"":true}","9:10:37","1","3","Test_2","74","j","1","2059.9000000059605","1920 x 1080","1920 x 1080","true","1","10","","","","",""
"null","<p style=""font-size: 80px;"">+ 10 points</p>","null","html-keyboard-response","6","379245","0.0-11.0-2.5","57c57ea095a3ea00016e5a14","rf98hl","TH","35","F","{""name"":""Chrome"",""chrome"":true,""version"":""106.0"",""blink"":true,""windows"":true,""osname"":""Windows"",""osversion"":""10"",""a"":true}","9:10:37","1","3","Test_2","74","j","1","848.8000000119209","1920 x 1080","1920 x 1080","true","1","10","","","","",""
"null","<p style=""font-size: 80px;"">+ 10 points</p>","null","html-keyboard-response","7","382513","0.0-11.0-2.6","57c57ea095a3ea00016e5a14","rf98hl","TH","35","F","{""name"":""Chrome"",""chrome"":true,""version"":""106.0"",""blink"":true,""windows"":true,""osname"":""Windows"",""osversion"":""10"",""a"":true}","9:10:37","1","3","Test_1","70","f","1","1247","1920 x 1080","1920 x 1080","true","1","10","","","","",""
"null","<p style=""font-size: 80px;"">+ 10 points</p>","null","html-keyboard-response","8","385337","0.0-11.0-2.7","57c57ea095a3ea00016e5a14","rf98hl","TH","35","F","{""name"":""Chrome"",""chrome"":true,""version"":""106.0"",""blink"":true,""windows"":true,""osname"":""Windows"",""osversion"":""10"",""a"":true}","9:10:37","1","3","Test_1","70","f","1","795.6000000238419","1920 x 1080","1920 x 1080","true","1","10","","","","",""
"null","<p style=""font-size: 80px;"">+ 10 points</p>","null","html-keyboard-response","9","388251","0.0-11.0-2.8","57c57ea095a3ea00016e5a14","rf98hl","TH","35","F","{""name"":""Chrome"",""chrome"":true,""version"":""106.0"",""blink"":true,""windows"":true,""osname"":""Windows"",""osversion"":""10"",""a"":true}","9:10:37","1","3","Test_2","74","j","1","901.2999999821186","1920 x 1080","1920 x 1080","true","1","10","","","","",""
"null","<p style=""font-size: 80px;"">+ 10 points</p>","null","html-keyboard-response","10","391257","0.0-11.0-2.9","57c57ea095a3ea00016e5a14","rf98hl","TH","35","F","{""name"":""Chrome"",""chrome"":true,""version"":""106.0"",""blink"":true,""windows"":true,""osname"":""Windows"",""osversion"":""10"",""a"":true}","9:10:37","1","3","Test_3","70","f","1","983.8999999761581","1920 x 1080","1920 x 1080","true","1","10","","","","",""
"null","<p style=""font-size: 80px;"">+ 10 points</p>","null","html-keyboard-response","11","394276","0.0-11.0-2.10","57c57ea095a3ea00016e5a14","rf98hl","TH","35","F","{""name"":""Chrome"",""chrome"":true,""version"":""106.0"",""blink"":true,""windows"":true,""osname"":""Windows"",""osversion"":""10"",""a"":true}","9:10:37","1","3","Test_4","74","j","1","1006.0999999940395","1920 x 1080","1920 x 1080","true","1","10","","","","",""
"null","<p style=""font-size: 80px;"">+ 10 points</p>","null","html-keyboard-response","12","397227","0.0-11.0-2.11","57c57ea095a3ea00016e5a14","rf98hl","TH","35","F","{""name"":""Chrome"",""chrome"":true,""version"":""106.0"",""blink"":true,""windows"":true,""osname"":""Windows"",""osversion"":""10"",""a"":true}","9:10:37","1","3","Test_4","74","j","1","931.6000000238419","1920 x 1080","1920 x 1080","true","1","10","","","","",""
"null","<p style=""font-size: 80px;"">+ 10 points</p>","null","html-keyboard-response","13","400254","0.0-11.0-2.12","57c57ea095a3ea00016e5a14","rf98hl","TH","35","F","{""name"":""Chrome"",""chrome"":true,""version"":""106.0"",""blink"":true,""windows"":true,""osname"":""Windows"",""osversion"":""10"",""a"":true}","9:10:37","1","3","Test_2","74","j","1","1019.6999999880791","1920 x 1080","1920 x 1080","true","1","10","","","","",""
"null","<p style=""font-size: 80px;"">+ 10 points</p>","null","html-keyboard-response","14","403180","0.0-11.0-2.13","57c57ea095a3ea00016e5a14","rf98hl","TH","35","F","{""name"":""Chrome"",""chrome"":true,""version"":""106.0"",""blink"":true,""windows"":true,""osname"":""Windows"",""osversion"":""10"",""a"":true}","9:10:37","1","3","Test_1","70","f","1","908","1920 x 1080","1920 x 1080","true","1","10","","","","",""
"null","<p style=""font-size: 80px;"">+ 10 points</p>","null","html-keyboard-response","15","406875","0.0-11.0-2.14","57c57ea095a3ea00016e5a14","rf98hl","TH","35","F","{""name"":""Chrome"",""chrome"":true,""version"":""106.0"",""blink"":true,""windows"":true,""osname"":""Windows"",""osversion"":""10"",""a"":true}","9:10:37","1","3","Test_3","70","f","1","1680.4000000059605","1920 x 1080","1920 x 1080","true","1","10","","","","",""
"null","<p style=""font-size: 80px;"">+ 10 points</p>","null","html-keyboard-response","16","409774","0.0-11.0-2.15","57c57ea095a3ea00016e5a14","rf98hl","TH","35","F","{""name"":""Chrome"",""chrome"":true,""version"":""106.0"",""blink"":true,""windows"":true,""osname"":""Windows"",""osversion"":""10"",""a"":true}","9:10:37","1","3","Test_4","74","j","1","870.8000000119209","1920 x 1080","1920 x 1080","true","1","10","","","","",""
"null","<p style=""font-size: 80px;"">+ 10 points</p>","null","html-keyboard-response","17","412881","0.0-11.0-2.16","57c57ea095a3ea00016e5a14","rf98hl","TH","35","F","{""name"":""Chrome"",""chrome"":true,""version"":""106.0"",""blink"":true,""windows"":true,""osname"":""Windows"",""osversion"":""10"",""a"":true}","9:10:37","1","3","Test_2","74","j","1","1090.3999999761581","1920 x 1080","1920 x 1080","true","1","10","","","","",""
"null","<p style=""font-size: 80px;"">+ 10 points</p>","null","html-keyboard-response","18","415732","0.0-11.0-2.17","57c57ea095a3ea00016e5a14","rf98hl","TH","35","F","{""name"":""Chrome"",""chrome"":true,""version"":""106.0"",""blink"":true,""windows"":true,""osname"":""Windows"",""osversion"":""10"",""a"":true}","9:10:37","1","3","Test_4","74","j","1","840.4000000059605","1920 x 1080","1920 x 1080","true","1","10","","","","",""
"null","<p style=""font-size: 80px;"">+ 0 points</p>","null","html-keyboard-response","19","418719","0.0-11.0-2.18","57c57ea095a3ea00016e5a14","rf98hl","TH","35","F","{""name"":""Chrome"",""chrome"":true,""version"":""106.0"",""blink"":true,""windows"":true,""osname"":""Windows"",""osversion"":""10"",""a"":true}","9:10:37","1","4","Test_4","74","f","0","964.5999999940395","1920 x 1080","1920 x 1080","true","1","0","","","","",""
"null","<p style=""font-size: 80px;"">+ 10 points</p>","null","html-keyboard-response","20","422583","0.0-11.0-2.19","57c57ea095a3ea00016e5a14","rf98hl","TH","35","F","{""name"":""Chrome"",""chrome"":true,""version"":""106.0"",""blink"":true,""windows"":true,""osname"":""Windows"",""osversion"":""10"",""a"":true}","9:10:37","1","4","Test_3","74","j","1","1854.5","1920 x 1080","1920 x 1080","true","1","10","","","","",""
"null","<p style=""font-size: 80px;"">+ 10 points</p>","null","html-keyboard-response","21","426025","0.0-11.0-2.20","57c57ea095a3ea00016e5a14","rf98hl","TH","35","F","{""name"":""Chrome"",""chrome"":true,""version"":""106.0"",""blink"":true,""windows"":true,""osname"":""Windows"",""osversion"":""10"",""a"":true}","9:10:37","1","4","Test_4","70","f","1","1433.0999999940395","1920 x 1080","1920 x 1080","true","1","10","","","","",""
"null","<p style=""font-size: 80px;"">+ 10 points</p>","null","html-keyboard-response","22","430898","0.0-11.0-2.21","57c57ea095a3ea00016e5a14","rf98hl","TH","35","F","{""name"":""Chrome"",""chrome"":true,""version"":""106.0"",""blink"":true,""windows"":true,""osname"":""Windows"",""osversion"":""10"",""a"":true}","9:10:37","1","4","Test_2","70","f","1","2858.9000000059605","1920 x 1080","1920 x 1080","true","1","10","","","","",""
"null","<p style=""font-size: 80px;"">+ 10 points</p>","null","html-keyboard-response","23","434414","0.0-11.0-2.22","57c57ea095a3ea00016e5a14","rf98hl","TH","35","F","{""name"":""Chrome"",""chrome"":true,""version"":""106.0"",""blink"":true,""windows"":true,""osname"":""Windows"",""osversion"":""10"",""a"":true}","9:10:37","1","4","Test_2","70","f","1","1497.7000000178814","1920 x 1080","1920 x 1080","true","1","10","","","","",""
"null","<p style=""font-size: 80px;"">+ 10 points</p>","null","html-keyboard-response","24","438010","0.0-11.0-2.23","57c57ea095a3ea00016e5a14","rf98hl","TH","35","F","{""name"":""Chrome"",""chrome"":true,""version"":""106.0"",""blink"":true,""windows"":true,""osname"":""Windows"",""osversion"":""10"",""a"":true}","9:10:37","1","4","Test_4","70","f","1","1581.199999988079","1920 x 1080","1920 x 1080","true","1","10","","","","",""
"null","<p style=""font-size: 80px;"">+ 10 points</p>","null","html-keyboard-response","25","441787","0.0-11.0-2.24","57c57ea095a3ea00016e5a14","rf98hl","TH","35","F","{""name"":""Chrome"",""chrome"":true,""version"":""106.0"",""blink"":true,""windows"":true,""osname"":""Windows"",""osversion"":""10"",""a"":true}","9:10:37","1","4","Test_2","70","f","1","1753.8999999761581","1920 x 1080","1920 x 1080","true","1","10","","","","",""
"null","<p style=""font-size: 80px;"">+ 10 points</p>","null","html-keyboard-response","26","444959","0.0-11.0-2.25","57c57ea095a3ea00016e5a14","rf98hl","TH","35","F","{""name"":""Chrome"",""chrome"":true,""version"":""106.0"",""blink"":true,""windows"":true,""osname"":""Windows"",""osversion"":""10"",""a"":true}","9:10:37","1","4","Test_1","74","j","1","1164.6000000238419","1920 x 1080","1920 x 1080","true","1","10","","","","",""
"null","<p style=""font-size: 80px;"">+ 10 points</p>","null","html-keyboard-response","27","448941","0.0-11.0-2.26","57c57ea095a3ea00016e5a14","rf98hl","TH","35","F","{""name"":""Chrome"",""chrome"":true,""version"":""106.0"",""blink"":true,""windows"":true,""osname"":""Windows"",""osversion"":""10"",""a"":true}","9:10:37","1","4","Test_3","74","j","1","1969.800000011921","1920 x 1080","1920 x 1080","true","1","10","","","","",""
"null","<p style=""font-size: 80px;"">+ 10 points</p>","null","html-keyboard-response","28","452345","0.0-11.0-2.27","57c57ea095a3ea00016e5a14","rf98hl","TH","35","F","{""name"":""Chrome"",""chrome"":true,""version"":""106.0"",""blink"":true,""windows"":true,""osname"":""Windows"",""osversion"":""10"",""a"":true}","9:10:37","1","4","Test_1","74","j","1","1385.5999999940395","1920 x 1080","1920 x 1080","true","1","10","","","","",""
"null","<p style=""font-size: 80px;"">+ 10 points</p>","null","html-keyboard-response","29","456044","0.0-11.0-2.28","57c57ea095a3ea00016e5a14","rf98hl","TH","35","F","{""name"":""Chrome"",""chrome"":true,""version"":""106.0"",""blink"":true,""windows"":true,""osname"":""Windows"",""osversion"":""10"",""a"":true}","9:10:37","1","4","Test_2","70","f","1","1690.5","1920 x 1080","1920 x 1080","true","1","10","","","","",""
"null","<p style=""font-size: 80px;"">+ 10 points</p>","null","html-keyboard-response","30","459531","0.0-11.0-2.29","57c57ea095a3ea00016e5a14","rf98hl","TH","35","F","{""name"":""Chrome"",""chrome"":true,""version"":""106.0"",""blink"":true,""windows"":true,""osname"":""Windows"",""osversion"":""10"",""a"":true}","9:10:37","1","4","Test_3","74","j","1","1480.7999999821186","1920 x 1080","1920 x 1080","true","1","10","","","","",""
"null","<p style=""font-size: 80px;"">+ 10 points</p>","null","html-keyboard-response","31","462789","0.0-11.0-2.30","57c57ea095a3ea00016e5a14","rf98hl","TH","35","F","{""name"":""Chrome"",""chrome"":true,""version"":""106.0"",""blink"":true,""windows"":true,""osname"":""Windows"",""osversion"":""10"",""a"":true}","9:10:37","1","4","Test_1","74","j","1","1251.2000000178814","1920 x 1080","1920 x 1080","true","1","10","","","","",""
"null","<p style=""font-size: 80px;"">+ 10 points</p>","null","html-keyboard-response","32","466060","0.0-11.0-2.31","57c57ea095a3ea00016e5a14","rf98hl","TH","35","F","{""name"":""Chrome"",""chrome"":true,""version"":""106.0"",""blink"":true,""windows"":true,""osname"":""Windows"",""osversion"":""10"",""a"":true}","9:10:37","1","4","Test_2","70","f","1","1256.5","1920 x 1080","1920 x 1080","true","1","10","","","","",""
"null","<p style=""font-size: 80px;"">+ 10 points</p>","null","html-keyboard-response","33","469015","0.0-11.0-2.32","57c57ea095a3ea00016e5a14","rf98hl","TH","35","F","{""name"":""Chrome"",""chrome"":true,""version"":""106.0"",""blink"":true,""windows"":true,""osname"":""Windows"",""osversion"":""10"",""a"":true}","9:10:37","1","4","Test_3","74","j","1","944.3999999761581","1920 x 1080","1920 x 1080","true","1","10","","","","",""
"null","<p style=""font-size: 80px;"">+ 10 points</p>","null","html-keyboard-response","34","472009","0.0-11.0-2.33","57c57ea095a3ea00016e5a14","rf98hl","TH","35","F","{""name"":""Chrome"",""chrome"":true,""version"":""106.0"",""blink"":true,""windows"":true,""osname"":""Windows"",""osversion"":""10"",""a"":true}","9:10:37","1","4","Test_2","70","f","1","983.0999999940395","1920 x 1080","1920 x 1080","true","1","10","","","","",""
"null","<p style=""font-size: 80px;"">+ 10 points</p>","null","html-keyboard-response","35","474901","0.0-11.0-2.34","57c57ea095a3ea00016e5a14","rf98hl","TH","35","F","{""name"":""Chrome"",""chrome"":true,""version"":""106.0"",""blink"":true,""windows"":true,""osname"":""Windows"",""osversion"":""10"",""a"":true}","9:10:37","1","4","Test_3","74","j","1","862.1000000238419","1920 x 1080","1920 x 1080","true","1","10","","","","",""
"null","<p style=""font-size: 80px;"">+ 10 points</p>","null","html-keyboard-response","36","478044","0.0-11.0-2.35","57c57ea095a3ea00016e5a14","rf98hl","TH","35","F","{""name"":""Chrome"",""chrome"":true,""version"":""106.0"",""blink"":true,""windows"":true,""osname"":""Windows"",""osversion"":""10"",""a"":true}","9:10:37","1","4","Test_4","70","f","1","1132.5","1920 x 1080","1920 x 1080","true","1","10","","","","",""
"null","<p style=""font-size: 80px;"">+ 10 points</p>","null","html-keyboard-response","37","481481","0.0-11.0-2.36","57c57ea095a3ea00016e5a14","rf98hl","TH","35","F","{""name"":""Chrome"",""chrome"":true,""version"":""106.0"",""blink"":true,""windows"":true,""osname"":""Windows"",""osversion"":""10"",""a"":true}","9:10:37","1","4","Test_1","74","j","1","1423.4000000059605","1920 x 1080","1920 x 1080","true","1","10","","","","",""
"null","<p style=""font-size: 80px;"">+ 10 points</p>","null","html-keyboard-response","38","484556","0.0-11.0-2.37","57c57ea095a3ea00016e5a14","rf98hl","TH","35","F","{""name"":""Chrome"",""chrome"":true,""version"":""106.0"",""blink"":true,""windows"":true,""osname"":""Windows"",""osversion"":""10"",""a"":true}","9:10:37","1","4","Test_3","74","j","1","1067.2999999821186","1920 x 1080","1920 x 1080","true","1","10","","","","",""
"null","<p style=""font-size: 80px;"">+ 10 points</p>","null","html-keyboard-response","39","487654","0.0-11.0-2.38","57c57ea095a3ea00016e5a14","rf98hl","TH","35","F","{""name"":""Chrome"",""chrome"":true,""version"":""106.0"",""blink"":true,""windows"":true,""osname"":""Windows"",""osversion"":""10"",""a"":true}","9:10:37","1","4","Test_4","70","f","1","1086.5","1920 x 1080","1920 x 1080","true","1","10","","","","",""
"null","<p style=""font-size: 80px;"">+ 10 points</p>","null","html-keyboard-response","40","490678","0.0-11.0-2.39","57c57ea095a3ea00016e5a14","rf98hl","TH","35","F","{""name"":""Chrome"",""chrome"":true,""version"":""106.0"",""blink"":true,""windows"":true,""osname"":""Windows"",""osversion"":""10"",""a"":true}","9:10:37","1","4","Test_1","74","j","1","1017.6999999880791","1920 x 1080","1920 x 1080","true","1","10","","","","",""
"null","<p style=""font-size: 80px;"">+ 10 points</p>","null","html-keyboard-response","41","493780","0.0-11.0-2.40","57c57ea095a3ea00016e5a14","rf98hl","TH","35","F","{""name"":""Chrome"",""chrome"":true,""version"":""106.0"",""blink"":true,""windows"":true,""osname"":""Windows"",""osversion"":""10"",""a"":true}","9:10:37","1","4","Test_4","70","f","1","1087.9000000059605","1920 x 1080","1920 x 1080","true","1","10","","","","",""
"null","<p style=""font-size: 80px;"">+ 0 points</p>","null","html-keyboard-response","42","496863","0.0-11.0-2.41","57c57ea095a3ea00016e5a14","rf98hl","TH","35","F","{""name"":""Chrome"",""chrome"":true,""version"":""106.0"",""blink"":true,""windows"":true,""osname"":""Windows"",""osversion"":""10"",""a"":true}","9:10:37","1","3","Test_4","70","j","0","1077.4000000059605","1920 x 1080","1920 x 1080","true","1","0","","","","",""
"null","<p style=""font-size: 80px;"">+ 10 points</p>","null","html-keyboard-response","43","500769","0.0-11.0-2.42","57c57ea095a3ea00016e5a14","rf98hl","TH","35","F","{""name"":""Chrome"",""chrome"":true,""version"":""106.0"",""blink"":true,""windows"":true,""osname"":""Windows"",""osversion"":""10"",""a"":true}","9:10:37","1","3","Test_3","70","f","1","1882.3999999761581","1920 x 1080","1920 x 1080","true","1","10","","","","",""
"null","<p style=""font-size: 80px;"">+ 10 points</p>","null","html-keyboard-response","44","504257","0.0-11.0-2.43","57c57ea095a3ea00016e5a14","rf98hl","TH","35","F","{""name"":""Chrome"",""chrome"":true,""version"":""106.0"",""blink"":true,""windows"":true,""osname"":""Windows"",""osversion"":""10"",""a"":true}","9:10:37","1","3","Test_3","70","f","1","1476.800000011921","1920 x 1080","1920 x 1080","true","1","10","","","","",""
"null","<p style=""font-size: 80px;"">+ 10 points</p>","null","html-keyboard-response","45","507190","0.0-11.0-2.44","57c57ea095a3ea00016e5a14","rf98hl","TH","35","F","{""name"":""Chrome"",""chrome"":true,""version"":""106.0"",""blink"":true,""windows"":true,""osname"":""Windows"",""osversion"":""10"",""a"":true}","9:10:37","1","3","Test_4","74","j","1","926.1999999880791","1920 x 1080","1920 x 1080","true","1","10","","","","",""
"null","<p style=""font-size: 80px;"">+ 10 points</p>","null","html-keyboard-response","46","510150","0.0-11.0-2.45","57c57ea095a3ea00016e5a14","rf98hl","TH","35","F","{""name"":""Chrome"",""chrome"":true,""version"":""106.0"",""blink"":true,""windows"":true,""osname"":""Windows"",""osversion"":""10"",""a"":true}","9:10:37","1","3","Test_3","70","f","1","955.5","1920 x 1080","1920 x 1080","true","1","10","","","","",""
"null","<p style=""font-size: 80px;"">+ 10 points</p>","null","html-keyboard-response","47","513138","0.0-11.0-2.46","57c57ea095a3ea00016e5a14","rf98hl","TH","35","F","{""name"":""Chrome"",""chrome"":true,""version"":""106.0"",""blink"":true,""windows"":true,""osname"":""Windows"",""osversion"":""10"",""a"":true}","9:10:37","1","3","Test_1","70","f","1","953.9000000059605","1920 x 1080","1920 x 1080","true","1","10","","","","",""
"null","<p style=""font-size: 80px;"">+ 10 points</p>","null","html-keyboard-response","48","516149","0.0-11.0-2.47","57c57ea095a3ea00016e5a14","rf98hl","TH","35","F","{""name"":""Chrome"",""chrome"":true,""version"":""106.0"",""blink"":true,""windows"":true,""osname"":""Windows"",""osversion"":""10"",""a"":true}","9:10:37","1","3","Test_1","70","f","1","989.7000000178814","1920 x 1080","1920 x 1080","true","1","10","","","","",""
"null","<p style=""font-size: 80px;"">+ 10 points</p>","null","html-keyboard-response","49","519416","0.0-11.0-2.48","57c57ea095a3ea00016e5a14","rf98hl","TH","35","F","{""name"":""Chrome"",""chrome"":true,""version"":""106.0"",""blink"":true,""windows"":true,""osname"":""Windows"",""osversion"":""10"",""a"":true}","9:10:37","1","3","Test_2","74","j","1","1258.5","1920 x 1080","1920 x 1080","true","1","10","","","","",""
"null","<p style=""font-size: 80px;"">+ 10 points</p>","null","html-keyboard-response","50","522422","0.0-11.0-2.49","57c57ea095a3ea00016e5a14","rf98hl","TH","35","F","{""name"":""Chrome"",""chrome"":true,""version"":""106.0"",""blink"":true,""windows"":true,""osname"":""Windows"",""osversion"":""10"",""a"":true}","9:10:37","1","3","Test_2","74","j","1","986","1920 x 1080","1920 x 1080","true","1","10","","","","",""
"null","<p style=""font-size: 80px;"">+ 10 points</p>","null","html-keyboard-response","51","525359","0.0-11.0-2.50","57c57ea095a3ea00016e5a14","rf98hl","TH","35","F","{""name"":""Chrome"",""chrome"":true,""version"":""106.0"",""blink"":true,""windows"":true,""osname"":""Windows"",""osversion"":""10"",""a"":true}","9:10:37","1","3","Test_2","74","j","1","921.5999999940395","1920 x 1080","1920 x 1080","true","1","10","","","","",""
"null","<p style=""font-size: 80px;"">+ 10 points</p>","null","html-keyboard-response","52","528168","0.0-11.0-2.51","57c57ea095a3ea00016e5a14","rf98hl","TH","35","F","{""name"":""Chrome"",""chrome"":true,""version"":""106.0"",""blink"":true,""windows"":true,""osname"":""Windows"",""osversion"":""10"",""a"":true}","9:10:37","1","3","Test_2","74","j","1","787.7000000178814","1920 x 1080","1920 x 1080","true","1","10","","","","",""
"null","<p style=""font-size: 80px;"">+ 10 points</p>","null","html-keyboard-response","53","531629","0.0-11.0-2.52","57c57ea095a3ea00016e5a14","rf98hl","TH","35","F","{""name"":""Chrome"",""chrome"":true,""version"":""106.0"",""blink"":true,""windows"":true,""osname"":""Windows"",""osversion"":""10"",""a"":true}","9:10:37","1","3","Test_4","74","j","1","1429.699999988079","1920 x 1080","1920 x 1080","true","1","10","","","","",""
"null","<p style=""font-size: 80px;"">+ 10 points</p>","null","html-keyboard-response","54","534484","0.0-11.0-2.53","57c57ea095a3ea00016e5a14","rf98hl","TH","35","F","{""name"":""Chrome"",""chrome"":true,""version"":""106.0"",""blink"":true,""windows"":true,""osname"":""Windows"",""osversion"":""10"",""a"":true}","9:10:37","1","3","Test_1","70","f","1","830.7000000178814","1920 x 1080","1920 x 1080","true","1","10","","","","",""
"null","<p style=""font-size: 80px;"">+ 10 points</p>","null","html-keyboard-response","55","537361","0.0-11.0-2.54","57c57ea095a3ea00016e5a14","rf98hl","TH","35","F","{""name"":""Chrome"",""chrome"":true,""version"":""106.0"",""blink"":true,""windows"":true,""osname"":""Windows"",""osversion"":""10"",""a"":true}","9:10:37","1","3","Test_3","70","f","1","860.6999999880791","1920 x 1080","1920 x 1080","true","1","10","","","","",""
"null","<p style=""font-size: 80px;"">+ 10 points</p>","null","html-keyboard-response","56","540500","0.0-11.0-2.55","57c57ea095a3ea00016e5a14","rf98hl","TH","35","F","{""name"":""Chrome"",""chrome"":true,""version"":""106.0"",""blink"":true,""windows"":true,""osname"":""Windows"",""osversion"":""10"",""a"":true}","9:10:37","1","3","Test_4","74","j","1","1129.7000000178814","1920 x 1080","1920 x 1080","true","1","10","","","","",""
"null","<p style=""font-size: 80px;"">+ 10 points</p>","null","html-keyboard-response","57","543617","0.0-11.0-2.56","57c57ea095a3ea00016e5a14","rf98hl","TH","35","F","{""name"":""Chrome"",""chrome"":true,""version"":""106.0"",""blink"":true,""windows"":true,""osname"":""Windows"",""osversion"":""10"",""a"":true}","9:10:37","1","3","Test_1","70","f","1","1098.0999999940395","1920 x 1080","1920 x 1080","true","1","10","","","","",""
"null","<p style=""font-size: 80px;"">+ 10 points</p>","null","html-keyboard-response","58","546807","0.0-11.0-2.57","57c57ea095a3ea00016e5a14","rf98hl","TH","35","F","{""name"":""Chrome"",""chrome"":true,""version"":""106.0"",""blink"":true,""windows"":true,""osname"":""Windows"",""osversion"":""10"",""a"":true}","9:10:37","1","3","Test_2","74","j","1","1175.8999999761581","1920 x 1080","1920 x 1080","true","1","10","","","","",""
"null","<p style=""font-size: 80px;"">+ 10 points</p>","null","html-keyboard-response","59","549949","0.0-11.0-2.58","57c57ea095a3ea00016e5a14","rf98hl","TH","35","F","{""name"":""Chrome"",""chrome"":true,""version"":""106.0"",""blink"":true,""windows"":true,""osname"":""Windows"",""osversion"":""10"",""a"":true}","9:10:37","1","3","Test_3","70","f","1","1119.4000000059605","1920 x 1080","1920 x 1080","true","1","10","","","","",""
"null","<p style=""font-size: 80px;"">+ 10 points</p>","null","html-keyboard-response","60","552740","0.0-11.0-2.59","57c57ea095a3ea00016e5a14","rf98hl","TH","35","F","{""name"":""Chrome"",""chrome"":true,""version"":""106.0"",""blink"":true,""windows"":true,""osname"":""Windows"",""osversion"":""10"",""a"":true}","9:10:37","1","3","Test_4","74","j","1","773","1920 x 1080","1920 x 1080","true","1","10","","","","",""
"null","<p style=""font-size: 80px;"">+ 0 points</p>","null","html-keyboard-response","61","555911","0.0-11.0-2.60","57c57ea095a3ea00016e5a14","rf98hl","TH","35","F","{""name"":""Chrome"",""chrome"":true,""version"":""106.0"",""blink"":true,""windows"":true,""osname"":""Windows"",""osversion"":""10"",""a"":true}","9:10:37","1","4","Test_3","70","j","0","1157.199999988079","1920 x 1080","1920 x 1080","true","1","0","","","","",""
"null","<p style=""font-size: 80px;"">+ 10 points</p>","null","html-keyboard-response","62","558829","0.0-11.0-2.61","57c57ea095a3ea00016e5a14","rf98hl","TH","35","F","{""name"":""Chrome"",""chrome"":true,""version"":""106.0"",""blink"":true,""windows"":true,""osname"":""Windows"",""osversion"":""10"",""a"":true}","9:10:37","1","4","Test_2","70","f","1","907.0999999940395","1920 x 1080","1920 x 1080","true","1","10","","","","",""
"null","<p style=""font-size: 80px;"">+ 10 points</p>","null","html-keyboard-response","63","561856","0.0-11.0-2.62","57c57ea095a3ea00016e5a14","rf98hl","TH","35","F","{""name"":""Chrome"",""chrome"":true,""version"":""106.0"",""blink"":true,""windows"":true,""osname"":""Windows"",""osversion"":""10"",""a"":true}","9:10:37","1","4","Test_2","70","f","1","1007.8000000119209","1920 x 1080","1920 x 1080","true","1","10","","","","",""
"null","<p style=""font-size: 80px;"">+ 10 points</p>","null","html-keyboard-response","64","565268","0.0-11.0-2.63","57c57ea095a3ea00016e5a14","rf98hl","TH","35","F","{""name"":""Chrome"",""chrome"":true,""version"":""106.0"",""blink"":true,""windows"":true,""osname"":""Windows"",""osversion"":""10"",""a"":true}","9:10:37","1","4","Test_1","74","j","1","1389.199999988079","1920 x 1080","1920 x 1080","true","1","10","","","","",""
"null","<p style=""font-size: 80px;"">+ 10 points</p>","null","html-keyboard-response","65","568628","0.0-11.0-2.64","57c57ea095a3ea00016e5a14","rf98hl","TH","35","F","{""name"":""Chrome"",""chrome"":true,""version"":""106.0"",""blink"":true,""windows"":true,""osname"":""Windows"",""osversion"":""10"",""a"":true}","9:10:37","1","4","Test_4","70","f","1","1341.7999999821186","1920 x 1080","1920 x 1080","true","1","10","","","","",""
"null","<p style=""font-size: 80px;"">+ 10 points</p>","null","html-keyboard-response","66","572059","0.0-11.0-2.65","57c57ea095a3ea00016e5a14","rf98hl","TH","35","F","{""name"":""Chrome"",""chrome"":true,""version"":""106.0"",""blink"":true,""windows"":true,""osname"":""Windows"",""osversion"":""10"",""a"":true}","9:10:37","1","4","Test_1","74","j","1","1417.5","1920 x 1080","1920 x 1080","true","1","10","","","","",""
"null","<p style=""font-size: 80px;"">+ 10 points</p>","null","html-keyboard-response","67","575039","0.0-11.0-2.66","57c57ea095a3ea00016e5a14","rf98hl","TH","35","F","{""name"":""Chrome"",""chrome"":true,""version"":""106.0"",""blink"":true,""windows"":true,""osname"":""Windows"",""osversion"":""10"",""a"":true}","9:10:37","1","4","Test_1","74","j","1","963.2999999821186","1920 x 1080","1920 x 1080","true","1","10","","","","",""
"null","<p style=""font-size: 80px;"">+ 10 points</p>","null","html-keyboard-response","68","578543","0.0-11.0-2.67","57c57ea095a3ea00016e5a14","rf98hl","TH","35","F","{""name"":""Chrome"",""chrome"":true,""version"":""106.0"",""blink"":true,""windows"":true,""osname"":""Windows"",""osversion"":""10"",""a"":true}","9:10:37","1","4","Test_2","70","f","1","1477.7999999821186","1920 x 1080","1920 x 1080","true","1","10","","","","",""
"null","<p style=""font-size: 80px;"">+ 10 points</p>","null","html-keyboard-response","69","582205","0.0-11.0-2.68","57c57ea095a3ea00016e5a14","rf98hl","TH","35","F","{""name"":""Chrome"",""chrome"":true,""version"":""106.0"",""blink"":true,""windows"":true,""osname"":""Windows"",""osversion"":""10"",""a"":true}","9:10:37","1","4","Test_3","74","j","1","1654.0999999940395","1920 x 1080","1920 x 1080","true","1","10","","","","",""
"null","<p style=""font-size: 80px;"">+ 10 points</p>","null","html-keyboard-response","70","585311","0.0-11.0-2.69","57c57ea095a3ea00016e5a14","rf98hl","TH","35","F","{""name"":""Chrome"",""chrome"":true,""version"":""106.0"",""blink"":true,""windows"":true,""osname"":""Windows"",""osversion"":""10"",""a"":true}","9:10:37","1","4","Test_2","70","f","1","1087","1920 x 1080","1920 x 1080","true","1","10","","","","",""
"null","<p style=""font-size: 80px;"">+ 10 points</p>","null","html-keyboard-response","71","588914","0.0-11.0-2.70","57c57ea095a3ea00016e5a14","rf98hl","TH","35","F","{""name"":""Chrome"",""chrome"":true,""version"":""106.0"",""blink"":true,""windows"":true,""osname"":""Windows"",""osversion"":""10"",""a"":true}","9:10:37","1","4","Test_4","70","f","1","1578","1920 x 1080","1920 x 1080","true","1","10","","","","",""
"null","<p style=""font-size: 80px;"">+ 10 points</p>","null","html-keyboard-response","72","592465","0.0-11.0-2.71","57c57ea095a3ea00016e5a14","rf98hl","TH","35","F","{""name"":""Chrome"",""chrome"":true,""version"":""106.0"",""blink"":true,""windows"":true,""osname"":""Windows"",""osversion"":""10"",""a"":true}","9:10:37","1","4","Test_4","70","f","1","1529.9000000059605","1920 x 1080","1920 x 1080","true","1","10","","","","",""
"null","<p style=""font-size: 80px;"">+ 10 points</p>","null","html-keyboard-response","73","595711","0.0-11.0-2.72","57c57ea095a3ea00016e5a14","rf98hl","TH","35","F","{""name"":""Chrome"",""chrome"":true,""version"":""106.0"",""blink"":true,""windows"":true,""osname"":""Windows"",""osversion"":""10"",""a"":true}","9:10:37","1","4","Test_1","74","j","1","1233.699999988079","1920 x 1080","1920 x 1080","true","1","10","","","","",""
"null","<p style=""font-size: 80px;"">+ 10 points</p>","null","html-keyboard-response","74","599544","0.0-11.0-2.73","57c57ea095a3ea00016e5a14","rf98hl","TH","35","F","{""name"":""Chrome"",""chrome"":true,""version"":""106.0"",""blink"":true,""windows"":true,""osname"":""Windows"",""osversion"":""10"",""a"":true}","9:10:37","1","4","Test_1","74","j","1","1827","1920 x 1080","1920 x 1080","true","1","10","","","","",""
"null","<p style=""font-size: 80px;"">+ 10 points</p>","null","html-keyboard-response","75","602490","0.0-11.0-2.74","57c57ea095a3ea00016e5a14","rf98hl","TH","35","F","{""name"":""Chrome"",""chrome"":true,""version"":""106.0"",""blink"":true,""windows"":true,""osname"":""Windows"",""osversion"":""10"",""a"":true}","9:10:37","1","4","Test_4","70","f","1","922.9000000059605","1920 x 1080","1920 x 1080","true","1","10","","","","",""
"null","<p style=""font-size: 80px;"">+ 10 points</p>","null","html-keyboard-response","76","606194","0.0-11.0-2.75","57c57ea095a3ea00016e5a14","rf98hl","TH","35","F","{""name"":""Chrome"",""chrome"":true,""version"":""106.0"",""blink"":true,""windows"":true,""osname"":""Windows"",""osversion"":""10"",""a"":true}","9:10:37","1","4","Test_2","70","f","1","1688.800000011921","1920 x 1080","1920 x 1080","true","1","10","","","","",""
"null","<p style=""font-size: 80px;"">+ 10 points</p>","null","html-keyboard-response","77","609233","0.0-11.0-2.76","57c57ea095a3ea00016e5a14","rf98hl","TH","35","F","{""name"":""Chrome"",""chrome"":true,""version"":""106.0"",""blink"":true,""windows"":true,""osname"":""Windows"",""osversion"":""10"",""a"":true}","9:10:37","1","4","Test_3","74","j","1","1024.9000000059605","1920 x 1080","1920 x 1080","true","1","10","","","","",""
"null","<p style=""font-size: 80px;"">+ 10 points</p>","null","html-keyboard-response","78","612265","0.0-11.0-2.77","57c57ea095a3ea00016e5a14","rf98hl","TH","35","F","{""name"":""Chrome"",""chrome"":true,""version"":""106.0"",""blink"":true,""windows"":true,""osname"":""Windows"",""osversion"":""10"",""a"":true}","9:10:37","1","4","Test_4","70","f","1","1010.3999999761581","1920 x 1080","1920 x 1080","true","1","10","","","","",""
"null","<p style=""font-size: 80px;"">+ 10 points</p>","null","html-keyboard-response","79","615348","0.0-11.0-2.78","57c57ea095a3ea00016e5a14","rf98hl","TH","35","F","{""name"":""Chrome"",""chrome"":true,""version"":""106.0"",""blink"":true,""windows"":true,""osname"":""Windows"",""osversion"":""10"",""a"":true}","9:10:37","1","4","Test_1","74","j","1","1056.5999999940395","1920 x 1080","1920 x 1080","true","1","10","","","","",""
"null","<p style=""font-size: 80px;"">+ 10 points</p>","null","html-keyboard-response","80","618721","0.0-11.0-2.79","57c57ea095a3ea00016e5a14","rf98hl","TH","35","F","{""name"":""Chrome"",""chrome"":true,""version"":""106.0"",""blink"":true,""windows"":true,""osname"":""Windows"",""osversion"":""10"",""a"":true}","9:10:37","1","4","Test_4","70","f","1","1364.9000000059605","1920 x 1080","1920 x 1080","true","1","10","","","","",""
"null","<p style=""font-size: 80px;"">+ 10 points</p>","null","html-keyboard-response","81","621851","0.0-11.0-2.80","57c57ea095a3ea00016e5a14","rf98hl","TH","35","F","{""name"":""Chrome"",""chrome"":true,""version"":""106.0"",""blink"":true,""windows"":true,""osname"":""Windows"",""osversion"":""10"",""a"":true}","9:10:37","1","4","Test_3","74","j","1","1125.5","1920 x 1080","1920 x 1080","true","1","10","","","","",""
"null","<p style=""font-size: 80px;"">+ 10 points</p>","null","html-keyboard-response","82","624777","0.0-11.0-2.81","57c57ea095a3ea00016e5a14","rf98hl","TH","35","F","{""name"":""Chrome"",""chrome"":true,""version"":""106.0"",""blink"":true,""windows"":true,""osname"":""Windows"",""osversion"":""10"",""a"":true}","9:10:37","1","4","Test_3","74","j","1","915.5","1920 x 1080","1920 x 1080","true","1","10","","","","",""
"null","<p style=""font-size: 80px;"">+ 10 points</p>","null","html-keyboard-response","83","628025","0.0-11.0-2.82","57c57ea095a3ea00016e5a14","rf98hl","TH","35","F","{""name"":""Chrome"",""chrome"":true,""version"":""106.0"",""blink"":true,""windows"":true,""osname"":""Windows"",""osversion"":""10"",""a"":true}","9:10:37","1","4","Test_3","74","j","1","1230.800000011921","1920 x 1080","1920 x 1080","true","1","10","","","","",""
"null","<p style=""font-size: 80px;"">+ 10 points</p>","null","html-keyboard-response","84","631071","0.0-11.0-2.83","57c57ea095a3ea00016e5a14","rf98hl","TH","35","F","{""name"":""Chrome"",""chrome"":true,""version"":""106.0"",""blink"":true,""windows"":true,""osname"":""Windows"",""osversion"":""10"",""a"":true}","9:10:37","1","4","Test_2","70","f","1","1032.5","1920 x 1080","1920 x 1080","true","1","10","","","","",""
"null","<p style=""font-size: 80px;"">+ 0 points</p>","null","html-keyboard-response","85","633911","0.0-11.0-2.84","57c57ea095a3ea00016e5a14","rf98hl","TH","35","F","{""name"":""Chrome"",""chrome"":true,""version"":""106.0"",""blink"":true,""windows"":true,""osname"":""Windows"",""osversion"":""10"",""a"":true}","9:10:37","1","3","Test_3","74","f","0","821.3000000119209","1920 x 1080","1920 x 1080","true","1","0","","","","",""
"null","<p style=""font-size: 80px;"">+ 10 points</p>","null","html-keyboard-response","86","636881","0.0-11.0-2.85","57c57ea095a3ea00016e5a14","rf98hl","TH","35","F","{""name"":""Chrome"",""chrome"":true,""version"":""106.0"",""blink"":true,""windows"":true,""osname"":""Windows"",""osversion"":""10"",""a"":true}","9:10:37","1","3","Test_2","74","j","1","965.2000000178814","1920 x 1080","1920 x 1080","true","1","10","","","","",""
"null","<p style=""font-size: 80px;"">+ 10 points</p>","null","html-keyboard-response","87","641356","0.0-11.0-2.86","57c57ea095a3ea00016e5a14","rf98hl","TH","35","F","{""name"":""Chrome"",""chrome"":true,""version"":""106.0"",""blink"":true,""windows"":true,""osname"":""Windows"",""osversion"":""10"",""a"":true}","9:10:37","1","3","Test_4","74","j","1","2463.9000000059605","1920 x 1080","1920 x 1080","true","1","10","","","","",""
"null","<p style=""font-size: 80px;"">+ 10 points</p>","null","html-keyboard-response","88","645524","0.0-11.0-2.87","57c57ea095a3ea00016e5a14","rf98hl","TH","35","F","{""name"":""Chrome"",""chrome"":true,""version"":""106.0"",""blink"":true,""windows"":true,""osname"":""Windows"",""osversion"":""10"",""a"":true}","9:10:37","1","3","Test_3","70","f","1","2156.2000000178814","1920 x 1080","1920 x 1080","true","1","10","","","","",""
"null","<p style=""font-size: 80px;"">+ 10 points</p>","null","html-keyboard-response","89","648303","0.0-11.0-2.88","57c57ea095a3ea00016e5a14","rf98hl","TH","35","F","{""name"":""Chrome"",""chrome"":true,""version"":""106.0"",""blink"":true,""windows"":true,""osname"":""Windows"",""osversion"":""10"",""a"":true}","9:10:37","1","3","Test_3","70","f","1","773.0999999940395","1920 x 1080","1920 x 1080","true","1","10","","","","",""
"null","<p style=""font-size: 80px;"">+ 10 points</p>","null","html-keyboard-response","90","651418","0.0-11.0-2.89","57c57ea095a3ea00016e5a14","rf98hl","TH","35","F","{""name"":""Chrome"",""chrome"":true,""version"":""106.0"",""blink"":true,""windows"":true,""osname"":""Windows"",""osversion"":""10"",""a"":true}","9:10:37","1","3","Test_2","74","j","1","1106","1920 x 1080","1920 x 1080","true","1","10","","","","",""
"null","<p style=""font-size: 80px;"">+ 10 points</p>","null","html-keyboard-response","91","654553","0.0-11.0-2.90","57c57ea095a3ea00016e5a14","rf98hl","TH","35","F","{""name"":""Chrome"",""chrome"":true,""version"":""106.0"",""blink"":true,""windows"":true,""osname"":""Windows"",""osversion"":""10"",""a"":true}","9:10:37","1","3","Test_2","74","j","1","1110","1920 x 1080","1920 x 1080","true","1","10","","","","",""
"null","<p style=""font-size: 80px;"">+ 10 points</p>","null","html-keyboard-response","92","658104","0.0-11.0-2.91","57c57ea095a3ea00016e5a14","rf98hl","TH","35","F","{""name"":""Chrome"",""chrome"":true,""version"":""106.0"",""blink"":true,""windows"":true,""osname"":""Windows"",""osversion"":""10"",""a"":true}","9:10:37","1","3","Test_4","74","j","1","1546.6000000238419","1920 x 1080","1920 x 1080","true","1","10","","","","",""
"null","<p style=""font-size: 80px;"">+ 10 points</p>","null","html-keyboard-response","93","661253","0.0-11.0-2.92","57c57ea095a3ea00016e5a14","rf98hl","TH","35","F","{""name"":""Chrome"",""chrome"":true,""version"":""106.0"",""blink"":true,""windows"":true,""osname"":""Windows"",""osversion"":""10"",""a"":true}","9:10:37","1","3","Test_4","74","j","1","1132.0999999940395","1920 x 1080","1920 x 1080","true","1","10","","","","",""
"null","<p style=""font-size: 80px;"">+ 10 points</p>","null","html-keyboard-response","94","663906","0.0-11.0-2.93","57c57ea095a3ea00016e5a14","rf98hl","TH","35","F","{""name"":""Chrome"",""chrome"":true,""version"":""106.0"",""blink"":true,""windows"":true,""osname"":""Windows"",""osversion"":""10"",""a"":true}","9:10:37","1","3","Test_4","74","j","1","627.3000000119209","1920 x 1080","1920 x 1080","true","1","10","","","","",""
"null","<p style=""font-size: 80px;"">+ 10 points</p>","null","html-keyboard-response","95","666915","0.0-11.0-2.94","57c57ea095a3ea00016e5a14","rf98hl","TH","35","F","{""name"":""Chrome"",""chrome"":true,""version"":""106.0"",""blink"":true,""windows"":true,""osname"":""Windows"",""osversion"":""10"",""a"":true}","9:10:37","1","3","Test_3","70","f","1","979.0999999940395","1920 x 1080","1920 x 1080","true","1","10","","","","",""
"null","<p style=""font-size: 80px;"">+ 10 points</p>","null","html-keyboard-response","96","670091","0.0-11.0-2.95","57c57ea095a3ea00016e5a14","rf98hl","TH","35","F","{""name"":""Chrome"",""chrome"":true,""version"":""106.0"",""blink"":true,""windows"":true,""osname"":""Windows"",""osversion"":""10"",""a"":true}","9:10:37","1","3","Test_4","74","j","1","1166.300000011921","1920 x 1080","1920 x 1080","true","1","10","","","","",""
"null","<p style=""font-size: 80px;"">+ 10 points</p>","null","html-keyboard-response","97","672983","0.0-11.0-2.96","57c57ea095a3ea00016e5a14","rf98hl","TH","35","F","{""name"":""Chrome"",""chrome"":true,""version"":""106.0"",""blink"":true,""windows"":true,""osname"":""Windows"",""osversion"":""10"",""a"":true}","9:10:37","1","3","Test_1","70","f","1","874.1999999880791","1920 x 1080","1920 x 1080","true","1","10","","","","",""
"null","<p style=""font-size: 80px;"">+ 10 points</p>","null","html-keyboard-response","98","675674","0.0-11.0-2.97","57c57ea095a3ea00016e5a14","rf98hl","TH","35","F","{""name"":""Chrome"",""chrome"":true,""version"":""106.0"",""blink"":true,""windows"":true,""osname"":""Windows"",""osversion"":""10"",""a"":true}","9:10:37","1","3","Test_1","70","f","1","679.6999999880791","1920 x 1080","1920 x 1080","true","1","10","","","","",""
"null","<p style=""font-size: 80px;"">+ 10 points</p>","null","html-keyboard-response","99","678541","0.0-11.0-2.98","57c57ea095a3ea00016e5a14","rf98hl","TH","35","F","{""name"":""Chrome"",""chrome"":true,""version"":""106.0"",""blink"":true,""windows"":true,""osname"":""Windows"",""osversion"":""10"",""a"":true}","9:10:37","1","3","Test_1","70","f","1","848.4000000059605","1920 x 1080","1920 x 1080","true","1","10","","","","",""
"null","<p style=""font-size: 80px;"">+ 10 points</p>","null","html-keyboard-response","100","681537","0.0-11.0-2.99","57c57ea095a3ea00016e5a14","rf98hl","TH","35","F","{""name"":""Chrome"",""chrome"":true,""version"":""106.0"",""blink"":true,""windows"":true,""osname"":""Windows"",""osversion"":""10"",""a"":true}","9:10:37","1","3","Test_2","74","j","1","982.5","1920 x 1080","1920 x 1080","true","1","10","","","","",""
"null","<p style=""font-size: 80px;"">+ 10 points</p>","null","html-keyboard-response","101","684332","0.0-11.0-2.100","57c57ea095a3ea00016e5a14","rf98hl","TH","35","F","{""name"":""Chrome"",""chrome"":true,""version"":""106.0"",""blink"":true,""windows"":true,""osname"":""Windows"",""osversion"":""10"",""a"":true}","9:10:37","1","3","Test_2","74","j","1","786.2999999821186","1920 x 1080","1920 x 1080","true","1","10","","","","",""
"null","<p style=""font-size: 80px;"">+ 10 points</p>","null","html-keyboard-response","102","687269","0.0-11.0-2.101","57c57ea095a3ea00016e5a14","rf98hl","TH","35","F","{""name"":""Chrome"",""chrome"":true,""version"":""106.0"",""blink"":true,""windows"":true,""osname"":""Windows"",""osversion"":""10"",""a"":true}","9:10:37","1","3","Test_1","70","f","1","903.5999999940395","1920 x 1080","1920 x 1080","true","1","10","","","","",""
"null","<p style=""font-size: 80px;"">+ 0 points</p>","null","html-keyboard-response","103","690677","0.0-11.0-2.102","57c57ea095a3ea00016e5a14","rf98hl","TH","35","F","{""name"":""Chrome"",""chrome"":true,""version"":""106.0"",""blink"":true,""windows"":true,""osname"":""Windows"",""osversion"":""10"",""a"":true}","9:10:37","1","4","Test_3","70","j","0","1393.6000000238419","1920 x 1080","1920 x 1080","true","1","0","","","","",""
"null","<p style=""font-size: 80px;"">+ 10 points</p>","null","html-keyboard-response","104","694378","0.0-11.0-2.103","57c57ea095a3ea00016e5a14","rf98hl","TH","35","F","{""name"":""Chrome"",""chrome"":true,""version"":""106.0"",""blink"":true,""windows"":true,""osname"":""Windows"",""osversion"":""10"",""a"":true}","9:10:37","1","4","Test_4","70","f","1","1680.199999988079","1920 x 1080","1920 x 1080","true","1","10","","","","",""
"null","<p style=""font-size: 80px;"">+ 10 points</p>","null","html-keyboard-response","105","698318","0.0-11.0-2.104","57c57ea095a3ea00016e5a14","rf98hl","TH","35","F","{""name"":""Chrome"",""chrome"":true,""version"":""106.0"",""blink"":true,""windows"":true,""osname"":""Windows"",""osversion"":""10"",""a"":true}","9:10:37","1","4","Test_2","70","f","1","1928.5999999940395","1920 x 1080","1920 x 1080","true","1","10","","","","",""
"null","<p style=""font-size: 80px;"">+ 10 points</p>","null","html-keyboard-response","106","701613","0.0-11.0-2.105","57c57ea095a3ea00016e5a14","rf98hl","TH","35","F","{""name"":""Chrome"",""chrome"":true,""version"":""106.0"",""blink"":true,""windows"":true,""osname"":""Windows"",""osversion"":""10"",""a"":true}","9:10:37","1","4","Test_1","74","j","1","1278.7999999821186","1920 x 1080","1920 x 1080","true","1","10","","","","",""
"null","<p style=""font-size: 80px;"">+ 10 points</p>","null","html-keyboard-response","107","705493","0.0-11.0-2.106","57c57ea095a3ea00016e5a14","rf98hl","TH","35","F","{""name"":""Chrome"",""chrome"":true,""version"":""106.0"",""blink"":true,""windows"":true,""osname"":""Windows"",""osversion"":""10"",""a"":true}","9:10:37","1","4","Test_3","74","j","1","1851.0999999940395","1920 x 1080","1920 x 1080","true","1","10","","","","",""
"null","<p style=""font-size: 80px;"">+ 10 points</p>","null","html-keyboard-response","108","708398","0.0-11.0-2.107","57c57ea095a3ea00016e5a14","rf98hl","TH","35","F","{""name"":""Chrome"",""chrome"":true,""version"":""106.0"",""blink"":true,""windows"":true,""osname"":""Windows"",""osversion"":""10"",""a"":true}","9:10:37","1","4","Test_2","70","f","1","881.2999999821186","1920 x 1080","1920 x 1080","true","1","10","","","","",""
"null","<p style=""font-size: 80px;"">+ 0 points</p>","null","html-keyboard-response","109","713322","0.0-11.0-2.108","57c57ea095a3ea00016e5a14","rf98hl","TH","35","F","{""name"":""Chrome"",""chrome"":true,""version"":""106.0"",""blink"":true,""windows"":true,""osname"":""Windows"",""osversion"":""10"",""a"":true}","9:10:37","1","4","Test_4","74","f","0","2894.7999999821186","1920 x 1080","1920 x 1080","true","1","0","","","","",""
"null","<p style=""font-size: 80px;"">+ 0 points</p>","null","html-keyboard-response","110","732723","0.0-11.0-2.109","57c57ea095a3ea00016e5a14","rf98hl","TH","35","F","{""name"":""Chrome"",""chrome"":true,""version"":""106.0"",""blink"":true,""windows"":true,""osname"":""Windows"",""osversion"":""10"",""a"":true}","9:10:37","1","4","Test_4","74","f","0","1846","1920 x 1080","1920 x 1080","true","1","0","","","","",""
"null","<p style=""font-size: 80px;"">+ 10 points</p>","null","html-keyboard-response","111","737552","0.0-11.0-2.110","57c57ea095a3ea00016e5a14","rf98hl","TH","35","F","{""name"":""Chrome"",""chrome"":true,""version"":""106.0"",""blink"":true,""windows"":true,""osname"":""Windows"",""osversion"":""10"",""a"":true}","9:10:37","1","4","Test_2","70","f","1","2823.699999988079","1920 x 1080","1920 x 1080","true","1","10","","","","",""
"null","<p style=""font-size: 80px;"">+ 10 points</p>","null","html-keyboard-response","112","740542","0.0-11.0-2.111","57c57ea095a3ea00016e5a14","rf98hl","TH","35","F","{""name"":""Chrome"",""chrome"":true,""version"":""106.0"",""blink"":true,""windows"":true,""osname"":""Windows"",""osversion"":""10"",""a"":true}","9:10:37","1","4","Test_3","74","j","1","967.8999999761581","1920 x 1080","1920 x 1080","true","1","10","","","","",""
"null","<p style=""font-size: 80px;"">+ 10 points</p>","null","html-keyboard-response","113","743425","0.0-11.0-2.112","57c57ea095a3ea00016e5a14","rf98hl","TH","35","F","{""name"":""Chrome"",""chrome"":true,""version"":""106.0"",""blink"":true,""windows"":true,""osname"":""Windows"",""osversion"":""10"",""a"":true}","9:10:37","1","4","Test_2","70","f","1","866.3999999761581","1920 x 1080","1920 x 1080","true","1","10","","","","",""
"null","<p style=""font-size: 80px;"">+ 10 points</p>","null","html-keyboard-response","114","746369","0.0-11.0-2.113","57c57ea095a3ea00016e5a14","rf98hl","TH","35","F","{""name"":""Chrome"",""chrome"":true,""version"":""106.0"",""blink"":true,""windows"":true,""osname"":""Windows"",""osversion"":""10"",""a"":true}","9:10:37","1","4","Test_3","74","j","1","923.4000000059605","1920 x 1080","1920 x 1080","true","1","10","","","","",""
"null","<p style=""font-size: 80px;"">+ 10 points</p>","null","html-keyboard-response","115","749410","0.0-11.0-2.114","57c57ea095a3ea00016e5a14","rf98hl","TH","35","F","{""name"":""Chrome"",""chrome"":true,""version"":""106.0"",""blink"":true,""windows"":true,""osname"":""Windows"",""osversion"":""10"",""a"":true}","9:10:37","1","4","Test_1","74","j","1","1018.4000000059605","1920 x 1080","1920 x 1080","true","1","10","","","","",""
"null","<p style=""font-size: 80px;"">+ 10 points</p>","null","html-keyboard-response","116","752385","0.0-11.0-2.115","57c57ea095a3ea00016e5a14","rf98hl","TH","35","F","{""name"":""Chrome"",""chrome"":true,""version"":""106.0"",""blink"":true,""windows"":true,""osname"":""Windows"",""osversion"":""10"",""a"":true}","9:10:37","1","4","Test_4","70","f","1","951.5","1920 x 1080","1920 x 1080","true","1","10","","","","",""
"null","<p style=""font-size: 80px;"">+ 10 points</p>","null","html-keyboard-response","117","755711","0.0-11.0-2.116","57c57ea095a3ea00016e5a14","rf98hl","TH","35","F","{""name"":""Chrome"",""chrome"":true,""version"":""106.0"",""blink"":true,""windows"":true,""osname"":""Windows"",""osversion"":""10"",""a"":true}","9:10:37","1","4","Test_2","70","f","1","1310.2999999821186","1920 x 1080","1920 x 1080","true","1","10","","","","",""
"null","<p style=""font-size: 80px;"">+ 10 points</p>","null","html-keyboard-response","118","758466","0.0-11.0-2.117","57c57ea095a3ea00016e5a14","rf98hl","TH","35","F","{""name"":""Chrome"",""chrome"":true,""version"":""106.0"",""blink"":true,""windows"":true,""osname"":""Windows"",""osversion"":""10"",""a"":true}","9:10:37","1","4","Test_1","74","j","1","725.6999999880791","1920 x 1080","1920 x 1080","true","1","10","","","","",""
"null","<p style=""font-size: 80px;"">+ 10 points</p>","null","html-keyboard-response","119","762307","0.0-11.0-2.118","57c57ea095a3ea00016e5a14","rf98hl","TH","35","F","{""name"":""Chrome"",""chrome"":true,""version"":""106.0"",""blink"":true,""windows"":true,""osname"":""Windows"",""osversion"":""10"",""a"":true}","9:10:37","1","4","Test_1","74","j","1","1831.2999999821186","1920 x 1080","1920 x 1080","true","1","10","","","","",""
"null","<p style=""font-size: 80px;"">+ 10 points</p>","null","html-keyboard-response","120","766205","0.0-11.0-2.119","57c57ea095a3ea00016e5a14","rf98hl","TH","35","F","{""name"":""Chrome"",""chrome"":true,""version"":""106.0"",""blink"":true,""windows"":true,""osname"":""Windows"",""osversion"":""10"",""a"":true}","9:10:37","1","4","Test_4","70","f","1","1879.5999999940395","1920 x 1080","1920 x 1080","true","1","10","","","","",""
"null","<p style=""font-size: 80px;"">+ 10 points</p>","null","html-keyboard-response","121","769367","0.0-11.0-2.120","57c57ea095a3ea00016e5a14","rf98hl","TH","35","F","{""name"":""Chrome"",""chrome"":true,""version"":""106.0"",""blink"":true,""windows"":true,""osname"":""Windows"",""osversion"":""10"",""a"":true}","9:10:37","1","4","Test_1","74","j","1","1154.199999988079","1920 x 1080","1920 x 1080","true","1","10","","","","",""
"null","<p style=""font-size: 80px;"">+ 0 points</p>","null","html-keyboard-response","122","773255","0.0-11.0-2.121","57c57ea095a3ea00016e5a14","rf98hl","TH","35","F","{""name"":""Chrome"",""chrome"":true,""version"":""106.0"",""blink"":true,""windows"":true,""osname"":""Windows"",""osversion"":""10"",""a"":true}","9:10:37","1","3","Test_2","70","j","0","1860.300000011921","1920 x 1080","1920 x 1080","true","1","0","","","","",""
"null","<p style=""font-size: 80px;"">+ 10 points</p>","null","html-keyboard-response","123","777903","0.0-11.0-2.122","57c57ea095a3ea00016e5a14","rf98hl","TH","35","F","{""name"":""Chrome"",""chrome"":true,""version"":""106.0"",""blink"":true,""windows"":true,""osname"":""Windows"",""osversion"":""10"",""a"":true}","9:10:37","1","3","Test_1","70","f","1","2639","1920 x 1080","1920 x 1080","true","1","10","","","","",""
"null","<p style=""font-size: 80px;"">+ 10 points</p>","null","html-keyboard-response","124","781231","0.0-11.0-2.123","57c57ea095a3ea00016e5a14","rf98hl","TH","35","F","{""name"":""Chrome"",""chrome"":true,""version"":""106.0"",""blink"":true,""windows"":true,""osname"":""Windows"",""osversion"":""10"",""a"":true}","9:10:37","1","3","Test_3","70","f","1","1315.0999999940395","1920 x 1080","1920 x 1080","true","1","10","","","","",""
"null","<p style=""font-size: 80px;"">+ 10 points</p>","null","html-keyboard-response","125","785294","0.0-11.0-2.124","57c57ea095a3ea00016e5a14","rf98hl","TH","35","F","{""name"":""Chrome"",""chrome"":true,""version"":""106.0"",""blink"":true,""windows"":true,""osname"":""Windows"",""osversion"":""10"",""a"":true}","9:10:37","1","3","Test_4","74","j","1","2040.300000011921","1920 x 1080","1920 x 1080","true","1","10","","","","",""
"null","<p style=""font-size: 80px;"">+ 10 points</p>","null","html-keyboard-response","126","788463","0.0-11.0-2.125","57c57ea095a3ea00016e5a14","rf98hl","TH","35","F","{""name"":""Chrome"",""chrome"":true,""version"":""106.0"",""blink"":true,""windows"":true,""osname"":""Windows"",""osversion"":""10"",""a"":true}","9:10:37","1","3","Test_1","70","f","1","1141.5","1920 x 1080","1920 x 1080","true","1","10","","","","",""
"null","<p style=""font-size: 80px;"">+ 10 points</p>","null","html-keyboard-response","127","792142","0.0-11.0-2.126","57c57ea095a3ea00016e5a14","rf98hl","TH","35","F","{""name"":""Chrome"",""chrome"":true,""version"":""106.0"",""blink"":true,""windows"":true,""osname"":""Windows"",""osversion"":""10"",""a"":true}","9:10:37","1","3","Test_2","74","j","1","1660.300000011921","1920 x 1080","1920 x 1080","true","1","10","","","","",""
"null","<p style=""font-size: 80px;"">+ 10 points</p>","null","html-keyboard-response","128","795115","0.0-11.0-2.127","57c57ea095a3ea00016e5a14","rf98hl","TH","35","F","{""name"":""Chrome"",""chrome"":true,""version"":""106.0"",""blink"":true,""windows"":true,""osname"":""Windows"",""osversion"":""10"",""a"":true}","9:10:37","1","3","Test_1","70","f","1","964.5999999940395","1920 x 1080","1920 x 1080","true","1","10","","","","",""
"null","<p style=""font-size: 80px;"">+ 10 points</p>","null","html-keyboard-response","129","798010","0.0-11.0-2.128","57c57ea095a3ea00016e5a14","rf98hl","TH","35","F","{""name"":""Chrome"",""chrome"":true,""version"":""106.0"",""blink"":true,""windows"":true,""osname"":""Windows"",""osversion"":""10"",""a"":true}","9:10:37","1","3","Test_1","70","f","1","877.4000000059605","1920 x 1080","1920 x 1080","true","1","10","","","","",""
"null","<p style=""font-size: 80px;"">+ 10 points</p>","null","html-keyboard-response","130","800863","0.0-11.0-2.129","57c57ea095a3ea00016e5a14","rf98hl","TH","35","F","{""name"":""Chrome"",""chrome"":true,""version"":""106.0"",""blink"":true,""windows"":true,""osname"":""Windows"",""osversion"":""10"",""a"":true}","9:10:37","1","3","Test_4","74","j","1","834.1999999880791","1920 x 1080","1920 x 1080","true","1","10","","","","",""
"null","<p style=""font-size: 80px;"">+ 10 points</p>","null","html-keyboard-response","131","803632","0.0-11.0-2.130","57c57ea095a3ea00016e5a14","rf98hl","TH","35","F","{""name"":""Chrome"",""chrome"":true,""version"":""106.0"",""blink"":true,""windows"":true,""osname"":""Windows"",""osversion"":""10"",""a"":true}","9:10:37","1","3","Test_1","70","f","1","749.6000000238419","1920 x 1080","1920 x 1080","true","1","10","","","","",""
"null","<p style=""font-size: 80px;"">+ 10 points</p>","null","html-keyboard-response","132","806592","0.0-11.0-2.131","57c57ea095a3ea00016e5a14","rf98hl","TH","35","F","{""name"":""Chrome"",""chrome"":true,""version"":""106.0"",""blink"":true,""windows"":true,""osname"":""Windows"",""osversion"":""10"",""a"":true}","9:10:37","1","3","Test_3","70","f","1","931.6999999880791","1920 x 1080","1920 x 1080","true","1","10","","","","",""
"null","<p style=""font-size: 80px;"">+ 10 points</p>","null","html-keyboard-response","133","809471","0.0-11.0-2.132","57c57ea095a3ea00016e5a14","rf98hl","TH","35","F","{""name"":""Chrome"",""chrome"":true,""version"":""106.0"",""blink"":true,""windows"":true,""osname"":""Windows"",""osversion"":""10"",""a"":true}","9:10:37","1","3","Test_3","70","f","1","865.5","1920 x 1080","1920 x 1080","true","1","10","","","","",""
"null","<p style=""font-size: 80px;"">+ 10 points</p>","null","html-keyboard-response","134","812384","0.0-11.0-2.133","57c57ea095a3ea00016e5a14","rf98hl","TH","35","F","{""name"":""Chrome"",""chrome"":true,""version"":""106.0"",""blink"":true,""windows"":true,""osname"":""Windows"",""osversion"":""10"",""a"":true}","9:10:37","1","3","Test_3","70","f","1","897","1920 x 1080","1920 x 1080","true","1","10","","","","",""
"null","<p style=""font-size: 80px;"">+ 10 points</p>","null","html-keyboard-response","135","815527","0.0-11.0-2.134","57c57ea095a3ea00016e5a14","rf98hl","TH","35","F","{""name"":""Chrome"",""chrome"":true,""version"":""106.0"",""blink"":true,""windows"":true,""osname"":""Windows"",""osversion"":""10"",""a"":true}","9:10:37","1","3","Test_2","74","j","1","1120.699999988079","1920 x 1080","1920 x 1080","true","1","10","","","","",""
"null","<p style=""font-size: 80px;"">+ 10 points</p>","null","html-keyboard-response","136","818758","0.0-11.0-2.135","57c57ea095a3ea00016e5a14","rf98hl","TH","35","F","{""name"":""Chrome"",""chrome"":true,""version"":""106.0"",""blink"":true,""windows"":true,""osname"":""Windows"",""osversion"":""10"",""a"":true}","9:10:37","1","3","Test_2","74","j","1","1223.699999988079","1920 x 1080","1920 x 1080","true","1","10","","","","",""
"null","<p style=""font-size: 80px;"">+ 10 points</p>","null","html-keyboard-response","137","821874","0.0-11.0-2.136","57c57ea095a3ea00016e5a14","rf98hl","TH","35","F","{""name"":""Chrome"",""chrome"":true,""version"":""106.0"",""blink"":true,""windows"":true,""osname"":""Windows"",""osversion"":""10"",""a"":true}","9:10:37","1","3","Test_4","74","j","1","1093.5999999940395","1920 x 1080","1920 x 1080","true","1","10","","","","",""
"null","<p style=""font-size: 80px;"">+ 10 points</p>","null","html-keyboard-response","138","825038","0.0-11.0-2.137","57c57ea095a3ea00016e5a14","rf98hl","TH","35","F","{""name"":""Chrome"",""chrome"":true,""version"":""106.0"",""blink"":true,""windows"":true,""osname"":""Windows"",""osversion"":""10"",""a"":true}","9:10:37","1","3","Test_3","70","f","1","1144.5999999940395","1920 x 1080","1920 x 1080","true","1","10","","","","",""
"null","<p style=""font-size: 80px;"">+ 10 points</p>","null","html-keyboard-response","139","827929","0.0-11.0-2.138","57c57ea095a3ea00016e5a14","rf98hl","TH","35","F","{""name"":""Chrome"",""chrome"":true,""version"":""106.0"",""blink"":true,""windows"":true,""osname"":""Windows"",""osversion"":""10"",""a"":true}","9:10:37","1","3","Test_2","74","j","1","877.2999999821186","1920 x 1080","1920 x 1080","true","1","10","","","","",""
"null","<p style=""font-size: 80px;"">+ 0 points</p>","null","html-keyboard-response","140","830785","0.0-11.0-2.139","57c57ea095a3ea00016e5a14","rf98hl","TH","35","F","{""name"":""Chrome"",""chrome"":true,""version"":""106.0"",""blink"":true,""windows"":true,""osname"":""Windows"",""osversion"":""10"",""a"":true}","9:10:37","1","4","Test_3","70","j","0","833.9000000059605","1920 x 1080","1920 x 1080","true","1","0","","","","",""
"null","<p style=""font-size: 80px;"">+ 10 points</p>","null","html-keyboard-response","141","834049","0.0-11.0-2.140","57c57ea095a3ea00016e5a14","rf98hl","TH","35","F","{""name"":""Chrome"",""chrome"":true,""version"":""106.0"",""blink"":true,""windows"":true,""osname"":""Windows"",""osversion"":""10"",""a"":true}","9:10:37","1","4","Test_4","70","f","1","1244.5999999940395","1920 x 1080","1920 x 1080","true","1","10","","","","",""
"null","<p style=""font-size: 80px;"">+ 10 points</p>","null","html-keyboard-response","142","836782","0.0-11.0-2.141","57c57ea095a3ea00016e5a14","rf98hl","TH","35","F","{""name"":""Chrome"",""chrome"":true,""version"":""106.0"",""blink"":true,""windows"":true,""osname"":""Windows"",""osversion"":""10"",""a"":true}","9:10:37","1","4","Test_2","70","f","1","709.4000000059605","1920 x 1080","1920 x 1080","true","1","10","","","","",""
"null","<p style=""font-size: 80px;"">+ 10 points</p>","null","html-keyboard-response","143","839869","0.0-11.0-2.142","57c57ea095a3ea00016e5a14","rf98hl","TH","35","F","{""name"":""Chrome"",""chrome"":true,""version"":""106.0"",""blink"":true,""windows"":true,""osname"":""Windows"",""osversion"":""10"",""a"":true}","9:10:37","1","4","Test_3","74","j","1","1072.199999988079","1920 x 1080","1920 x 1080","true","1","10","","","","",""
"null","<p style=""font-size: 80px;"">+ 10 points</p>","null","html-keyboard-response","144","842828","0.0-11.0-2.143","57c57ea095a3ea00016e5a14","rf98hl","TH","35","F","{""name"":""Chrome"",""chrome"":true,""version"":""106.0"",""blink"":true,""windows"":true,""osname"":""Windows"",""osversion"":""10"",""a"":true}","9:10:37","1","4","Test_2","70","f","1","945.4000000059605","1920 x 1080","1920 x 1080","true","1","10","","","","",""
"null","<p style=""font-size: 80px;"">+ 10 points</p>","null","html-keyboard-response","145","845773","0.0-11.0-2.144","57c57ea095a3ea00016e5a14","rf98hl","TH","35","F","{""name"":""Chrome"",""chrome"":true,""version"":""106.0"",""blink"":true,""windows"":true,""osname"":""Windows"",""osversion"":""10"",""a"":true}","9:10:37","1","4","Test_2","70","f","1","931.5999999940395","1920 x 1080","1920 x 1080","true","1","10","","","","",""
"null","<p style=""font-size: 80px;"">+ 10 points</p>","null","html-keyboard-response","146","848741","0.0-11.0-2.145","57c57ea095a3ea00016e5a14","rf98hl","TH","35","F","{""name"":""Chrome"",""chrome"":true,""version"":""106.0"",""blink"":true,""windows"":true,""osname"":""Windows"",""osversion"":""10"",""a"":true}","9:10:37","1","4","Test_2","70","f","1","945.2000000178814","1920 x 1080","1920 x 1080","true","1","10","","","","",""
