"rt","stimulus","key_press","trial_type","trial_index","time_elapsed","internal_node_id","Prolific_ID","random_ID","initials","age","gender","pc_info","start_time","Phase","Rule","Stimulus","Response","CorrResp","Accuracy","ResponseTime","screen_resolution","window_resolution","focus","relevant","Points","responses","question_order","rev_check","butterfly_check","passed_practice"
"null","<p style=""font-size: 80px;"">+ 10 points</p>","null","html-keyboard-response","1","103853","0.0-7.0-2.0","5badf5bd0a2d4400010c683e","r55oor","OR","28","M","{""name"":""Chrome"",""chrome"":true,""version"":""106.0"",""blink"":true,""windows"":true,""osname"":""Windows"",""osversion"":""10"",""a"":true}","9:20:7","0","1","Practice_4","74","j","1","1090.2999999970198","1360 x 768","1360 x 768","true","1","10","","","","",""
"null","<p style=""font-size: 80px;"">+ 10 points</p>","null","html-keyboard-response","2","107137","0.0-7.0-2.1","5badf5bd0a2d4400010c683e","r55oor","OR","28","M","{""name"":""Chrome"",""chrome"":true,""version"":""106.0"",""blink"":true,""windows"":true,""osname"":""Windows"",""osversion"":""10"",""a"":true}","9:20:7","0","1","Practice_1","70","f","1","1246","1360 x 768","1360 x 768","true","1","10","","","","",""
"null","<p style=""font-size: 80px;"">+ 10 points</p>","null","html-keyboard-response","3","110517","0.0-7.0-2.2","5badf5bd0a2d4400010c683e","r55oor","OR","28","M","{""name"":""Chrome"",""chrome"":true,""version"":""106.0"",""blink"":true,""windows"":true,""osname"":""Windows"",""osversion"":""10"",""a"":true}","9:20:7","0","1","Practice_2","74","j","1","1352.1000000089407","1360 x 768","1360 x 768","true","1","10","","","","",""
"null","<p style=""font-size: 80px;"">+ 10 points</p>","null","html-keyboard-response","4","113168","0.0-7.0-2.3","5badf5bd0a2d4400010c683e","r55oor","OR","28","M","{""name"":""Chrome"",""chrome"":true,""version"":""106.0"",""blink"":true,""windows"":true,""osname"":""Windows"",""osversion"":""10"",""a"":true}","9:20:7","0","1","Practice_1","70","f","1","626.9000000059605","1360 x 768","1360 x 768","true","1","10","","","","",""
"null","<p style=""font-size: 80px;"">+ 10 points</p>","null","html-keyboard-response","5","116050","0.0-7.0-2.4","5badf5bd0a2d4400010c683e","r55oor","OR","28","M","{""name"":""Chrome"",""chrome"":true,""version"":""106.0"",""blink"":true,""windows"":true,""osname"":""Windows"",""osversion"":""10"",""a"":true}","9:20:7","0","1","Practice_2","74","j","1","848.0999999940395","1360 x 768","1360 x 768","true","1","10","","","","",""
"null","<p style=""font-size: 80px;"">+ 0 points</p>","null","html-keyboard-response","6","119232","0.0-7.0-2.5","5badf5bd0a2d4400010c683e","r55oor","OR","28","M","{""name"":""Chrome"",""chrome"":true,""version"":""106.0"",""blink"":true,""windows"":true,""osname"":""Windows"",""osversion"":""10"",""a"":true}","9:20:7","0","1","Practice_3","74","f","0","1147.3999999910593","1360 x 768","1360 x 768","true","1","0","","","","",""
"null","<p style=""font-size: 80px;"">+ 10 points</p>","null","html-keyboard-response","7","121963","0.0-7.0-2.6","5badf5bd0a2d4400010c683e","r55oor","OR","28","M","{""name"":""Chrome"",""chrome"":true,""version"":""106.0"",""blink"":true,""windows"":true,""osname"":""Windows"",""osversion"":""10"",""a"":true}","9:20:7","0","1","Practice_1","70","f","1","700.7999999970198","1360 x 768","1360 x 768","true","1","10","","","","",""
"null","<p style=""font-size: 80px;"">+ 10 points</p>","null","html-keyboard-response","8","125148","0.0-7.0-2.7","5badf5bd0a2d4400010c683e","r55oor","OR","28","M","{""name"":""Chrome"",""chrome"":true,""version"":""106.0"",""blink"":true,""windows"":true,""osname"":""Windows"",""osversion"":""10"",""a"":true}","9:20:7","0","1","Practice_2","74","j","1","1154.2000000029802","1360 x 768","1360 x 768","true","1","10","","","","",""
"null","<p style=""font-size: 80px;"">+ 10 points</p>","null","html-keyboard-response","9","127912","0.0-7.0-2.8","5badf5bd0a2d4400010c683e","r55oor","OR","28","M","{""name"":""Chrome"",""chrome"":true,""version"":""106.0"",""blink"":true,""windows"":true,""osname"":""Windows"",""osversion"":""10"",""a"":true}","9:20:7","0","1","Practice_4","74","j","1","729.2999999970198","1360 x 768","1360 x 768","true","1","10","","","","",""
"null","<p style=""font-size: 80px;"">+ 10 points</p>","null","html-keyboard-response","10","130513","0.0-7.0-2.9","5badf5bd0a2d4400010c683e","r55oor","OR","28","M","{""name"":""Chrome"",""chrome"":true,""version"":""106.0"",""blink"":true,""windows"":true,""osname"":""Windows"",""osversion"":""10"",""a"":true}","9:20:7","0","1","Practice_3","70","f","1","570.8999999910593","1360 x 768","1360 x 768","true","1","10","","","","",""
"null","<p style=""font-size: 80px;"">+ 10 points</p>","null","html-keyboard-response","11","133864","0.0-7.0-2.10","5badf5bd0a2d4400010c683e","r55oor","OR","28","M","{""name"":""Chrome"",""chrome"":true,""version"":""106.0"",""blink"":true,""windows"":true,""osname"":""Windows"",""osversion"":""10"",""a"":true}","9:20:7","0","1","Practice_3","70","f","1","1323.9000000059605","1360 x 768","1360 x 768","true","1","10","","","","",""
"null","<p style=""font-size: 80px;"">+ 0 points</p>","null","html-keyboard-response","12","136544","0.0-7.0-2.11","5badf5bd0a2d4400010c683e","r55oor","OR","28","M","{""name"":""Chrome"",""chrome"":true,""version"":""106.0"",""blink"":true,""windows"":true,""osname"":""Windows"",""osversion"":""10"",""a"":true}","9:20:7","0","1","Practice_2","70","j","0","654.0999999940395","1360 x 768","1360 x 768","true","1","0","","","","",""
"null","<p style=""font-size: 80px;"">+ 10 points</p>","null","html-keyboard-response","13","139479","0.0-7.0-2.12","5badf5bd0a2d4400010c683e","r55oor","OR","28","M","{""name"":""Chrome"",""chrome"":true,""version"":""106.0"",""blink"":true,""windows"":true,""osname"":""Windows"",""osversion"":""10"",""a"":true}","9:20:7","0","1","Practice_4","74","j","1","902","1360 x 768","1360 x 768","true","1","10","","","","",""
"null","<p style=""font-size: 80px;"">+ 10 points</p>","null","html-keyboard-response","14","142594","0.0-7.0-2.13","5badf5bd0a2d4400010c683e","r55oor","OR","28","M","{""name"":""Chrome"",""chrome"":true,""version"":""106.0"",""blink"":true,""windows"":true,""osname"":""Windows"",""osversion"":""10"",""a"":true}","9:20:7","0","1","Practice_4","74","j","1","1086.5","1360 x 768","1360 x 768","true","1","10","","","","",""
"null","<p style=""font-size: 80px;"">+ 10 points</p>","null","html-keyboard-response","15","145708","0.0-7.0-2.14","5badf5bd0a2d4400010c683e","r55oor","OR","28","M","{""name"":""Chrome"",""chrome"":true,""version"":""106.0"",""blink"":true,""windows"":true,""osname"":""Windows"",""osversion"":""10"",""a"":true}","9:20:7","0","1","Practice_1","70","f","1","1065.7999999970198","1360 x 768","1360 x 768","true","1","10","","","","",""
"null","<p style=""font-size: 80px;"">+ 10 points</p>","null","html-keyboard-response","16","149228","0.0-7.0-2.15","5badf5bd0a2d4400010c683e","r55oor","OR","28","M","{""name"":""Chrome"",""chrome"":true,""version"":""106.0"",""blink"":true,""windows"":true,""osname"":""Windows"",""osversion"":""10"",""a"":true}","9:20:7","0","1","Practice_2","74","j","1","1485.4000000059605","1360 x 768","1360 x 768","true","1","10","","","","",""
"null","<p style=""font-size: 80px;"">+ 10 points</p>","null","html-keyboard-response","17","152223","0.0-7.0-2.16","5badf5bd0a2d4400010c683e","r55oor","OR","28","M","{""name"":""Chrome"",""chrome"":true,""version"":""106.0"",""blink"":true,""windows"":true,""osname"":""Windows"",""osversion"":""10"",""a"":true}","9:20:7","0","1","Practice_4","74","j","1","962.7999999970198","1360 x 768","1360 x 768","true","1","10","","","","",""
"null","<p style=""font-size: 80px;"">+ 10 points</p>","null","html-keyboard-response","18","155710","0.0-7.0-2.17","5badf5bd0a2d4400010c683e","r55oor","OR","28","M","{""name"":""Chrome"",""chrome"":true,""version"":""106.0"",""blink"":true,""windows"":true,""osname"":""Windows"",""osversion"":""10"",""a"":true}","9:20:7","0","1","Practice_3","70","f","1","1435.7999999970198","1360 x 768","1360 x 768","true","1","10","","","","",""
"null","<p style=""font-size: 80px;"">+ 10 points</p>","null","html-keyboard-response","19","159505","0.0-7.0-2.18","5badf5bd0a2d4400010c683e","r55oor","OR","28","M","{""name"":""Chrome"",""chrome"":true,""version"":""106.0"",""blink"":true,""windows"":true,""osname"":""Windows"",""osversion"":""10"",""a"":true}","9:20:7","0","1","Practice_1","70","f","1","1773.6000000089407","1360 x 768","1360 x 768","true","1","10","","","","",""
"null","<p style=""font-size: 80px;"">+ 10 points</p>","null","html-keyboard-response","20","163354","0.0-7.0-2.19","5badf5bd0a2d4400010c683e","r55oor","OR","28","M","{""name"":""Chrome"",""chrome"":true,""version"":""106.0"",""blink"":true,""windows"":true,""osname"":""Windows"",""osversion"":""10"",""a"":true}","9:20:7","0","1","Practice_3","70","f","1","1814.5","1360 x 768","1360 x 768","true","1","10","","","","",""
"null","<p style=""font-size: 80px;"">+ 0 points</p>","null","html-keyboard-response","21","166485","0.0-7.0-2.20","5badf5bd0a2d4400010c683e","r55oor","OR","28","M","{""name"":""Chrome"",""chrome"":true,""version"":""106.0"",""blink"":true,""windows"":true,""osname"":""Windows"",""osversion"":""10"",""a"":true}","9:20:7","0","2","Practice_3","70","j","0","1100.9000000059605","1360 x 768","1360 x 768","true","1","0","","","","",""
"null","<p style=""font-size: 80px;"">+ 0 points</p>","null","html-keyboard-response","22","169885","0.0-7.0-2.21","5badf5bd0a2d4400010c683e","r55oor","OR","28","M","{""name"":""Chrome"",""chrome"":true,""version"":""106.0"",""blink"":true,""windows"":true,""osname"":""Windows"",""osversion"":""10"",""a"":true}","9:20:7","0","2","Practice_4","74","f","0","1369.0999999940395","1360 x 768","1360 x 768","true","1","0","","","","",""
"null","<p style=""font-size: 80px;"">+ 10 points</p>","null","html-keyboard-response","23","172635","0.0-7.0-2.22","5badf5bd0a2d4400010c683e","r55oor","OR","28","M","{""name"":""Chrome"",""chrome"":true,""version"":""106.0"",""blink"":true,""windows"":true,""osname"":""Windows"",""osversion"":""10"",""a"":true}","9:20:7","0","2","Practice_4","70","f","1","713.9000000059605","1360 x 768","1360 x 768","true","1","10","","","","",""
"null","<p style=""font-size: 80px;"">+ 10 points</p>","null","html-keyboard-response","24","175968","0.0-7.0-2.23","5badf5bd0a2d4400010c683e","r55oor","OR","28","M","{""name"":""Chrome"",""chrome"":true,""version"":""106.0"",""blink"":true,""windows"":true,""osname"":""Windows"",""osversion"":""10"",""a"":true}","9:20:7","0","2","Practice_1","74","j","1","1305.2000000029802","1360 x 768","1360 x 768","true","1","10","","","","",""
"null","<p style=""font-size: 80px;"">+ 10 points</p>","null","html-keyboard-response","25","178784","0.0-7.0-2.24","5badf5bd0a2d4400010c683e","r55oor","OR","28","M","{""name"":""Chrome"",""chrome"":true,""version"":""106.0"",""blink"":true,""windows"":true,""osname"":""Windows"",""osversion"":""10"",""a"":true}","9:20:7","0","2","Practice_1","74","j","1","784.5","1360 x 768","1360 x 768","true","1","10","","","","",""
"null","<p style=""font-size: 80px;"">+ 10 points</p>","null","html-keyboard-response","26","181951","0.0-7.0-2.25","5badf5bd0a2d4400010c683e","r55oor","OR","28","M","{""name"":""Chrome"",""chrome"":true,""version"":""106.0"",""blink"":true,""windows"":true,""osname"":""Windows"",""osversion"":""10"",""a"":true}","9:20:7","0","2","Practice_2","70","f","1","1142.1000000089407","1360 x 768","1360 x 768","true","1","10","","","","",""
"null","<p style=""font-size: 80px;"">+ 10 points</p>","null","html-keyboard-response","27","184881","0.0-7.0-2.26","5badf5bd0a2d4400010c683e","r55oor","OR","28","M","{""name"":""Chrome"",""chrome"":true,""version"":""106.0"",""blink"":true,""windows"":true,""osname"":""Windows"",""osversion"":""10"",""a"":true}","9:20:7","0","2","Practice_2","70","f","1","894.9000000059605","1360 x 768","1360 x 768","true","1","10","","","","",""
"null","<p style=""font-size: 80px;"">+ 10 points</p>","null","html-keyboard-response","28","187898","0.0-7.0-2.27","5badf5bd0a2d4400010c683e","r55oor","OR","28","M","{""name"":""Chrome"",""chrome"":true,""version"":""106.0"",""blink"":true,""windows"":true,""osname"":""Windows"",""osversion"":""10"",""a"":true}","9:20:7","0","2","Practice_2","70","f","1","981.7000000029802","1360 x 768","1360 x 768","true","1","10","","","","",""
"null","<p style=""font-size: 80px;"">+ 10 points</p>","null","html-keyboard-response","29","190814","0.0-7.0-2.28","5badf5bd0a2d4400010c683e","r55oor","OR","28","M","{""name"":""Chrome"",""chrome"":true,""version"":""106.0"",""blink"":true,""windows"":true,""osname"":""Windows"",""osversion"":""10"",""a"":true}","9:20:7","0","2","Practice_2","70","f","1","882.0999999940395","1360 x 768","1360 x 768","true","1","10","","","","",""
"null","<p style=""font-size: 80px;"">+ 10 points</p>","null","html-keyboard-response","30","193513","0.0-7.0-2.29","5badf5bd0a2d4400010c683e","r55oor","OR","28","M","{""name"":""Chrome"",""chrome"":true,""version"":""106.0"",""blink"":true,""windows"":true,""osname"":""Windows"",""osversion"":""10"",""a"":true}","9:20:7","0","2","Practice_1","74","j","1","678","1360 x 768","1360 x 768","true","1","10","","","","",""
"null","<p style=""font-size: 80px;"">+ 10 points</p>","null","html-keyboard-response","31","196881","0.0-7.0-2.30","5badf5bd0a2d4400010c683e","r55oor","OR","28","M","{""name"":""Chrome"",""chrome"":true,""version"":""106.0"",""blink"":true,""windows"":true,""osname"":""Windows"",""osversion"":""10"",""a"":true}","9:20:7","0","2","Practice_3","74","j","1","1337.6000000089407","1360 x 768","1360 x 768","true","1","10","","","","",""
"null","<p style=""font-size: 80px;"">+ 10 points</p>","null","html-keyboard-response","32","199878","0.0-7.0-2.31","5badf5bd0a2d4400010c683e","r55oor","OR","28","M","{""name"":""Chrome"",""chrome"":true,""version"":""106.0"",""blink"":true,""windows"":true,""osname"":""Windows"",""osversion"":""10"",""a"":true}","9:20:7","0","2","Practice_4","70","f","1","972","1360 x 768","1360 x 768","true","1","10","","","","",""
"null","<p style=""font-size: 80px;"">+ 10 points</p>","null","html-keyboard-response","33","203359","0.0-7.0-2.32","5badf5bd0a2d4400010c683e","r55oor","OR","28","M","{""name"":""Chrome"",""chrome"":true,""version"":""106.0"",""blink"":true,""windows"":true,""osname"":""Windows"",""osversion"":""10"",""a"":true}","9:20:7","0","2","Practice_1","74","j","1","1451.7000000029802","1360 x 768","1360 x 768","true","1","10","","","","",""
"null","<p style=""font-size: 80px;"">+ 10 points</p>","null","html-keyboard-response","34","206228","0.0-7.0-2.33","5badf5bd0a2d4400010c683e","r55oor","OR","28","M","{""name"":""Chrome"",""chrome"":true,""version"":""106.0"",""blink"":true,""windows"":true,""osname"":""Windows"",""osversion"":""10"",""a"":true}","9:20:7","0","2","Practice_1","74","j","1","835.6000000089407","1360 x 768","1360 x 768","true","1","10","","","","",""
"null","<p style=""font-size: 80px;"">+ 0 points</p>","null","html-keyboard-response","35","209027","0.0-7.0-2.34","5badf5bd0a2d4400010c683e","r55oor","OR","28","M","{""name"":""Chrome"",""chrome"":true,""version"":""106.0"",""blink"":true,""windows"":true,""osname"":""Windows"",""osversion"":""10"",""a"":true}","9:20:7","0","2","Practice_3","70","j","0","782.8000000119209","1360 x 768","1360 x 768","true","1","0","","","","",""
"null","<p style=""font-size: 80px;"">+ 10 points</p>","null","html-keyboard-response","36","211927","0.0-7.0-2.35","5badf5bd0a2d4400010c683e","r55oor","OR","28","M","{""name"":""Chrome"",""chrome"":true,""version"":""106.0"",""blink"":true,""windows"":true,""osname"":""Windows"",""osversion"":""10"",""a"":true}","9:20:7","0","2","Practice_3","74","j","1","866.3999999910593","1360 x 768","1360 x 768","true","1","10","","","","",""
"null","<p style=""font-size: 80px;"">+ 10 points</p>","null","html-keyboard-response","37","214941","0.0-7.0-2.36","5badf5bd0a2d4400010c683e","r55oor","OR","28","M","{""name"":""Chrome"",""chrome"":true,""version"":""106.0"",""blink"":true,""windows"":true,""osname"":""Windows"",""osversion"":""10"",""a"":true}","9:20:7","0","2","Practice_3","74","j","1","979.0999999940395","1360 x 768","1360 x 768","true","1","10","","","","",""
"null","<p style=""font-size: 80px;"">+ 0 points</p>","null","html-keyboard-response","38","217824","0.0-7.0-2.37","5badf5bd0a2d4400010c683e","r55oor","OR","28","M","{""name"":""Chrome"",""chrome"":true,""version"":""106.0"",""blink"":true,""windows"":true,""osname"":""Windows"",""osversion"":""10"",""a"":true}","9:20:7","0","2","Practice_2","74","f","0","850.5999999940395","1360 x 768","1360 x 768","true","1","0","","","","",""
"null","<p style=""font-size: 80px;"">+ 10 points</p>","null","html-keyboard-response","39","221724","0.0-7.0-2.38","5badf5bd0a2d4400010c683e","r55oor","OR","28","M","{""name"":""Chrome"",""chrome"":true,""version"":""106.0"",""blink"":true,""windows"":true,""osname"":""Windows"",""osversion"":""10"",""a"":true}","9:20:7","0","2","Practice_4","70","f","1","1865.0999999940395","1360 x 768","1360 x 768","true","1","10","","","","",""
"null","<p style=""font-size: 80px;"">+ 10 points</p>","null","html-keyboard-response","40","225454","0.0-7.0-2.39","5badf5bd0a2d4400010c683e","r55oor","OR","28","M","{""name"":""Chrome"",""chrome"":true,""version"":""106.0"",""blink"":true,""windows"":true,""osname"":""Windows"",""osversion"":""10"",""a"":true}","9:20:7","0","2","Practice_4","70","f","1","1713.7000000029802","1360 x 768","1360 x 768","true","1","10","","","","",""
"7052.100000008941","","","survey-multi-choice","127","232514","0.0-8.0","5badf5bd0a2d4400010c683e","r55oor","OR","28","M","{""name"":""Chrome"",""chrome"":true,""version"":""106.0"",""blink"":true,""windows"":true,""osname"":""Windows"",""osversion"":""10"",""a"":true}","9:20:7","","","","","","","","","","","1","","{""Q0"":""The red one"",""Q1"":""1""}","[0,1]","1","The red one","2"
"null","<p style=""font-size: 80px;"">+ 10 points</p>","null","html-keyboard-response","1","255201","0.0-11.0-2.0","5badf5bd0a2d4400010c683e","r55oor","OR","28","M","{""name"":""Chrome"",""chrome"":true,""version"":""106.0"",""blink"":true,""windows"":true,""osname"":""Windows"",""osversion"":""10"",""a"":true}","9:20:7","1","4","Test_1","74","j","1","1267.2999999970198","1360 x 768","1360 x 768","true","1","10","","","","",""
"null","<p style=""font-size: 80px;"">+ 10 points</p>","null","html-keyboard-response","2","258820","0.0-11.0-2.1","5badf5bd0a2d4400010c683e","r55oor","OR","28","M","{""name"":""Chrome"",""chrome"":true,""version"":""106.0"",""blink"":true,""windows"":true,""osname"":""Windows"",""osversion"":""10"",""a"":true}","9:20:7","1","4","Test_3","74","j","1","1565.5999999940395","1360 x 768","1360 x 768","true","1","10","","","","",""
"null","<p style=""font-size: 80px;"">+ 10 points</p>","null","html-keyboard-response","3","262395","0.0-11.0-2.2","5badf5bd0a2d4400010c683e","r55oor","OR","28","M","{""name"":""Chrome"",""chrome"":true,""version"":""106.0"",""blink"":true,""windows"":true,""osname"":""Windows"",""osversion"":""10"",""a"":true}","9:20:7","1","4","Test_4","70","f","1","1548.6000000089407","1360 x 768","1360 x 768","true","1","10","","","","",""
"null","<p style=""font-size: 80px;"">+ 10 points</p>","null","html-keyboard-response","4","265710","0.0-11.0-2.3","5badf5bd0a2d4400010c683e","r55oor","OR","28","M","{""name"":""Chrome"",""chrome"":true,""version"":""106.0"",""blink"":true,""windows"":true,""osname"":""Windows"",""osversion"":""10"",""a"":true}","9:20:7","1","4","Test_1","74","j","1","1280.7999999970198","1360 x 768","1360 x 768","true","1","10","","","","",""
"null","<p style=""font-size: 80px;"">+ 10 points</p>","null","html-keyboard-response","5","268693","0.0-11.0-2.4","5badf5bd0a2d4400010c683e","r55oor","OR","28","M","{""name"":""Chrome"",""chrome"":true,""version"":""106.0"",""blink"":true,""windows"":true,""osname"":""Windows"",""osversion"":""10"",""a"":true}","9:20:7","1","4","Test_3","74","j","1","946","1360 x 768","1360 x 768","true","1","10","","","","",""
"null","<p style=""font-size: 80px;"">+ 10 points</p>","null","html-keyboard-response","6","271627","0.0-11.0-2.5","5badf5bd0a2d4400010c683e","r55oor","OR","28","M","{""name"":""Chrome"",""chrome"":true,""version"":""106.0"",""blink"":true,""windows"":true,""osname"":""Windows"",""osversion"":""10"",""a"":true}","9:20:7","1","4","Test_4","70","f","1","898.2999999970198","1360 x 768","1360 x 768","true","1","10","","","","",""
"null","<p style=""font-size: 80px;"">+ 10 points</p>","null","html-keyboard-response","7","274593","0.0-11.0-2.6","5badf5bd0a2d4400010c683e","r55oor","OR","28","M","{""name"":""Chrome"",""chrome"":true,""version"":""106.0"",""blink"":true,""windows"":true,""osname"":""Windows"",""osversion"":""10"",""a"":true}","9:20:7","1","4","Test_3","74","j","1","931.5","1360 x 768","1360 x 768","true","1","10","","","","",""
"null","<p style=""font-size: 80px;"">+ 10 points</p>","null","html-keyboard-response","8","277423","0.0-11.0-2.7","5badf5bd0a2d4400010c683e","r55oor","OR","28","M","{""name"":""Chrome"",""chrome"":true,""version"":""106.0"",""blink"":true,""windows"":true,""osname"":""Windows"",""osversion"":""10"",""a"":true}","9:20:7","1","4","Test_1","74","j","1","799.8999999910593","1360 x 768","1360 x 768","true","1","10","","","","",""
"null","<p style=""font-size: 80px;"">+ 10 points</p>","null","html-keyboard-response","9","280825","0.0-11.0-2.8","5badf5bd0a2d4400010c683e","r55oor","OR","28","M","{""name"":""Chrome"",""chrome"":true,""version"":""106.0"",""blink"":true,""windows"":true,""osname"":""Windows"",""osversion"":""10"",""a"":true}","9:20:7","1","4","Test_4","70","f","1","1366.8999999910593","1360 x 768","1360 x 768","true","1","10","","","","",""
"null","<p style=""font-size: 80px;"">+ 10 points</p>","null","html-keyboard-response","10","283808","0.0-11.0-2.9","5badf5bd0a2d4400010c683e","r55oor","OR","28","M","{""name"":""Chrome"",""chrome"":true,""version"":""106.0"",""blink"":true,""windows"":true,""osname"":""Windows"",""osversion"":""10"",""a"":true}","9:20:7","1","4","Test_1","74","j","1","952.2000000029802","1360 x 768","1360 x 768","true","1","10","","","","",""
"null","<p style=""font-size: 80px;"">+ 10 points</p>","null","html-keyboard-response","11","287755","0.0-11.0-2.10","5badf5bd0a2d4400010c683e","r55oor","OR","28","M","{""name"":""Chrome"",""chrome"":true,""version"":""106.0"",""blink"":true,""windows"":true,""osname"":""Windows"",""osversion"":""10"",""a"":true}","9:20:7","1","4","Test_2","70","f","1","1925.7999999970198","1360 x 768","1360 x 768","true","1","10","","","","",""
"null","<p style=""font-size: 80px;"">+ 10 points</p>","null","html-keyboard-response","12","290788","0.0-11.0-2.11","5badf5bd0a2d4400010c683e","r55oor","OR","28","M","{""name"":""Chrome"",""chrome"":true,""version"":""106.0"",""blink"":true,""windows"":true,""osname"":""Windows"",""osversion"":""10"",""a"":true}","9:20:7","1","4","Test_4","70","f","1","1002","1360 x 768","1360 x 768","true","1","10","","","","",""
"null","<p style=""font-size: 80px;"">+ 10 points</p>","null","html-keyboard-response","13","293421","0.0-11.0-2.12","5badf5bd0a2d4400010c683e","r55oor","OR","28","M","{""name"":""Chrome"",""chrome"":true,""version"":""106.0"",""blink"":true,""windows"":true,""osname"":""Windows"",""osversion"":""10"",""a"":true}","9:20:7","1","4","Test_2","70","f","1","601.5","1360 x 768","1360 x 768","true","1","10","","","","",""
"null","<p style=""font-size: 80px;"">+ 10 points</p>","null","html-keyboard-response","14","296737","0.0-11.0-2.13","5badf5bd0a2d4400010c683e","r55oor","OR","28","M","{""name"":""Chrome"",""chrome"":true,""version"":""106.0"",""blink"":true,""windows"":true,""osname"":""Windows"",""osversion"":""10"",""a"":true}","9:20:7","1","4","Test_2","70","f","1","1280","1360 x 768","1360 x 768","true","1","10","","","","",""
"null","<p style=""font-size: 80px;"">+ 10 points</p>","null","html-keyboard-response","15","299418","0.0-11.0-2.14","5badf5bd0a2d4400010c683e","r55oor","OR","28","M","{""name"":""Chrome"",""chrome"":true,""version"":""106.0"",""blink"":true,""windows"":true,""osname"":""Windows"",""osversion"":""10"",""a"":true}","9:20:7","1","4","Test_3","74","j","1","654.7999999970198","1360 x 768","1360 x 768","true","1","10","","","","",""
"null","<p style=""font-size: 80px;"">+ 0 points</p>","null","html-keyboard-response","16","302252","0.0-11.0-2.15","5badf5bd0a2d4400010c683e","r55oor","OR","28","M","{""name"":""Chrome"",""chrome"":true,""version"":""106.0"",""blink"":true,""windows"":true,""osname"":""Windows"",""osversion"":""10"",""a"":true}","9:20:7","1","3","Test_4","70","j","0","800.5","1360 x 768","1360 x 768","true","1","0","","","","",""
"null","<p style=""font-size: 80px;"">+ 10 points</p>","null","html-keyboard-response","17","305400","0.0-11.0-2.16","5badf5bd0a2d4400010c683e","r55oor","OR","28","M","{""name"":""Chrome"",""chrome"":true,""version"":""106.0"",""blink"":true,""windows"":true,""osname"":""Windows"",""osversion"":""10"",""a"":true}","9:20:7","1","3","Test_3","70","f","1","1112.6000000089407","1360 x 768","1360 x 768","true","1","10","","","","",""
"null","<p style=""font-size: 80px;"">+ 10 points</p>","null","html-keyboard-response","18","308001","0.0-11.0-2.17","5badf5bd0a2d4400010c683e","r55oor","OR","28","M","{""name"":""Chrome"",""chrome"":true,""version"":""106.0"",""blink"":true,""windows"":true,""osname"":""Windows"",""osversion"":""10"",""a"":true}","9:20:7","1","3","Test_4","74","j","1","570.8999999910593","1360 x 768","1360 x 768","true","1","10","","","","",""
"null","<p style=""font-size: 80px;"">+ 10 points</p>","null","html-keyboard-response","19","310618","0.0-11.0-2.18","5badf5bd0a2d4400010c683e","r55oor","OR","28","M","{""name"":""Chrome"",""chrome"":true,""version"":""106.0"",""blink"":true,""windows"":true,""osname"":""Windows"",""osversion"":""10"",""a"":true}","9:20:7","1","3","Test_3","70","f","1","587.3999999910593","1360 x 768","1360 x 768","true","1","10","","","","",""
"null","<p style=""font-size: 80px;"">+ 10 points</p>","null","html-keyboard-response","20","313967","0.0-11.0-2.19","5badf5bd0a2d4400010c683e","r55oor","OR","28","M","{""name"":""Chrome"",""chrome"":true,""version"":""106.0"",""blink"":true,""windows"":true,""osname"":""Windows"",""osversion"":""10"",""a"":true}","9:20:7","1","3","Test_2","74","j","1","1323.4000000059605","1360 x 768","1360 x 768","true","1","10","","","","",""
"null","<p style=""font-size: 80px;"">+ 10 points</p>","null","html-keyboard-response","21","316584","0.0-11.0-2.20","5badf5bd0a2d4400010c683e","r55oor","OR","28","M","{""name"":""Chrome"",""chrome"":true,""version"":""106.0"",""blink"":true,""windows"":true,""osname"":""Windows"",""osversion"":""10"",""a"":true}","9:20:7","1","3","Test_4","74","j","1","583.1000000089407","1360 x 768","1360 x 768","true","1","10","","","","",""
"null","<p style=""font-size: 80px;"">+ 10 points</p>","null","html-keyboard-response","22","319263","0.0-11.0-2.21","5badf5bd0a2d4400010c683e","r55oor","OR","28","M","{""name"":""Chrome"",""chrome"":true,""version"":""106.0"",""blink"":true,""windows"":true,""osname"":""Windows"",""osversion"":""10"",""a"":true}","9:20:7","1","3","Test_3","70","f","1","652.0999999940395","1360 x 768","1360 x 768","true","1","10","","","","",""
"null","<p style=""font-size: 80px;"">+ 10 points</p>","null","html-keyboard-response","23","321846","0.0-11.0-2.22","5badf5bd0a2d4400010c683e","r55oor","OR","28","M","{""name"":""Chrome"",""chrome"":true,""version"":""106.0"",""blink"":true,""windows"":true,""osname"":""Windows"",""osversion"":""10"",""a"":true}","9:20:7","1","3","Test_1","70","f","1","548.7999999970198","1360 x 768","1360 x 768","true","1","10","","","","",""
"null","<p style=""font-size: 80px;"">+ 10 points</p>","null","html-keyboard-response","24","324666","0.0-11.0-2.23","5badf5bd0a2d4400010c683e","r55oor","OR","28","M","{""name"":""Chrome"",""chrome"":true,""version"":""106.0"",""blink"":true,""windows"":true,""osname"":""Windows"",""osversion"":""10"",""a"":true}","9:20:7","1","3","Test_4","74","j","1","788.7000000029802","1360 x 768","1360 x 768","true","1","10","","","","",""
"null","<p style=""font-size: 80px;"">+ 10 points</p>","null","html-keyboard-response","25","327528","0.0-11.0-2.24","5badf5bd0a2d4400010c683e","r55oor","OR","28","M","{""name"":""Chrome"",""chrome"":true,""version"":""106.0"",""blink"":true,""windows"":true,""osname"":""Windows"",""osversion"":""10"",""a"":true}","9:20:7","1","3","Test_2","74","j","1","828.1000000089407","1360 x 768","1360 x 768","true","1","10","","","","",""
"null","<p style=""font-size: 80px;"">+ 10 points</p>","null","html-keyboard-response","26","330344","0.0-11.0-2.25","5badf5bd0a2d4400010c683e","r55oor","OR","28","M","{""name"":""Chrome"",""chrome"":true,""version"":""106.0"",""blink"":true,""windows"":true,""osname"":""Windows"",""osversion"":""10"",""a"":true}","9:20:7","1","3","Test_2","74","j","1","784.0999999940395","1360 x 768","1360 x 768","true","1","10","","","","",""
"null","<p style=""font-size: 80px;"">+ 0 points</p>","null","html-keyboard-response","27","332962","0.0-11.0-2.26","5badf5bd0a2d4400010c683e","r55oor","OR","28","M","{""name"":""Chrome"",""chrome"":true,""version"":""106.0"",""blink"":true,""windows"":true,""osname"":""Windows"",""osversion"":""10"",""a"":true}","9:20:7","1","3","Test_3","74","f","0","586.7999999970198","1360 x 768","1360 x 768","true","1","0","","","","",""
"null","<p style=""font-size: 80px;"">+ 10 points</p>","null","html-keyboard-response","28","335960","0.0-11.0-2.27","5badf5bd0a2d4400010c683e","r55oor","OR","28","M","{""name"":""Chrome"",""chrome"":true,""version"":""106.0"",""blink"":true,""windows"":true,""osname"":""Windows"",""osversion"":""10"",""a"":true}","9:20:7","1","3","Test_1","70","f","1","966.4000000059605","1360 x 768","1360 x 768","true","1","10","","","","",""
"null","<p style=""font-size: 80px;"">+ 10 points</p>","null","html-keyboard-response","29","338752","0.0-11.0-2.28","5badf5bd0a2d4400010c683e","r55oor","OR","28","M","{""name"":""Chrome"",""chrome"":true,""version"":""106.0"",""blink"":true,""windows"":true,""osname"":""Windows"",""osversion"":""10"",""a"":true}","9:20:7","1","3","Test_1","70","f","1","758.7000000029802","1360 x 768","1360 x 768","true","1","10","","","","",""
"null","<p style=""font-size: 80px;"">+ 10 points</p>","null","html-keyboard-response","30","341660","0.0-11.0-2.29","5badf5bd0a2d4400010c683e","r55oor","OR","28","M","{""name"":""Chrome"",""chrome"":true,""version"":""106.0"",""blink"":true,""windows"":true,""osname"":""Windows"",""osversion"":""10"",""a"":true}","9:20:7","1","3","Test_3","70","f","1","885.8000000119209","1360 x 768","1360 x 768","true","1","10","","","","",""
"null","<p style=""font-size: 80px;"">+ 10 points</p>","null","html-keyboard-response","31","344842","0.0-11.0-2.30","5badf5bd0a2d4400010c683e","r55oor","OR","28","M","{""name"":""Chrome"",""chrome"":true,""version"":""106.0"",""blink"":true,""windows"":true,""osname"":""Windows"",""osversion"":""10"",""a"":true}","9:20:7","1","3","Test_1","70","f","1","1159.3999999910593","1360 x 768","1360 x 768","true","1","10","","","","",""
"null","<p style=""font-size: 80px;"">+ 10 points</p>","null","html-keyboard-response","32","347390","0.0-11.0-2.31","5badf5bd0a2d4400010c683e","r55oor","OR","28","M","{""name"":""Chrome"",""chrome"":true,""version"":""106.0"",""blink"":true,""windows"":true,""osname"":""Windows"",""osversion"":""10"",""a"":true}","9:20:7","1","3","Test_2","74","j","1","517.6999999880791","1360 x 768","1360 x 768","true","1","10","","","","",""
"null","<p style=""font-size: 80px;"">+ 10 points</p>","null","html-keyboard-response","33","350459","0.0-11.0-2.32","5badf5bd0a2d4400010c683e","r55oor","OR","28","M","{""name"":""Chrome"",""chrome"":true,""version"":""106.0"",""blink"":true,""windows"":true,""osname"":""Windows"",""osversion"":""10"",""a"":true}","9:20:7","1","3","Test_4","74","j","1","1040.5","1360 x 768","1360 x 768","true","1","10","","","","",""
"null","<p style=""font-size: 80px;"">+ 10 points</p>","null","html-keyboard-response","34","353556","0.0-11.0-2.33","5badf5bd0a2d4400010c683e","r55oor","OR","28","M","{""name"":""Chrome"",""chrome"":true,""version"":""106.0"",""blink"":true,""windows"":true,""osname"":""Windows"",""osversion"":""10"",""a"":true}","9:20:7","1","3","Test_4","74","j","1","1062","1360 x 768","1360 x 768","true","1","10","","","","",""
"null","<p style=""font-size: 80px;"">+ 10 points</p>","null","html-keyboard-response","35","356824","0.0-11.0-2.34","5badf5bd0a2d4400010c683e","r55oor","OR","28","M","{""name"":""Chrome"",""chrome"":true,""version"":""106.0"",""blink"":true,""windows"":true,""osname"":""Windows"",""osversion"":""10"",""a"":true}","9:20:7","1","3","Test_1","70","f","1","1241.5999999940395","1360 x 768","1360 x 768","true","1","10","","","","",""
"null","<p style=""font-size: 80px;"">+ 10 points</p>","null","html-keyboard-response","36","359438","0.0-11.0-2.35","5badf5bd0a2d4400010c683e","r55oor","OR","28","M","{""name"":""Chrome"",""chrome"":true,""version"":""106.0"",""blink"":true,""windows"":true,""osname"":""Windows"",""osversion"":""10"",""a"":true}","9:20:7","1","3","Test_3","70","f","1","590.6999999880791","1360 x 768","1360 x 768","true","1","10","","","","",""
"null","<p style=""font-size: 80px;"">+ 10 points</p>","null","html-keyboard-response","37","363103","0.0-11.0-2.36","5badf5bd0a2d4400010c683e","r55oor","OR","28","M","{""name"":""Chrome"",""chrome"":true,""version"":""106.0"",""blink"":true,""windows"":true,""osname"":""Windows"",""osversion"":""10"",""a"":true}","9:20:7","1","3","Test_2","74","j","1","1631.8999999910593","1360 x 768","1360 x 768","true","1","10","","","","",""
"null","<p style=""font-size: 80px;"">+ 0 points</p>","null","html-keyboard-response","38","365672","0.0-11.0-2.37","5badf5bd0a2d4400010c683e","r55oor","OR","28","M","{""name"":""Chrome"",""chrome"":true,""version"":""106.0"",""blink"":true,""windows"":true,""osname"":""Windows"",""osversion"":""10"",""a"":true}","9:20:7","1","4","Test_1","70","j","0","539.7000000029802","1360 x 768","1360 x 768","true","1","0","","","","",""
"null","<p style=""font-size: 80px;"">+ 10 points</p>","null","html-keyboard-response","39","368286","0.0-11.0-2.38","5badf5bd0a2d4400010c683e","r55oor","OR","28","M","{""name"":""Chrome"",""chrome"":true,""version"":""106.0"",""blink"":true,""windows"":true,""osname"":""Windows"",""osversion"":""10"",""a"":true}","9:20:7","1","4","Test_3","74","j","1","576.6000000089407","1360 x 768","1360 x 768","true","1","10","","","","",""
"null","<p style=""font-size: 80px;"">+ 10 points</p>","null","html-keyboard-response","40","370852","0.0-11.0-2.39","5badf5bd0a2d4400010c683e","r55oor","OR","28","M","{""name"":""Chrome"",""chrome"":true,""version"":""106.0"",""blink"":true,""windows"":true,""osname"":""Windows"",""osversion"":""10"",""a"":true}","9:20:7","1","4","Test_1","74","j","1","540.9000000059605","1360 x 768","1360 x 768","true","1","10","","","","",""
"null","<p style=""font-size: 80px;"">+ 10 points</p>","null","html-keyboard-response","41","374018","0.0-11.0-2.40","5badf5bd0a2d4400010c683e","r55oor","OR","28","M","{""name"":""Chrome"",""chrome"":true,""version"":""106.0"",""blink"":true,""windows"":true,""osname"":""Windows"",""osversion"":""10"",""a"":true}","9:20:7","1","4","Test_2","70","f","1","1127.3999999910593","1360 x 768","1360 x 768","true","1","10","","","","",""
"null","<p style=""font-size: 80px;"">+ 10 points</p>","null","html-keyboard-response","42","376700","0.0-11.0-2.41","5badf5bd0a2d4400010c683e","r55oor","OR","28","M","{""name"":""Chrome"",""chrome"":true,""version"":""106.0"",""blink"":true,""windows"":true,""osname"":""Windows"",""osversion"":""10"",""a"":true}","9:20:7","1","4","Test_1","74","j","1","641.9000000059605","1360 x 768","1360 x 768","true","1","10","","","","",""
"null","<p style=""font-size: 80px;"">+ 10 points</p>","null","html-keyboard-response","43","379966","0.0-11.0-2.42","5badf5bd0a2d4400010c683e","r55oor","OR","28","M","{""name"":""Chrome"",""chrome"":true,""version"":""106.0"",""blink"":true,""windows"":true,""osname"":""Windows"",""osversion"":""10"",""a"":true}","9:20:7","1","4","Test_2","70","f","1","1230.7999999970198","1360 x 768","1360 x 768","true","1","10","","","","",""
"null","<p style=""font-size: 80px;"">+ 0 points</p>","null","html-keyboard-response","44","382734","0.0-11.0-2.43","5badf5bd0a2d4400010c683e","r55oor","OR","28","M","{""name"":""Chrome"",""chrome"":true,""version"":""106.0"",""blink"":true,""windows"":true,""osname"":""Windows"",""osversion"":""10"",""a"":true}","9:20:7","1","4","Test_4","74","f","0","739.3000000119209","1360 x 768","1360 x 768","true","1","0","","","","",""
"null","<p style=""font-size: 80px;"">+ 10 points</p>","null","html-keyboard-response","45","385780","0.0-11.0-2.44","5badf5bd0a2d4400010c683e","r55oor","OR","28","M","{""name"":""Chrome"",""chrome"":true,""version"":""106.0"",""blink"":true,""windows"":true,""osname"":""Windows"",""osversion"":""10"",""a"":true}","9:20:7","1","4","Test_3","74","j","1","1015.6000000089407","1360 x 768","1360 x 768","true","1","10","","","","",""
"null","<p style=""font-size: 80px;"">+ 10 points</p>","null","html-keyboard-response","46","389032","0.0-11.0-2.45","5badf5bd0a2d4400010c683e","r55oor","OR","28","M","{""name"":""Chrome"",""chrome"":true,""version"":""106.0"",""blink"":true,""windows"":true,""osname"":""Windows"",""osversion"":""10"",""a"":true}","9:20:7","1","4","Test_2","70","f","1","1221.7000000029802","1360 x 768","1360 x 768","true","1","10","","","","",""
"null","<p style=""font-size: 80px;"">+ 10 points</p>","null","html-keyboard-response","47","392031","0.0-11.0-2.46","5badf5bd0a2d4400010c683e","r55oor","OR","28","M","{""name"":""Chrome"",""chrome"":true,""version"":""106.0"",""blink"":true,""windows"":true,""osname"":""Windows"",""osversion"":""10"",""a"":true}","9:20:7","1","4","Test_2","70","f","1","939.2000000029802","1360 x 768","1360 x 768","true","1","10","","","","",""
"null","<p style=""font-size: 80px;"">+ 10 points</p>","null","html-keyboard-response","48","395429","0.0-11.0-2.47","5badf5bd0a2d4400010c683e","r55oor","OR","28","M","{""name"":""Chrome"",""chrome"":true,""version"":""106.0"",""blink"":true,""windows"":true,""osname"":""Windows"",""osversion"":""10"",""a"":true}","9:20:7","1","4","Test_4","70","f","1","1369.0999999940395","1360 x 768","1360 x 768","true","1","10","","","","",""
"null","<p style=""font-size: 80px;"">+ 10 points</p>","null","html-keyboard-response","49","398646","0.0-11.0-2.48","5badf5bd0a2d4400010c683e","r55oor","OR","28","M","{""name"":""Chrome"",""chrome"":true,""version"":""106.0"",""blink"":true,""windows"":true,""osname"":""Windows"",""osversion"":""10"",""a"":true}","9:20:7","1","4","Test_2","70","f","1","1181.5999999940395","1360 x 768","1360 x 768","true","1","10","","","","",""
"null","<p style=""font-size: 80px;"">+ 10 points</p>","null","html-keyboard-response","50","401993","0.0-11.0-2.49","5badf5bd0a2d4400010c683e","r55oor","OR","28","M","{""name"":""Chrome"",""chrome"":true,""version"":""106.0"",""blink"":true,""windows"":true,""osname"":""Windows"",""osversion"":""10"",""a"":true}","9:20:7","1","4","Test_4","70","f","1","1312.5999999940395","1360 x 768","1360 x 768","true","1","10","","","","",""
"null","<p style=""font-size: 80px;"">+ 10 points</p>","null","html-keyboard-response","51","405059","0.0-11.0-2.50","5badf5bd0a2d4400010c683e","r55oor","OR","28","M","{""name"":""Chrome"",""chrome"":true,""version"":""106.0"",""blink"":true,""windows"":true,""osname"":""Windows"",""osversion"":""10"",""a"":true}","9:20:7","1","4","Test_1","74","j","1","1048","1360 x 768","1360 x 768","true","1","10","","","","",""
"null","<p style=""font-size: 80px;"">+ 10 points</p>","null","html-keyboard-response","52","408077","0.0-11.0-2.51","5badf5bd0a2d4400010c683e","r55oor","OR","28","M","{""name"":""Chrome"",""chrome"":true,""version"":""106.0"",""blink"":true,""windows"":true,""osname"":""Windows"",""osversion"":""10"",""a"":true}","9:20:7","1","4","Test_1","74","j","1","987.9000000059605","1360 x 768","1360 x 768","true","1","10","","","","",""
"null","<p style=""font-size: 80px;"">+ 10 points</p>","null","html-keyboard-response","53","411657","0.0-11.0-2.52","5badf5bd0a2d4400010c683e","r55oor","OR","28","M","{""name"":""Chrome"",""chrome"":true,""version"":""106.0"",""blink"":true,""windows"":true,""osname"":""Windows"",""osversion"":""10"",""a"":true}","9:20:7","1","4","Test_3","74","j","1","1554.5999999940395","1360 x 768","1360 x 768","true","1","10","","","","",""
"null","<p style=""font-size: 80px;"">+ 10 points</p>","null","html-keyboard-response","54","414339","0.0-11.0-2.53","5badf5bd0a2d4400010c683e","r55oor","OR","28","M","{""name"":""Chrome"",""chrome"":true,""version"":""106.0"",""blink"":true,""windows"":true,""osname"":""Windows"",""osversion"":""10"",""a"":true}","9:20:7","1","4","Test_3","74","j","1","640.7999999970198","1360 x 768","1360 x 768","true","1","10","","","","",""
"null","<p style=""font-size: 80px;"">+ 0 points</p>","null","html-keyboard-response","55","416939","0.0-11.0-2.54","5badf5bd0a2d4400010c683e","r55oor","OR","28","M","{""name"":""Chrome"",""chrome"":true,""version"":""106.0"",""blink"":true,""windows"":true,""osname"":""Windows"",""osversion"":""10"",""a"":true}","9:20:7","1","3","Test_2","70","j","0","561.7999999970198","1360 x 768","1360 x 768","true","1","0","","","","",""
"null","<p style=""font-size: 80px;"">+ 0 points</p>","null","html-keyboard-response","56","419423","0.0-11.0-2.55","5badf5bd0a2d4400010c683e","r55oor","OR","28","M","{""name"":""Chrome"",""chrome"":true,""version"":""106.0"",""blink"":true,""windows"":true,""osname"":""Windows"",""osversion"":""10"",""a"":true}","9:20:7","1","3","Test_1","74","f","0","454.09999999403954","1360 x 768","1360 x 768","true","1","0","","","","",""
"null","<p style=""font-size: 80px;"">+ 0 points</p>","null","html-keyboard-response","57","422972","0.0-11.0-2.56","5badf5bd0a2d4400010c683e","r55oor","OR","28","M","{""name"":""Chrome"",""chrome"":true,""version"":""106.0"",""blink"":true,""windows"":true,""osname"":""Windows"",""osversion"":""10"",""a"":true}","9:20:7","1","3","Test_4","70","j","0","1525.5999999940395","1360 x 768","1360 x 768","true","1","0","","","","",""
"null","<p style=""font-size: 80px;"">+ 0 points</p>","null","html-keyboard-response","58","426104","0.0-11.0-2.57","5badf5bd0a2d4400010c683e","r55oor","OR","28","M","{""name"":""Chrome"",""chrome"":true,""version"":""106.0"",""blink"":true,""windows"":true,""osname"":""Windows"",""osversion"":""10"",""a"":true}","9:20:7","1","3","Test_3","74","f","0","1103.4000000059605","1360 x 768","1360 x 768","true","1","0","","","","",""
"null","<p style=""font-size: 80px;"">+ 10 points</p>","null","html-keyboard-response","59","429105","0.0-11.0-2.58","5badf5bd0a2d4400010c683e","r55oor","OR","28","M","{""name"":""Chrome"",""chrome"":true,""version"":""106.0"",""blink"":true,""windows"":true,""osname"":""Windows"",""osversion"":""10"",""a"":true}","9:20:7","1","3","Test_2","74","j","1","967.0999999940395","1360 x 768","1360 x 768","true","1","10","","","","",""
"null","<p style=""font-size: 80px;"">+ 10 points</p>","null","html-keyboard-response","60","432588","0.0-11.0-2.59","5badf5bd0a2d4400010c683e","r55oor","OR","28","M","{""name"":""Chrome"",""chrome"":true,""version"":""106.0"",""blink"":true,""windows"":true,""osname"":""Windows"",""osversion"":""10"",""a"":true}","9:20:7","1","3","Test_3","70","f","1","1451.2999999970198","1360 x 768","1360 x 768","true","1","10","","","","",""
"null","<p style=""font-size: 80px;"">+ 0 points</p>","null","html-keyboard-response","61","435200","0.0-11.0-2.60","5badf5bd0a2d4400010c683e","r55oor","OR","28","M","{""name"":""Chrome"",""chrome"":true,""version"":""106.0"",""blink"":true,""windows"":true,""osname"":""Windows"",""osversion"":""10"",""a"":true}","9:20:7","1","3","Test_4","70","j","0","578.9000000059605","1360 x 768","1360 x 768","true","1","0","","","","",""
"null","<p style=""font-size: 80px;"">+ 10 points</p>","null","html-keyboard-response","62","438049","0.0-11.0-2.61","5badf5bd0a2d4400010c683e","r55oor","OR","28","M","{""name"":""Chrome"",""chrome"":true,""version"":""106.0"",""blink"":true,""windows"":true,""osname"":""Windows"",""osversion"":""10"",""a"":true}","9:20:7","1","3","Test_1","70","f","1","811.5999999940395","1360 x 768","1360 x 768","true","1","10","","","","",""
"null","<p style=""font-size: 80px;"">+ 10 points</p>","null","html-keyboard-response","63","441132","0.0-11.0-2.62","5badf5bd0a2d4400010c683e","r55oor","OR","28","M","{""name"":""Chrome"",""chrome"":true,""version"":""106.0"",""blink"":true,""windows"":true,""osname"":""Windows"",""osversion"":""10"",""a"":true}","9:20:7","1","3","Test_1","70","f","1","1044.6000000089407","1360 x 768","1360 x 768","true","1","10","","","","",""
"null","<p style=""font-size: 80px;"">+ 10 points</p>","null","html-keyboard-response","64","444095","0.0-11.0-2.63","5badf5bd0a2d4400010c683e","r55oor","OR","28","M","{""name"":""Chrome"",""chrome"":true,""version"":""106.0"",""blink"":true,""windows"":true,""osname"":""Windows"",""osversion"":""10"",""a"":true}","9:20:7","1","3","Test_2","74","j","1","933","1360 x 768","1360 x 768","true","1","10","","","","",""
"null","<p style=""font-size: 80px;"">+ 10 points</p>","null","html-keyboard-response","65","447515","0.0-11.0-2.64","5badf5bd0a2d4400010c683e","r55oor","OR","28","M","{""name"":""Chrome"",""chrome"":true,""version"":""106.0"",""blink"":true,""windows"":true,""osname"":""Windows"",""osversion"":""10"",""a"":true}","9:20:7","1","3","Test_1","70","f","1","1377","1360 x 768","1360 x 768","true","1","10","","","","",""
"null","<p style=""font-size: 80px;"">+ 10 points</p>","null","html-keyboard-response","66","450248","0.0-11.0-2.65","5badf5bd0a2d4400010c683e","r55oor","OR","28","M","{""name"":""Chrome"",""chrome"":true,""version"":""106.0"",""blink"":true,""windows"":true,""osname"":""Windows"",""osversion"":""10"",""a"":true}","9:20:7","1","3","Test_4","74","j","1","695.2999999970198","1360 x 768","1360 x 768","true","1","10","","","","",""
"null","<p style=""font-size: 80px;"">+ 10 points</p>","null","html-keyboard-response","67","453097","0.0-11.0-2.66","5badf5bd0a2d4400010c683e","r55oor","OR","28","M","{""name"":""Chrome"",""chrome"":true,""version"":""106.0"",""blink"":true,""windows"":true,""osname"":""Windows"",""osversion"":""10"",""a"":true}","9:20:7","1","3","Test_1","70","f","1","811.5999999940395","1360 x 768","1360 x 768","true","1","10","","","","",""
"null","<p style=""font-size: 80px;"">+ 10 points</p>","null","html-keyboard-response","68","456148","0.0-11.0-2.67","5badf5bd0a2d4400010c683e","r55oor","OR","28","M","{""name"":""Chrome"",""chrome"":true,""version"":""106.0"",""blink"":true,""windows"":true,""osname"":""Windows"",""osversion"":""10"",""a"":true}","9:20:7","1","3","Test_1","70","f","1","1016","1360 x 768","1360 x 768","true","1","10","","","","",""
"null","<p style=""font-size: 80px;"">+ 0 points</p>","null","html-keyboard-response","69","459680","0.0-11.0-2.68","5badf5bd0a2d4400010c683e","r55oor","OR","28","M","{""name"":""Chrome"",""chrome"":true,""version"":""106.0"",""blink"":true,""windows"":true,""osname"":""Windows"",""osversion"":""10"",""a"":true}","9:20:7","1","3","Test_3","74","f","0","1493.3999999910593","1360 x 768","1360 x 768","true","1","0","","","","",""
"null","<p style=""font-size: 80px;"">+ 10 points</p>","null","html-keyboard-response","70","463343","0.0-11.0-2.69","5badf5bd0a2d4400010c683e","r55oor","OR","28","M","{""name"":""Chrome"",""chrome"":true,""version"":""106.0"",""blink"":true,""windows"":true,""osname"":""Windows"",""osversion"":""10"",""a"":true}","9:20:7","1","3","Test_3","70","f","1","1631.4000000059605","1360 x 768","1360 x 768","true","1","10","","","","",""
"null","<p style=""font-size: 80px;"">+ 10 points</p>","null","html-keyboard-response","71","466495","0.0-11.0-2.70","5badf5bd0a2d4400010c683e","r55oor","OR","28","M","{""name"":""Chrome"",""chrome"":true,""version"":""106.0"",""blink"":true,""windows"":true,""osname"":""Windows"",""osversion"":""10"",""a"":true}","9:20:7","1","3","Test_2","74","j","1","1119.699999988079","1360 x 768","1360 x 768","true","1","10","","","","",""
"null","<p style=""font-size: 80px;"">+ 10 points</p>","null","html-keyboard-response","72","469644","0.0-11.0-2.71","5badf5bd0a2d4400010c683e","r55oor","OR","28","M","{""name"":""Chrome"",""chrome"":true,""version"":""106.0"",""blink"":true,""windows"":true,""osname"":""Windows"",""osversion"":""10"",""a"":true}","9:20:7","1","3","Test_2","74","j","1","1121.5","1360 x 768","1360 x 768","true","1","10","","","","",""
"null","<p style=""font-size: 80px;"">+ 0 points</p>","null","html-keyboard-response","73","473309","0.0-11.0-2.72","5badf5bd0a2d4400010c683e","r55oor","OR","28","M","{""name"":""Chrome"",""chrome"":true,""version"":""106.0"",""blink"":true,""windows"":true,""osname"":""Windows"",""osversion"":""10"",""a"":true}","9:20:7","1","3","Test_4","70","j","0","1641.8999999910593","1360 x 768","1360 x 768","true","1","0","","","","",""
"null","<p style=""font-size: 80px;"">+ 10 points</p>","null","html-keyboard-response","74","476592","0.0-11.0-2.73","5badf5bd0a2d4400010c683e","r55oor","OR","28","M","{""name"":""Chrome"",""chrome"":true,""version"":""106.0"",""blink"":true,""windows"":true,""osname"":""Windows"",""osversion"":""10"",""a"":true}","9:20:7","1","3","Test_2","74","j","1","1256.8999999910593","1360 x 768","1360 x 768","true","1","10","","","","",""
"null","<p style=""font-size: 80px;"">+ 10 points</p>","null","html-keyboard-response","75","479740","0.0-11.0-2.74","5badf5bd0a2d4400010c683e","r55oor","OR","28","M","{""name"":""Chrome"",""chrome"":true,""version"":""106.0"",""blink"":true,""windows"":true,""osname"":""Windows"",""osversion"":""10"",""a"":true}","9:20:7","1","3","Test_3","70","f","1","1124.7000000029802","1360 x 768","1360 x 768","true","1","10","","","","",""
"null","<p style=""font-size: 80px;"">+ 0 points</p>","null","html-keyboard-response","76","482839","0.0-11.0-2.75","5badf5bd0a2d4400010c683e","r55oor","OR","28","M","{""name"":""Chrome"",""chrome"":true,""version"":""106.0"",""blink"":true,""windows"":true,""osname"":""Windows"",""osversion"":""10"",""a"":true}","9:20:7","1","4","Test_1","70","j","0","1064.2000000029802","1360 x 768","1360 x 768","true","1","0","","","","",""
"null","<p style=""font-size: 80px;"">+ 10 points</p>","null","html-keyboard-response","77","485972","0.0-11.0-2.76","5badf5bd0a2d4400010c683e","r55oor","OR","28","M","{""name"":""Chrome"",""chrome"":true,""version"":""106.0"",""blink"":true,""windows"":true,""osname"":""Windows"",""osversion"":""10"",""a"":true}","9:20:7","1","4","Test_4","70","f","1","1095.0999999940395","1360 x 768","1360 x 768","true","1","10","","","","",""
"null","<p style=""font-size: 80px;"">+ 10 points</p>","null","html-keyboard-response","78","488924","0.0-11.0-2.77","5badf5bd0a2d4400010c683e","r55oor","OR","28","M","{""name"":""Chrome"",""chrome"":true,""version"":""106.0"",""blink"":true,""windows"":true,""osname"":""Windows"",""osversion"":""10"",""a"":true}","9:20:7","1","4","Test_4","70","f","1","911.9000000059605","1360 x 768","1360 x 768","true","1","10","","","","",""
"null","<p style=""font-size: 80px;"">+ 10 points</p>","null","html-keyboard-response","79","492775","0.0-11.0-2.78","5badf5bd0a2d4400010c683e","r55oor","OR","28","M","{""name"":""Chrome"",""chrome"":true,""version"":""106.0"",""blink"":true,""windows"":true,""osname"":""Windows"",""osversion"":""10"",""a"":true}","9:20:7","1","4","Test_1","74","j","1","1821.2000000029802","1360 x 768","1360 x 768","true","1","10","","","","",""
"null","<p style=""font-size: 80px;"">+ 0 points</p>","null","html-keyboard-response","80","495471","0.0-11.0-2.79","5badf5bd0a2d4400010c683e","r55oor","OR","28","M","{""name"":""Chrome"",""chrome"":true,""version"":""106.0"",""blink"":true,""windows"":true,""osname"":""Windows"",""osversion"":""10"",""a"":true}","9:20:7","1","4","Test_3","70","j","0","670.8999999910593","1360 x 768","1360 x 768","true","1","0","","","","",""
"null","<p style=""font-size: 80px;"">+ 10 points</p>","null","html-keyboard-response","81","498087","0.0-11.0-2.80","5badf5bd0a2d4400010c683e","r55oor","OR","28","M","{""name"":""Chrome"",""chrome"":true,""version"":""106.0"",""blink"":true,""windows"":true,""osname"":""Windows"",""osversion"":""10"",""a"":true}","9:20:7","1","4","Test_3","74","j","1","589.0999999940395","1360 x 768","1360 x 768","true","1","10","","","","",""
"null","<p style=""font-size: 80px;"">+ 10 points</p>","null","html-keyboard-response","82","501654","0.0-11.0-2.81","5badf5bd0a2d4400010c683e","r55oor","OR","28","M","{""name"":""Chrome"",""chrome"":true,""version"":""106.0"",""blink"":true,""windows"":true,""osname"":""Windows"",""osversion"":""10"",""a"":true}","9:20:7","1","4","Test_2","70","f","1","1533.2000000029802","1360 x 768","1360 x 768","true","1","10","","","","",""
"null","<p style=""font-size: 80px;"">+ 10 points</p>","null","html-keyboard-response","83","504584","0.0-11.0-2.82","5badf5bd0a2d4400010c683e","r55oor","OR","28","M","{""name"":""Chrome"",""chrome"":true,""version"":""106.0"",""blink"":true,""windows"":true,""osname"":""Windows"",""osversion"":""10"",""a"":true}","9:20:7","1","4","Test_2","70","f","1","900.7000000029802","1360 x 768","1360 x 768","true","1","10","","","","",""
"null","<p style=""font-size: 80px;"">+ 10 points</p>","null","html-keyboard-response","84","508141","0.0-11.0-2.83","5badf5bd0a2d4400010c683e","r55oor","OR","28","M","{""name"":""Chrome"",""chrome"":true,""version"":""106.0"",""blink"":true,""windows"":true,""osname"":""Windows"",""osversion"":""10"",""a"":true}","9:20:7","1","4","Test_3","74","j","1","1510.1000000089407","1360 x 768","1360 x 768","true","1","10","","","","",""
"null","<p style=""font-size: 80px;"">+ 10 points</p>","null","html-keyboard-response","85","511034","0.0-11.0-2.84","5badf5bd0a2d4400010c683e","r55oor","OR","28","M","{""name"":""Chrome"",""chrome"":true,""version"":""106.0"",""blink"":true,""windows"":true,""osname"":""Windows"",""osversion"":""10"",""a"":true}","9:20:7","1","4","Test_3","74","j","1","874.4000000059605","1360 x 768","1360 x 768","true","1","10","","","","",""
"null","<p style=""font-size: 80px;"">+ 10 points</p>","null","html-keyboard-response","86","513881","0.0-11.0-2.85","5badf5bd0a2d4400010c683e","r55oor","OR","28","M","{""name"":""Chrome"",""chrome"":true,""version"":""106.0"",""blink"":true,""windows"":true,""osname"":""Windows"",""osversion"":""10"",""a"":true}","9:20:7","1","4","Test_2","70","f","1","811.2000000029802","1360 x 768","1360 x 768","true","1","10","","","","",""
"null","<p style=""font-size: 80px;"">+ 10 points</p>","null","html-keyboard-response","87","517480","0.0-11.0-2.86","5badf5bd0a2d4400010c683e","r55oor","OR","28","M","{""name"":""Chrome"",""chrome"":true,""version"":""106.0"",""blink"":true,""windows"":true,""osname"":""Windows"",""osversion"":""10"",""a"":true}","9:20:7","1","4","Test_4","70","f","1","1565.0999999940395","1360 x 768","1360 x 768","true","1","10","","","","",""
"null","<p style=""font-size: 80px;"">+ 10 points</p>","null","html-keyboard-response","88","520031","0.0-11.0-2.87","5badf5bd0a2d4400010c683e","r55oor","OR","28","M","{""name"":""Chrome"",""chrome"":true,""version"":""106.0"",""blink"":true,""windows"":true,""osname"":""Windows"",""osversion"":""10"",""a"":true}","9:20:7","1","4","Test_4","70","f","1","521.0999999940395","1360 x 768","1360 x 768","true","1","10","","","","",""
"null","<p style=""font-size: 80px;"">+ 10 points</p>","null","html-keyboard-response","89","522940","0.0-11.0-2.88","5badf5bd0a2d4400010c683e","r55oor","OR","28","M","{""name"":""Chrome"",""chrome"":true,""version"":""106.0"",""blink"":true,""windows"":true,""osname"":""Windows"",""osversion"":""10"",""a"":true}","9:20:7","1","4","Test_1","74","j","1","873.5","1360 x 768","1360 x 768","true","1","10","","","","",""
"null","<p style=""font-size: 80px;"">+ 10 points</p>","null","html-keyboard-response","90","525760","0.0-11.0-2.89","5badf5bd0a2d4400010c683e","r55oor","OR","28","M","{""name"":""Chrome"",""chrome"":true,""version"":""106.0"",""blink"":true,""windows"":true,""osname"":""Windows"",""osversion"":""10"",""a"":true}","9:20:7","1","4","Test_1","74","j","1","790.6000000089407","1360 x 768","1360 x 768","true","1","10","","","","",""
"null","<p style=""font-size: 80px;"">+ 0 points</p>","null","html-keyboard-response","91","529112","0.0-11.0-2.90","5badf5bd0a2d4400010c683e","r55oor","OR","28","M","{""name"":""Chrome"",""chrome"":true,""version"":""106.0"",""blink"":true,""windows"":true,""osname"":""Windows"",""osversion"":""10"",""a"":true}","9:20:7","1","4","Test_3","70","j","0","1316.199999988079","1360 x 768","1360 x 768","true","1","0","","","","",""
"null","<p style=""font-size: 80px;"">+ 0 points</p>","null","html-keyboard-response","92","532730","0.0-11.0-2.91","5badf5bd0a2d4400010c683e","r55oor","OR","28","M","{""name"":""Chrome"",""chrome"":true,""version"":""106.0"",""blink"":true,""windows"":true,""osname"":""Windows"",""osversion"":""10"",""a"":true}","9:20:7","1","4","Test_2","74","f","0","1589.7999999970198","1360 x 768","1360 x 768","true","1","0","","","","",""
"null","<p style=""font-size: 80px;"">+ 10 points</p>","null","html-keyboard-response","93","535740","0.0-11.0-2.92","5badf5bd0a2d4400010c683e","r55oor","OR","28","M","{""name"":""Chrome"",""chrome"":true,""version"":""106.0"",""blink"":true,""windows"":true,""osname"":""Windows"",""osversion"":""10"",""a"":true}","9:20:7","1","4","Test_1","74","j","1","968.8999999910593","1360 x 768","1360 x 768","true","1","10","","","","",""
"null","<p style=""font-size: 80px;"">+ 10 points</p>","null","html-keyboard-response","94","538910","0.0-11.0-2.93","5badf5bd0a2d4400010c683e","r55oor","OR","28","M","{""name"":""Chrome"",""chrome"":true,""version"":""106.0"",""blink"":true,""windows"":true,""osname"":""Windows"",""osversion"":""10"",""a"":true}","9:20:7","1","4","Test_4","70","f","1","1133.5","1360 x 768","1360 x 768","true","1","10","","","","",""
"null","<p style=""font-size: 80px;"">+ 10 points</p>","null","html-keyboard-response","95","541508","0.0-11.0-2.94","5badf5bd0a2d4400010c683e","r55oor","OR","28","M","{""name"":""Chrome"",""chrome"":true,""version"":""106.0"",""blink"":true,""windows"":true,""osname"":""Windows"",""osversion"":""10"",""a"":true}","9:20:7","1","4","Test_2","70","f","1","569.7999999970198","1360 x 768","1360 x 768","true","1","10","","","","",""
"null","<p style=""font-size: 80px;"">+ 0 points</p>","null","html-keyboard-response","96","544735","0.0-11.0-2.95","5badf5bd0a2d4400010c683e","r55oor","OR","28","M","{""name"":""Chrome"",""chrome"":true,""version"":""106.0"",""blink"":true,""windows"":true,""osname"":""Windows"",""osversion"":""10"",""a"":true}","9:20:7","1","3","Test_1","74","f","0","1193.7000000029802","1360 x 768","1360 x 768","true","1","0","","","","",""
"null","<p style=""font-size: 80px;"">+ 10 points</p>","null","html-keyboard-response","97","547906","0.0-11.0-2.96","5badf5bd0a2d4400010c683e","r55oor","OR","28","M","{""name"":""Chrome"",""chrome"":true,""version"":""106.0"",""blink"":true,""windows"":true,""osname"":""Windows"",""osversion"":""10"",""a"":true}","9:20:7","1","3","Test_2","74","j","1","1149.800000011921","1360 x 768","1360 x 768","true","1","10","","","","",""
"null","<p style=""font-size: 80px;"">+ 10 points</p>","null","html-keyboard-response","98","550537","0.0-11.0-2.97","5badf5bd0a2d4400010c683e","r55oor","OR","28","M","{""name"":""Chrome"",""chrome"":true,""version"":""106.0"",""blink"":true,""windows"":true,""osname"":""Windows"",""osversion"":""10"",""a"":true}","9:20:7","1","3","Test_4","74","j","1","599.2000000029802","1360 x 768","1360 x 768","true","1","10","","","","",""
"null","<p style=""font-size: 80px;"">+ 10 points</p>","null","html-keyboard-response","99","553273","0.0-11.0-2.98","5badf5bd0a2d4400010c683e","r55oor","OR","28","M","{""name"":""Chrome"",""chrome"":true,""version"":""106.0"",""blink"":true,""windows"":true,""osname"":""Windows"",""osversion"":""10"",""a"":true}","9:20:7","1","3","Test_2","74","j","1","706","1360 x 768","1360 x 768","true","1","10","","","","",""
"null","<p style=""font-size: 80px;"">+ 10 points</p>","null","html-keyboard-response","100","556022","0.0-11.0-2.99","5badf5bd0a2d4400010c683e","r55oor","OR","28","M","{""name"":""Chrome"",""chrome"":true,""version"":""106.0"",""blink"":true,""windows"":true,""osname"":""Windows"",""osversion"":""10"",""a"":true}","9:20:7","1","3","Test_2","74","j","1","724","1360 x 768","1360 x 768","true","1","10","","","","",""
"null","<p style=""font-size: 80px;"">+ 10 points</p>","null","html-keyboard-response","101","559953","0.0-11.0-2.100","5badf5bd0a2d4400010c683e","r55oor","OR","28","M","{""name"":""Chrome"",""chrome"":true,""version"":""106.0"",""blink"":true,""windows"":true,""osname"":""Windows"",""osversion"":""10"",""a"":true}","9:20:7","1","3","Test_4","74","j","1","1895","1360 x 768","1360 x 768","true","1","10","","","","",""
"null","<p style=""font-size: 80px;"">+ 10 points</p>","null","html-keyboard-response","102","563121","0.0-11.0-2.101","5badf5bd0a2d4400010c683e","r55oor","OR","28","M","{""name"":""Chrome"",""chrome"":true,""version"":""106.0"",""blink"":true,""windows"":true,""osname"":""Windows"",""osversion"":""10"",""a"":true}","9:20:7","1","3","Test_1","70","f","1","1137.2000000029802","1360 x 768","1360 x 768","true","1","10","","","","",""
"null","<p style=""font-size: 80px;"">+ 10 points</p>","null","html-keyboard-response","103","567312","0.0-11.0-2.102","5badf5bd0a2d4400010c683e","r55oor","OR","28","M","{""name"":""Chrome"",""chrome"":true,""version"":""106.0"",""blink"":true,""windows"":true,""osname"":""Windows"",""osversion"":""10"",""a"":true}","9:20:7","1","3","Test_3","70","f","1","2154.7999999970198","1360 x 768","1360 x 768","true","1","10","","","","",""
"null","<p style=""font-size: 80px;"">+ 10 points</p>","null","html-keyboard-response","104","570352","0.0-11.0-2.103","5badf5bd0a2d4400010c683e","r55oor","OR","28","M","{""name"":""Chrome"",""chrome"":true,""version"":""106.0"",""blink"":true,""windows"":true,""osname"":""Windows"",""osversion"":""10"",""a"":true}","9:20:7","1","3","Test_4","74","j","1","1017.7999999970198","1360 x 768","1360 x 768","true","1","10","","","","",""
"null","<p style=""font-size: 80px;"">+ 10 points</p>","null","html-keyboard-response","105","572966","0.0-11.0-2.104","5badf5bd0a2d4400010c683e","r55oor","OR","28","M","{""name"":""Chrome"",""chrome"":true,""version"":""106.0"",""blink"":true,""windows"":true,""osname"":""Windows"",""osversion"":""10"",""a"":true}","9:20:7","1","3","Test_3","70","f","1","586.1999999880791","1360 x 768","1360 x 768","true","1","10","","","","",""
"null","<p style=""font-size: 80px;"">+ 0 points</p>","null","html-keyboard-response","106","575762","0.0-11.0-2.105","5badf5bd0a2d4400010c683e","r55oor","OR","28","M","{""name"":""Chrome"",""chrome"":true,""version"":""106.0"",""blink"":true,""windows"":true,""osname"":""Windows"",""osversion"":""10"",""a"":true}","9:20:7","1","3","Test_4","70","j","0","768.9000000059605","1360 x 768","1360 x 768","true","1","0","","","","",""
"null","<p style=""font-size: 80px;"">+ 10 points</p>","null","html-keyboard-response","107","578732","0.0-11.0-2.106","5badf5bd0a2d4400010c683e","r55oor","OR","28","M","{""name"":""Chrome"",""chrome"":true,""version"":""106.0"",""blink"":true,""windows"":true,""osname"":""Windows"",""osversion"":""10"",""a"":true}","9:20:7","1","3","Test_2","74","j","1","938.2999999970198","1360 x 768","1360 x 768","true","1","10","","","","",""
"null","<p style=""font-size: 80px;"">+ 10 points</p>","null","html-keyboard-response","108","581596","0.0-11.0-2.107","5badf5bd0a2d4400010c683e","r55oor","OR","28","M","{""name"":""Chrome"",""chrome"":true,""version"":""106.0"",""blink"":true,""windows"":true,""osname"":""Windows"",""osversion"":""10"",""a"":true}","9:20:7","1","3","Test_1","70","f","1","831.3999999910593","1360 x 768","1360 x 768","true","1","10","","","","",""
"null","<p style=""font-size: 80px;"">+ 10 points</p>","null","html-keyboard-response","109","584547","0.0-11.0-2.108","5badf5bd0a2d4400010c683e","r55oor","OR","28","M","{""name"":""Chrome"",""chrome"":true,""version"":""106.0"",""blink"":true,""windows"":true,""osname"":""Windows"",""osversion"":""10"",""a"":true}","9:20:7","1","3","Test_3","70","f","1","915.0999999940395","1360 x 768","1360 x 768","true","1","10","","","","",""
"null","<p style=""font-size: 80px;"">+ 10 points</p>","null","html-keyboard-response","110","649197","0.0-11.0-2.109","5badf5bd0a2d4400010c683e","r55oor","OR","28","M","{""name"":""Chrome"",""chrome"":true,""version"":""106.0"",""blink"":true,""windows"":true,""osname"":""Windows"",""osversion"":""10"",""a"":true}","9:20:7","1","3","Test_1","70","f","1","1124.7999999970198","1360 x 768","1360 x 768","true","1","10","","","","",""
"null","<p style=""font-size: 80px;"">+ 10 points</p>","null","html-keyboard-response","111","651712","0.0-11.0-2.110","5badf5bd0a2d4400010c683e","r55oor","OR","28","M","{""name"":""Chrome"",""chrome"":true,""version"":""106.0"",""blink"":true,""windows"":true,""osname"":""Windows"",""osversion"":""10"",""a"":true}","9:20:7","1","3","Test_2","74","j","1","485.90000000596046","1360 x 768","1360 x 768","true","1","10","","","","",""
"null","<p style=""font-size: 80px;"">+ 10 points</p>","null","html-keyboard-response","112","654579","0.0-11.0-2.111","5badf5bd0a2d4400010c683e","r55oor","OR","28","M","{""name"":""Chrome"",""chrome"":true,""version"":""106.0"",""blink"":true,""windows"":true,""osname"":""Windows"",""osversion"":""10"",""a"":true}","9:20:7","1","3","Test_3","70","f","1","833.9000000059605","1360 x 768","1360 x 768","true","1","10","","","","",""
"null","<p style=""font-size: 80px;"">+ 10 points</p>","null","html-keyboard-response","113","657245","0.0-11.0-2.112","5badf5bd0a2d4400010c683e","r55oor","OR","28","M","{""name"":""Chrome"",""chrome"":true,""version"":""106.0"",""blink"":true,""windows"":true,""osname"":""Windows"",""osversion"":""10"",""a"":true}","9:20:7","1","3","Test_4","74","j","1","627.9000000059605","1360 x 768","1360 x 768","true","1","10","","","","",""
"null","<p style=""font-size: 80px;"">+ 10 points</p>","null","html-keyboard-response","114","660195","0.0-11.0-2.113","5badf5bd0a2d4400010c683e","r55oor","OR","28","M","{""name"":""Chrome"",""chrome"":true,""version"":""106.0"",""blink"":true,""windows"":true,""osname"":""Windows"",""osversion"":""10"",""a"":true}","9:20:7","1","3","Test_1","70","f","1","915.0999999940395","1360 x 768","1360 x 768","true","1","10","","","","",""
"null","<p style=""font-size: 80px;"">+ 10 points</p>","null","html-keyboard-response","115","662693","0.0-11.0-2.114","5badf5bd0a2d4400010c683e","r55oor","OR","28","M","{""name"":""Chrome"",""chrome"":true,""version"":""106.0"",""blink"":true,""windows"":true,""osname"":""Windows"",""osversion"":""10"",""a"":true}","9:20:7","1","3","Test_2","74","j","1","472.3999999910593","1360 x 768","1360 x 768","true","1","10","","","","",""
"null","<p style=""font-size: 80px;"">+ 10 points</p>","null","html-keyboard-response","116","665525","0.0-11.0-2.115","5badf5bd0a2d4400010c683e","r55oor","OR","28","M","{""name"":""Chrome"",""chrome"":true,""version"":""106.0"",""blink"":true,""windows"":true,""osname"":""Windows"",""osversion"":""10"",""a"":true}","9:20:7","1","3","Test_3","70","f","1","798.5999999940395","1360 x 768","1360 x 768","true","1","10","","","","",""
"null","<p style=""font-size: 80px;"">+ 10 points</p>","null","html-keyboard-response","117","668126","0.0-11.0-2.116","5badf5bd0a2d4400010c683e","r55oor","OR","28","M","{""name"":""Chrome"",""chrome"":true,""version"":""106.0"",""blink"":true,""windows"":true,""osname"":""Windows"",""osversion"":""10"",""a"":true}","9:20:7","1","3","Test_4","74","j","1","566.6999999880791","1360 x 768","1360 x 768","true","1","10","","","","",""
"null","<p style=""font-size: 80px;"">+ 10 points</p>","null","html-keyboard-response","118","671226","0.0-11.0-2.117","5badf5bd0a2d4400010c683e","r55oor","OR","28","M","{""name"":""Chrome"",""chrome"":true,""version"":""106.0"",""blink"":true,""windows"":true,""osname"":""Windows"",""osversion"":""10"",""a"":true}","9:20:7","1","3","Test_1","70","f","1","1068.3999999910593","1360 x 768","1360 x 768","true","1","10","","","","",""
"null","<p style=""font-size: 80px;"">+ 0 points</p>","null","html-keyboard-response","119","673990","0.0-11.0-2.118","5badf5bd0a2d4400010c683e","r55oor","OR","28","M","{""name"":""Chrome"",""chrome"":true,""version"":""106.0"",""blink"":true,""windows"":true,""osname"":""Windows"",""osversion"":""10"",""a"":true}","9:20:7","1","4","Test_2","74","f","0","724.7000000029802","1360 x 768","1360 x 768","true","1","0","","","","",""
"null","<p style=""font-size: 80px;"">+ 10 points</p>","null","html-keyboard-response","120","677057","0.0-11.0-2.119","5badf5bd0a2d4400010c683e","r55oor","OR","28","M","{""name"":""Chrome"",""chrome"":true,""version"":""106.0"",""blink"":true,""windows"":true,""osname"":""Windows"",""osversion"":""10"",""a"":true}","9:20:7","1","4","Test_3","74","j","1","1043.6000000089407","1360 x 768","1360 x 768","true","1","10","","","","",""
"null","<p style=""font-size: 80px;"">+ 10 points</p>","null","html-keyboard-response","121","679873","0.0-11.0-2.120","5badf5bd0a2d4400010c683e","r55oor","OR","28","M","{""name"":""Chrome"",""chrome"":true,""version"":""106.0"",""blink"":true,""windows"":true,""osname"":""Windows"",""osversion"":""10"",""a"":true}","9:20:7","1","4","Test_4","70","f","1","781.4000000059605","1360 x 768","1360 x 768","true","1","10","","","","",""
"null","<p style=""font-size: 80px;"">+ 10 points</p>","null","html-keyboard-response","122","683041","0.0-11.0-2.121","5badf5bd0a2d4400010c683e","r55oor","OR","28","M","{""name"":""Chrome"",""chrome"":true,""version"":""106.0"",""blink"":true,""windows"":true,""osname"":""Windows"",""osversion"":""10"",""a"":true}","9:20:7","1","4","Test_3","74","j","1","1136","1360 x 768","1360 x 768","true","1","10","","","","",""
"null","<p style=""font-size: 80px;"">+ 10 points</p>","null","html-keyboard-response","123","685752","0.0-11.0-2.122","5badf5bd0a2d4400010c683e","r55oor","OR","28","M","{""name"":""Chrome"",""chrome"":true,""version"":""106.0"",""blink"":true,""windows"":true,""osname"":""Windows"",""osversion"":""10"",""a"":true}","9:20:7","1","4","Test_4","70","f","1","661.3999999910593","1360 x 768","1360 x 768","true","1","10","","","","",""
"null","<p style=""font-size: 80px;"">+ 10 points</p>","null","html-keyboard-response","124","688859","0.0-11.0-2.123","5badf5bd0a2d4400010c683e","r55oor","OR","28","M","{""name"":""Chrome"",""chrome"":true,""version"":""106.0"",""blink"":true,""windows"":true,""osname"":""Windows"",""osversion"":""10"",""a"":true}","9:20:7","1","4","Test_1","74","j","1","1064.5","1360 x 768","1360 x 768","true","1","10","","","","",""
"null","<p style=""font-size: 80px;"">+ 10 points</p>","null","html-keyboard-response","125","691635","0.0-11.0-2.124","5badf5bd0a2d4400010c683e","r55oor","OR","28","M","{""name"":""Chrome"",""chrome"":true,""version"":""106.0"",""blink"":true,""windows"":true,""osname"":""Windows"",""osversion"":""10"",""a"":true}","9:20:7","1","4","Test_2","70","f","1","753.0999999940395","1360 x 768","1360 x 768","true","1","10","","","","",""
"null","<p style=""font-size: 80px;"">+ 10 points</p>","null","html-keyboard-response","126","694286","0.0-11.0-2.125","5badf5bd0a2d4400010c683e","r55oor","OR","28","M","{""name"":""Chrome"",""chrome"":true,""version"":""106.0"",""blink"":true,""windows"":true,""osname"":""Windows"",""osversion"":""10"",""a"":true}","9:20:7","1","4","Test_1","74","j","1","614.1000000089407","1360 x 768","1360 x 768","true","1","10","","","","",""
"null","<p style=""font-size: 80px;"">+ 10 points</p>","null","html-keyboard-response","127","698053","0.0-11.0-2.126","5badf5bd0a2d4400010c683e","r55oor","OR","28","M","{""name"":""Chrome"",""chrome"":true,""version"":""106.0"",""blink"":true,""windows"":true,""osname"":""Windows"",""osversion"":""10"",""a"":true}","9:20:7","1","4","Test_3","74","j","1","1738.199999988079","1360 x 768","1360 x 768","true","1","10","","","","",""
"null","<p style=""font-size: 80px;"">+ 10 points</p>","null","html-keyboard-response","128","700800","0.0-11.0-2.127","5badf5bd0a2d4400010c683e","r55oor","OR","28","M","{""name"":""Chrome"",""chrome"":true,""version"":""106.0"",""blink"":true,""windows"":true,""osname"":""Windows"",""osversion"":""10"",""a"":true}","9:20:7","1","4","Test_4","70","f","1","693.5","1360 x 768","1360 x 768","true","1","10","","","","",""
"null","<p style=""font-size: 80px;"">+ 10 points</p>","null","html-keyboard-response","129","703766","0.0-11.0-2.128","5badf5bd0a2d4400010c683e","r55oor","OR","28","M","{""name"":""Chrome"",""chrome"":true,""version"":""106.0"",""blink"":true,""windows"":true,""osname"":""Windows"",""osversion"":""10"",""a"":true}","9:20:7","1","4","Test_1","74","j","1","935.2000000029802","1360 x 768","1360 x 768","true","1","10","","","","",""
"null","<p style=""font-size: 80px;"">+ 10 points</p>","null","html-keyboard-response","130","706364","0.0-11.0-2.129","5badf5bd0a2d4400010c683e","r55oor","OR","28","M","{""name"":""Chrome"",""chrome"":true,""version"":""106.0"",""blink"":true,""windows"":true,""osname"":""Windows"",""osversion"":""10"",""a"":true}","9:20:7","1","4","Test_2","70","f","1","561.5999999940395","1360 x 768","1360 x 768","true","1","10","","","","",""
"null","<p style=""font-size: 80px;"">+ 10 points</p>","null","html-keyboard-response","131","708915","0.0-11.0-2.130","5badf5bd0a2d4400010c683e","r55oor","OR","28","M","{""name"":""Chrome"",""chrome"":true,""version"":""106.0"",""blink"":true,""windows"":true,""osname"":""Windows"",""osversion"":""10"",""a"":true}","9:20:7","1","4","Test_2","70","f","1","513","1360 x 768","1360 x 768","true","1","10","","","","",""
"null","<p style=""font-size: 80px;"">+ 10 points</p>","null","html-keyboard-response","132","711600","0.0-11.0-2.131","5badf5bd0a2d4400010c683e","r55oor","OR","28","M","{""name"":""Chrome"",""chrome"":true,""version"":""106.0"",""blink"":true,""windows"":true,""osname"":""Windows"",""osversion"":""10"",""a"":true}","9:20:7","1","4","Test_1","74","j","1","656.2000000029802","1360 x 768","1360 x 768","true","1","10","","","","",""
"null","<p style=""font-size: 80px;"">+ 0 points</p>","null","html-keyboard-response","133","714447","0.0-11.0-2.132","5badf5bd0a2d4400010c683e","r55oor","OR","28","M","{""name"":""Chrome"",""chrome"":true,""version"":""106.0"",""blink"":true,""windows"":true,""osname"":""Windows"",""osversion"":""10"",""a"":true}","9:20:7","1","4","Test_3","70","j","0","821.2000000029802","1360 x 768","1360 x 768","true","1","0","","","","",""
"null","<p style=""font-size: 80px;"">+ 10 points</p>","null","html-keyboard-response","134","717901","0.0-11.0-2.133","5badf5bd0a2d4400010c683e","r55oor","OR","28","M","{""name"":""Chrome"",""chrome"":true,""version"":""106.0"",""blink"":true,""windows"":true,""osname"":""Windows"",""osversion"":""10"",""a"":true}","9:20:7","1","4","Test_4","70","f","1","1423","1360 x 768","1360 x 768","true","1","10","","","","",""
"null","<p style=""font-size: 80px;"">+ 10 points</p>","null","html-keyboard-response","135","720729","0.0-11.0-2.134","5badf5bd0a2d4400010c683e","r55oor","OR","28","M","{""name"":""Chrome"",""chrome"":true,""version"":""106.0"",""blink"":true,""windows"":true,""osname"":""Windows"",""osversion"":""10"",""a"":true}","9:20:7","1","4","Test_3","74","j","1","803.5999999940395","1360 x 768","1360 x 768","true","1","10","","","","",""
"null","<p style=""font-size: 80px;"">+ 10 points</p>","null","html-keyboard-response","136","723494","0.0-11.0-2.135","5badf5bd0a2d4400010c683e","r55oor","OR","28","M","{""name"":""Chrome"",""chrome"":true,""version"":""106.0"",""blink"":true,""windows"":true,""osname"":""Windows"",""osversion"":""10"",""a"":true}","9:20:7","1","4","Test_4","70","f","1","739.5","1360 x 768","1360 x 768","true","1","10","","","","",""
"null","<p style=""font-size: 80px;"">+ 0 points</p>","null","html-keyboard-response","137","727277","0.0-11.0-2.136","5badf5bd0a2d4400010c683e","r55oor","OR","28","M","{""name"":""Chrome"",""chrome"":true,""version"":""106.0"",""blink"":true,""windows"":true,""osname"":""Windows"",""osversion"":""10"",""a"":true}","9:20:7","1","4","Test_2","74","f","0","1745.199999988079","1360 x 768","1360 x 768","true","1","0","","","","",""
"null","<p style=""font-size: 80px;"">+ 0 points</p>","null","html-keyboard-response","138","730260","0.0-11.0-2.137","5badf5bd0a2d4400010c683e","r55oor","OR","28","M","{""name"":""Chrome"",""chrome"":true,""version"":""106.0"",""blink"":true,""windows"":true,""osname"":""Windows"",""osversion"":""10"",""a"":true}","9:20:7","1","3","Test_1","74","f","0","951.7000000029802","1360 x 768","1360 x 768","true","1","0","","","","",""
"null","<p style=""font-size: 80px;"">+ 0 points</p>","null","html-keyboard-response","139","733691","0.0-11.0-2.138","5badf5bd0a2d4400010c683e","r55oor","OR","28","M","{""name"":""Chrome"",""chrome"":true,""version"":""106.0"",""blink"":true,""windows"":true,""osname"":""Windows"",""osversion"":""10"",""a"":true}","9:20:7","1","3","Test_2","70","j","0","1392.2999999970198","1360 x 768","1360 x 768","true","1","0","","","","",""
"null","<p style=""font-size: 80px;"">+ 10 points</p>","null","html-keyboard-response","140","736341","0.0-11.0-2.139","5badf5bd0a2d4400010c683e","r55oor","OR","28","M","{""name"":""Chrome"",""chrome"":true,""version"":""106.0"",""blink"":true,""windows"":true,""osname"":""Windows"",""osversion"":""10"",""a"":true}","9:20:7","1","3","Test_1","70","f","1","620","1360 x 768","1360 x 768","true","1","10","","","","",""
"null","<p style=""font-size: 80px;"">+ 10 points</p>","null","html-keyboard-response","141","739223","0.0-11.0-2.140","5badf5bd0a2d4400010c683e","r55oor","OR","28","M","{""name"":""Chrome"",""chrome"":true,""version"":""106.0"",""blink"":true,""windows"":true,""osname"":""Windows"",""osversion"":""10"",""a"":true}","9:20:7","1","3","Test_4","74","j","1","847.2999999970198","1360 x 768","1360 x 768","true","1","10","","","","",""
"null","<p style=""font-size: 80px;"">+ 10 points</p>","null","html-keyboard-response","142","742006","0.0-11.0-2.141","5badf5bd0a2d4400010c683e","r55oor","OR","28","M","{""name"":""Chrome"",""chrome"":true,""version"":""106.0"",""blink"":true,""windows"":true,""osname"":""Windows"",""osversion"":""10"",""a"":true}","9:20:7","1","3","Test_4","74","j","1","750.4000000059605","1360 x 768","1360 x 768","true","1","10","","","","",""
"null","<p style=""font-size: 80px;"">+ 10 points</p>","null","html-keyboard-response","143","744737","0.0-11.0-2.142","5badf5bd0a2d4400010c683e","r55oor","OR","28","M","{""name"":""Chrome"",""chrome"":true,""version"":""106.0"",""blink"":true,""windows"":true,""osname"":""Windows"",""osversion"":""10"",""a"":true}","9:20:7","1","3","Test_2","74","j","1","704","1360 x 768","1360 x 768","true","1","10","","","","",""
"null","<p style=""font-size: 80px;"">+ 10 points</p>","null","html-keyboard-response","144","747743","0.0-11.0-2.143","5badf5bd0a2d4400010c683e","r55oor","OR","28","M","{""name"":""Chrome"",""chrome"":true,""version"":""106.0"",""blink"":true,""windows"":true,""osname"":""Windows"",""osversion"":""10"",""a"":true}","9:20:7","1","3","Test_1","70","f","1","977.6000000089407","1360 x 768","1360 x 768","true","1","10","","","","",""
"null","<p style=""font-size: 80px;"">+ 10 points</p>","null","html-keyboard-response","145","750437","0.0-11.0-2.144","5badf5bd0a2d4400010c683e","r55oor","OR","28","M","{""name"":""Chrome"",""chrome"":true,""version"":""106.0"",""blink"":true,""windows"":true,""osname"":""Windows"",""osversion"":""10"",""a"":true}","9:20:7","1","3","Test_2","74","j","1","660.7000000029802","1360 x 768","1360 x 768","true","1","10","","","","",""
"null","<p style=""font-size: 80px;"">+ 0 points</p>","null","html-keyboard-response","146","754105","0.0-11.0-2.145","5badf5bd0a2d4400010c683e","r55oor","OR","28","M","{""name"":""Chrome"",""chrome"":true,""version"":""106.0"",""blink"":true,""windows"":true,""osname"":""Windows"",""osversion"":""10"",""a"":true}","9:20:7","1","3","Test_4","70","j","0","1632.7000000029802","1360 x 768","1360 x 768","true","1","0","","","","",""
"null","<p style=""font-size: 80px;"">+ 0 points</p>","null","html-keyboard-response","147","757468","0.0-11.0-2.146","5badf5bd0a2d4400010c683e","r55oor","OR","28","M","{""name"":""Chrome"",""chrome"":true,""version"":""106.0"",""blink"":true,""windows"":true,""osname"":""Windows"",""osversion"":""10"",""a"":true}","9:20:7","1","3","Test_2","70","j","0","1325.1000000089407","1360 x 768","1360 x 768","true","1","0","","","","",""
"null","<p style=""font-size: 80px;"">+ 0 points</p>","null","html-keyboard-response","148","760484","0.0-11.0-2.147","5badf5bd0a2d4400010c683e","r55oor","OR","28","M","{""name"":""Chrome"",""chrome"":true,""version"":""106.0"",""blink"":true,""windows"":true,""osname"":""Windows"",""osversion"":""10"",""a"":true}","9:20:7","1","3","Test_3","74","f","0","978.0999999940395","1360 x 768","1360 x 768","true","1","0","","","","",""
"null","<p style=""font-size: 80px;"">+ 0 points</p>","null","html-keyboard-response","149","763262","0.0-11.0-2.148","5badf5bd0a2d4400010c683e","r55oor","OR","28","M","{""name"":""Chrome"",""chrome"":true,""version"":""106.0"",""blink"":true,""windows"":true,""osname"":""Windows"",""osversion"":""10"",""a"":true}","9:20:7","1","3","Test_4","70","j","0","744.7999999970198","1360 x 768","1360 x 768","true","1","0","","","","",""
"null","<p style=""font-size: 80px;"">+ 10 points</p>","null","html-keyboard-response","150","766083","0.0-11.0-2.149","5badf5bd0a2d4400010c683e","r55oor","OR","28","M","{""name"":""Chrome"",""chrome"":true,""version"":""106.0"",""blink"":true,""windows"":true,""osname"":""Windows"",""osversion"":""10"",""a"":true}","9:20:7","1","3","Test_3","70","f","1","793.2000000029802","1360 x 768","1360 x 768","true","1","10","","","","",""
"null","<p style=""font-size: 80px;"">+ 10 points</p>","null","html-keyboard-response","151","768717","0.0-11.0-2.150","5badf5bd0a2d4400010c683e","r55oor","OR","28","M","{""name"":""Chrome"",""chrome"":true,""version"":""106.0"",""blink"":true,""windows"":true,""osname"":""Windows"",""osversion"":""10"",""a"":true}","9:20:7","1","3","Test_4","74","j","1","599.5999999940395","1360 x 768","1360 x 768","true","1","10","","","","",""
"null","<p style=""font-size: 80px;"">+ 10 points</p>","null","html-keyboard-response","152","771848","0.0-11.0-2.151","5badf5bd0a2d4400010c683e","r55oor","OR","28","M","{""name"":""Chrome"",""chrome"":true,""version"":""106.0"",""blink"":true,""windows"":true,""osname"":""Windows"",""osversion"":""10"",""a"":true}","9:20:7","1","3","Test_1","70","f","1","1066.6000000089407","1360 x 768","1360 x 768","true","1","10","","","","",""
"null","<p style=""font-size: 80px;"">+ 10 points</p>","null","html-keyboard-response","153","774432","0.0-11.0-2.152","5badf5bd0a2d4400010c683e","r55oor","OR","28","M","{""name"":""Chrome"",""chrome"":true,""version"":""106.0"",""blink"":true,""windows"":true,""osname"":""Windows"",""osversion"":""10"",""a"":true}","9:20:7","1","3","Test_2","74","j","1","554","1360 x 768","1360 x 768","true","1","10","","","","",""
"null","<p style=""font-size: 80px;"">+ 10 points</p>","null","html-keyboard-response","154","777414","0.0-11.0-2.153","5badf5bd0a2d4400010c683e","r55oor","OR","28","M","{""name"":""Chrome"",""chrome"":true,""version"":""106.0"",""blink"":true,""windows"":true,""osname"":""Windows"",""osversion"":""10"",""a"":true}","9:20:7","1","3","Test_3","70","f","1","955","1360 x 768","1360 x 768","true","1","10","","","","",""
"null","<p style=""font-size: 80px;"">+ 10 points</p>","null","html-keyboard-response","155","780199","0.0-11.0-2.154","5badf5bd0a2d4400010c683e","r55oor","OR","28","M","{""name"":""Chrome"",""chrome"":true,""version"":""106.0"",""blink"":true,""windows"":true,""osname"":""Windows"",""osversion"":""10"",""a"":true}","9:20:7","1","3","Test_3","70","f","1","757","1360 x 768","1360 x 768","true","1","10","","","","",""
"null","<p style=""font-size: 80px;"">+ 10 points</p>","null","html-keyboard-response","156","783262","0.0-11.0-2.155","5badf5bd0a2d4400010c683e","r55oor","OR","28","M","{""name"":""Chrome"",""chrome"":true,""version"":""106.0"",""blink"":true,""windows"":true,""osname"":""Windows"",""osversion"":""10"",""a"":true}","9:20:7","1","3","Test_1","70","f","1","1036.7999999970198","1360 x 768","1360 x 768","true","1","10","","","","",""
"null","<p style=""font-size: 80px;"">+ 10 points</p>","null","html-keyboard-response","157","786463","0.0-11.0-2.156","5badf5bd0a2d4400010c683e","r55oor","OR","28","M","{""name"":""Chrome"",""chrome"":true,""version"":""106.0"",""blink"":true,""windows"":true,""osname"":""Windows"",""osversion"":""10"",""a"":true}","9:20:7","1","3","Test_3","70","f","1","1174.5999999940395","1360 x 768","1360 x 768","true","1","10","","","","",""
"null","<p style=""font-size: 80px;"">+ 10 points</p>","null","html-keyboard-response","158","789530","0.0-11.0-2.157","5badf5bd0a2d4400010c683e","r55oor","OR","28","M","{""name"":""Chrome"",""chrome"":true,""version"":""106.0"",""blink"":true,""windows"":true,""osname"":""Windows"",""osversion"":""10"",""a"":true}","9:20:7","1","3","Test_2","74","j","1","1038.2999999970198","1360 x 768","1360 x 768","true","1","10","","","","",""
"null","<p style=""font-size: 80px;"">+ 0 points</p>","null","html-keyboard-response","159","792144","0.0-11.0-2.158","5badf5bd0a2d4400010c683e","r55oor","OR","28","M","{""name"":""Chrome"",""chrome"":true,""version"":""106.0"",""blink"":true,""windows"":true,""osname"":""Windows"",""osversion"":""10"",""a"":true}","9:20:7","1","4","Test_1","70","j","0","581.5","1360 x 768","1360 x 768","true","1","0","","","","",""
"null","<p style=""font-size: 80px;"">+ 10 points</p>","null","html-keyboard-response","160","795226","0.0-11.0-2.159","5badf5bd0a2d4400010c683e","r55oor","OR","28","M","{""name"":""Chrome"",""chrome"":true,""version"":""106.0"",""blink"":true,""windows"":true,""osname"":""Windows"",""osversion"":""10"",""a"":true}","9:20:7","1","4","Test_2","70","f","1","1056.5","1360 x 768","1360 x 768","true","1","10","","","","",""
"null","<p style=""font-size: 80px;"">+ 10 points</p>","null","html-keyboard-response","161","797842","0.0-11.0-2.160","5badf5bd0a2d4400010c683e","r55oor","OR","28","M","{""name"":""Chrome"",""chrome"":true,""version"":""106.0"",""blink"":true,""windows"":true,""osname"":""Windows"",""osversion"":""10"",""a"":true}","9:20:7","1","4","Test_4","70","f","1","583.7999999970198","1360 x 768","1360 x 768","true","1","10","","","","",""
"null","<p style=""font-size: 80px;"">+ 10 points</p>","null","html-keyboard-response","162","800391","0.0-11.0-2.161","5badf5bd0a2d4400010c683e","r55oor","OR","28","M","{""name"":""Chrome"",""chrome"":true,""version"":""106.0"",""blink"":true,""windows"":true,""osname"":""Windows"",""osversion"":""10"",""a"":true}","9:20:7","1","4","Test_3","74","j","1","518.3000000119209","1360 x 768","1360 x 768","true","1","10","","","","",""
"null","<p style=""font-size: 80px;"">+ 10 points</p>","null","html-keyboard-response","163","803641","0.0-11.0-2.162","5badf5bd0a2d4400010c683e","r55oor","OR","28","M","{""name"":""Chrome"",""chrome"":true,""version"":""106.0"",""blink"":true,""windows"":true,""osname"":""Windows"",""osversion"":""10"",""a"":true}","9:20:7","1","4","Test_2","70","f","1","1226.5999999940395","1360 x 768","1360 x 768","true","1","10","","","","",""
"null","<p style=""font-size: 80px;"">+ 10 points</p>","null","html-keyboard-response","164","806724","0.0-11.0-2.163","5badf5bd0a2d4400010c683e","r55oor","OR","28","M","{""name"":""Chrome"",""chrome"":true,""version"":""106.0"",""blink"":true,""windows"":true,""osname"":""Windows"",""osversion"":""10"",""a"":true}","9:20:7","1","4","Test_3","74","j","1","1048.2999999970198","1360 x 768","1360 x 768","true","1","10","","","","",""
"null","<p style=""font-size: 80px;"">+ 10 points</p>","null","html-keyboard-response","165","809888","0.0-11.0-2.164","5badf5bd0a2d4400010c683e","r55oor","OR","28","M","{""name"":""Chrome"",""chrome"":true,""version"":""106.0"",""blink"":true,""windows"":true,""osname"":""Windows"",""osversion"":""10"",""a"":true}","9:20:7","1","4","Test_4","70","f","1","1143","1360 x 768","1360 x 768","true","1","10","","","","",""
"null","<p style=""font-size: 80px;"">+ 10 points</p>","null","html-keyboard-response","166","813289","0.0-11.0-2.165","5badf5bd0a2d4400010c683e","r55oor","OR","28","M","{""name"":""Chrome"",""chrome"":true,""version"":""106.0"",""blink"":true,""windows"":true,""osname"":""Windows"",""osversion"":""10"",""a"":true}","9:20:7","1","4","Test_4","70","f","1","1359.6000000089407","1360 x 768","1360 x 768","true","1","10","","","","",""
"null","<p style=""font-size: 80px;"">+ 10 points</p>","null","html-keyboard-response","167","816671","0.0-11.0-2.166","5badf5bd0a2d4400010c683e","r55oor","OR","28","M","{""name"":""Chrome"",""chrome"":true,""version"":""106.0"",""blink"":true,""windows"":true,""osname"":""Windows"",""osversion"":""10"",""a"":true}","9:20:7","1","4","Test_1","74","j","1","1347.7000000029802","1360 x 768","1360 x 768","true","1","10","","","","",""
"null","<p style=""font-size: 80px;"">+ 0 points</p>","null","html-keyboard-response","168","819852","0.0-11.0-2.167","5badf5bd0a2d4400010c683e","r55oor","OR","28","M","{""name"":""Chrome"",""chrome"":true,""version"":""106.0"",""blink"":true,""windows"":true,""osname"":""Windows"",""osversion"":""10"",""a"":true}","9:20:7","1","4","Test_3","70","j","0","1147.699999988079","1360 x 768","1360 x 768","true","1","0","","","","",""
"null","<p style=""font-size: 80px;"">+ 10 points</p>","null","html-keyboard-response","169","822836","0.0-11.0-2.168","5badf5bd0a2d4400010c683e","r55oor","OR","28","M","{""name"":""Chrome"",""chrome"":true,""version"":""106.0"",""blink"":true,""windows"":true,""osname"":""Windows"",""osversion"":""10"",""a"":true}","9:20:7","1","4","Test_1","74","j","1","944.0999999940395","1360 x 768","1360 x 768","true","1","10","","","","",""
"null","<p style=""font-size: 80px;"">+ 10 points</p>","null","html-keyboard-response","170","825687","0.0-11.0-2.169","5badf5bd0a2d4400010c683e","r55oor","OR","28","M","{""name"":""Chrome"",""chrome"":true,""version"":""106.0"",""blink"":true,""windows"":true,""osname"":""Windows"",""osversion"":""10"",""a"":true}","9:20:7","1","4","Test_1","74","j","1","820.2000000029802","1360 x 768","1360 x 768","true","1","10","","","","",""
"null","<p style=""font-size: 80px;"">+ 0 points</p>","null","html-keyboard-response","171","828982","0.0-11.0-2.170","5badf5bd0a2d4400010c683e","r55oor","OR","28","M","{""name"":""Chrome"",""chrome"":true,""version"":""106.0"",""blink"":true,""windows"":true,""osname"":""Windows"",""osversion"":""10"",""a"":true}","9:20:7","1","4","Test_2","74","f","0","1263.2999999970198","1360 x 768","1360 x 768","true","1","0","","","","",""
"null","<p style=""font-size: 80px;"">+ 10 points</p>","null","html-keyboard-response","172","831964","0.0-11.0-2.171","5badf5bd0a2d4400010c683e","r55oor","OR","28","M","{""name"":""Chrome"",""chrome"":true,""version"":""106.0"",""blink"":true,""windows"":true,""osname"":""Windows"",""osversion"":""10"",""a"":true}","9:20:7","1","4","Test_3","74","j","1","953.5","1360 x 768","1360 x 768","true","1","10","","","","",""
"null","<p style=""font-size: 80px;"">+ 10 points</p>","null","html-keyboard-response","173","834615","0.0-11.0-2.172","5badf5bd0a2d4400010c683e","r55oor","OR","28","M","{""name"":""Chrome"",""chrome"":true,""version"":""106.0"",""blink"":true,""windows"":true,""osname"":""Windows"",""osversion"":""10"",""a"":true}","9:20:7","1","4","Test_4","70","f","1","621","1360 x 768","1360 x 768","true","1","10","","","","",""
"null","<p style=""font-size: 80px;"">+ 10 points</p>","null","html-keyboard-response","174","837332","0.0-11.0-2.173","5badf5bd0a2d4400010c683e","r55oor","OR","28","M","{""name"":""Chrome"",""chrome"":true,""version"":""106.0"",""blink"":true,""windows"":true,""osname"":""Windows"",""osversion"":""10"",""a"":true}","9:20:7","1","4","Test_2","70","f","1","690.1000000089407","1360 x 768","1360 x 768","true","1","10","","","","",""
"null","<p style=""font-size: 80px;"">+ 0 points</p>","null","html-keyboard-response","175","840379","0.0-11.0-2.174","5badf5bd0a2d4400010c683e","r55oor","OR","28","M","{""name"":""Chrome"",""chrome"":true,""version"":""106.0"",""blink"":true,""windows"":true,""osname"":""Windows"",""osversion"":""10"",""a"":true}","9:20:7","1","3","Test_3","74","f","0","1014.0999999940395","1360 x 768","1360 x 768","true","1","0","","","","",""
"null","<p style=""font-size: 80px;"">+ 10 points</p>","null","html-keyboard-response","176","844179","0.0-11.0-2.175","5badf5bd0a2d4400010c683e","r55oor","OR","28","M","{""name"":""Chrome"",""chrome"":true,""version"":""106.0"",""blink"":true,""windows"":true,""osname"":""Windows"",""osversion"":""10"",""a"":true}","9:20:7","1","3","Test_2","74","j","1","1767.5","1360 x 768","1360 x 768","true","1","10","","","","",""
"null","<p style=""font-size: 80px;"">+ 10 points</p>","null","html-keyboard-response","177","846943","0.0-11.0-2.176","5badf5bd0a2d4400010c683e","r55oor","OR","28","M","{""name"":""Chrome"",""chrome"":true,""version"":""106.0"",""blink"":true,""windows"":true,""osname"":""Windows"",""osversion"":""10"",""a"":true}","9:20:7","1","3","Test_1","70","f","1","734.7000000029802","1360 x 768","1360 x 768","true","1","10","","","","",""
"null","<p style=""font-size: 80px;"">+ 10 points</p>","null","html-keyboard-response","178","849473","0.0-11.0-2.177","5badf5bd0a2d4400010c683e","r55oor","OR","28","M","{""name"":""Chrome"",""chrome"":true,""version"":""106.0"",""blink"":true,""windows"":true,""osname"":""Windows"",""osversion"":""10"",""a"":true}","9:20:7","1","3","Test_2","74","j","1","496.40000000596046","1360 x 768","1360 x 768","true","1","10","","","","",""
"null","<p style=""font-size: 80px;"">+ 10 points</p>","null","html-keyboard-response","179","852504","0.0-11.0-2.178","5badf5bd0a2d4400010c683e","r55oor","OR","28","M","{""name"":""Chrome"",""chrome"":true,""version"":""106.0"",""blink"":true,""windows"":true,""osname"":""Windows"",""osversion"":""10"",""a"":true}","9:20:7","1","3","Test_3","70","f","1","1004","1360 x 768","1360 x 768","true","1","10","","","","",""
"null","<p style=""font-size: 80px;"">+ 10 points</p>","null","html-keyboard-response","180","855175","0.0-11.0-2.179","5badf5bd0a2d4400010c683e","r55oor","OR","28","M","{""name"":""Chrome"",""chrome"":true,""version"":""106.0"",""blink"":true,""windows"":true,""osname"":""Windows"",""osversion"":""10"",""a"":true}","9:20:7","1","3","Test_4","74","j","1","650.5","1360 x 768","1360 x 768","true","1","10","","","","",""
"null","<p style=""font-size: 80px;"">+ 10 points</p>","null","html-keyboard-response","181","857975","0.0-11.0-2.180","5badf5bd0a2d4400010c683e","r55oor","OR","28","M","{""name"":""Chrome"",""chrome"":true,""version"":""106.0"",""blink"":true,""windows"":true,""osname"":""Windows"",""osversion"":""10"",""a"":true}","9:20:7","1","3","Test_3","70","f","1","768.5","1360 x 768","1360 x 768","true","1","10","","","","",""
"null","<p style=""font-size: 80px;"">+ 10 points</p>","null","html-keyboard-response","182","860575","0.0-11.0-2.181","5badf5bd0a2d4400010c683e","r55oor","OR","28","M","{""name"":""Chrome"",""chrome"":true,""version"":""106.0"",""blink"":true,""windows"":true,""osname"":""Windows"",""osversion"":""10"",""a"":true}","9:20:7","1","3","Test_4","74","j","1","576.4000000059605","1360 x 768","1360 x 768","true","1","10","","","","",""
"null","<p style=""font-size: 80px;"">+ 10 points</p>","null","html-keyboard-response","183","863773","0.0-11.0-2.182","5badf5bd0a2d4400010c683e","r55oor","OR","28","M","{""name"":""Chrome"",""chrome"":true,""version"":""106.0"",""blink"":true,""windows"":true,""osname"":""Windows"",""osversion"":""10"",""a"":true}","9:20:7","1","3","Test_1","70","f","1","1160.3999999910593","1360 x 768","1360 x 768","true","1","10","","","","",""
"null","<p style=""font-size: 80px;"">+ 10 points</p>","null","html-keyboard-response","184","866889","0.0-11.0-2.183","5badf5bd0a2d4400010c683e","r55oor","OR","28","M","{""name"":""Chrome"",""chrome"":true,""version"":""106.0"",""blink"":true,""windows"":true,""osname"":""Windows"",""osversion"":""10"",""a"":true}","9:20:7","1","3","Test_4","74","j","1","1080.2000000029802","1360 x 768","1360 x 768","true","1","10","","","","",""
"null","<p style=""font-size: 80px;"">+ 10 points</p>","null","html-keyboard-response","185","870455","0.0-11.0-2.184","5badf5bd0a2d4400010c683e","r55oor","OR","28","M","{""name"":""Chrome"",""chrome"":true,""version"":""106.0"",""blink"":true,""windows"":true,""osname"":""Windows"",""osversion"":""10"",""a"":true}","9:20:7","1","3","Test_1","70","f","1","1540.9000000059605","1360 x 768","1360 x 768","true","1","10","","","","",""
"null","<p style=""font-size: 80px;"">+ 10 points</p>","null","html-keyboard-response","186","873255","0.0-11.0-2.185","5badf5bd0a2d4400010c683e","r55oor","OR","28","M","{""name"":""Chrome"",""chrome"":true,""version"":""106.0"",""blink"":true,""windows"":true,""osname"":""Windows"",""osversion"":""10"",""a"":true}","9:20:7","1","3","Test_3","70","f","1","768.6000000089407","1360 x 768","1360 x 768","true","1","10","","","","",""
"null","<p style=""font-size: 80px;"">+ 10 points</p>","null","html-keyboard-response","187","876386","0.0-11.0-2.186","5badf5bd0a2d4400010c683e","r55oor","OR","28","M","{""name"":""Chrome"",""chrome"":true,""version"":""106.0"",""blink"":true,""windows"":true,""osname"":""Windows"",""osversion"":""10"",""a"":true}","9:20:7","1","3","Test_4","74","j","1","1101.2000000029802","1360 x 768","1360 x 768","true","1","10","","","","",""
"null","<p style=""font-size: 80px;"">+ 10 points</p>","null","html-keyboard-response","188","878986","0.0-11.0-2.187","5badf5bd0a2d4400010c683e","r55oor","OR","28","M","{""name"":""Chrome"",""chrome"":true,""version"":""106.0"",""blink"":true,""windows"":true,""osname"":""Windows"",""osversion"":""10"",""a"":true}","9:20:7","1","3","Test_1","70","f","1","570.1999999880791","1360 x 768","1360 x 768","true","1","10","","","","",""
"null","<p style=""font-size: 80px;"">+ 10 points</p>","null","html-keyboard-response","189","881902","0.0-11.0-2.188","5badf5bd0a2d4400010c683e","r55oor","OR","28","M","{""name"":""Chrome"",""chrome"":true,""version"":""106.0"",""blink"":true,""windows"":true,""osname"":""Windows"",""osversion"":""10"",""a"":true}","9:20:7","1","3","Test_3","70","f","1","888.2999999970198","1360 x 768","1360 x 768","true","1","10","","","","",""
