"rt","stimulus","key_press","trial_type","trial_index","time_elapsed","internal_node_id","Prolific_ID","random_ID","initials","age","gender","pc_info","start_time","Phase","Rule","Stimulus","Response","CorrResp","Accuracy","ResponseTime","screen_resolution","window_resolution","focus","relevant","Points","responses","question_order","rev_check","butterfly_check","passed_practice"
"null","<p style=""font-size: 80px;"">+ 0 points</p>","null","html-keyboard-response","1","191121","0.0-7.0-2.0","6157671b6ca7514f658ed117","kgtn4p","AE","31","F","{""name"":""Chrome"",""chrome"":true,""version"":""106.0"",""blink"":true,""windows"":true,""osname"":""Windows"",""osversion"":""10"",""a"":true}","9:14:59","0","1","Practice_4","70","j","0","1018.1999999999534","1920 x 1080","1920 x 1080","true","1","0","","","","",""
"null","<p style=""font-size: 80px;"">+ 10 points</p>","null","html-keyboard-response","2","193893","0.0-7.0-2.1","6157671b6ca7514f658ed117","kgtn4p","AE","31","F","{""name"":""Chrome"",""chrome"":true,""version"":""106.0"",""blink"":true,""windows"":true,""osname"":""Windows"",""osversion"":""10"",""a"":true}","9:14:59","0","1","Practice_4","74","j","1","742.9000000001397","1920 x 1080","1920 x 1080","true","1","10","","","","",""
"null","<p style=""font-size: 80px;"">+ 10 points</p>","null","html-keyboard-response","3","197233","0.0-7.0-2.2","6157671b6ca7514f658ed117","kgtn4p","AE","31","F","{""name"":""Chrome"",""chrome"":true,""version"":""106.0"",""blink"":true,""windows"":true,""osname"":""Windows"",""osversion"":""10"",""a"":true}","9:14:59","0","1","Practice_3","70","f","1","1314.0999999998603","1920 x 1080","1920 x 1080","true","1","10","","","","",""
"null","<p style=""font-size: 80px;"">+ 10 points</p>","null","html-keyboard-response","4","200051","0.0-7.0-2.3","6157671b6ca7514f658ed117","kgtn4p","AE","31","F","{""name"":""Chrome"",""chrome"":true,""version"":""106.0"",""blink"":true,""windows"":true,""osname"":""Windows"",""osversion"":""10"",""a"":true}","9:14:59","0","1","Practice_4","74","j","1","799.1000000000931","1920 x 1080","1920 x 1080","true","1","10","","","","",""
"null","<p style=""font-size: 80px;"">+ 10 points</p>","null","html-keyboard-response","5","203424","0.0-7.0-2.4","6157671b6ca7514f658ed117","kgtn4p","AE","31","F","{""name"":""Chrome"",""chrome"":true,""version"":""106.0"",""blink"":true,""windows"":true,""osname"":""Windows"",""osversion"":""10"",""a"":true}","9:14:59","0","1","Practice_1","70","f","1","1344.8999999999069","1920 x 1080","1920 x 1080","true","1","10","","","","",""
"null","<p style=""font-size: 80px;"">+ 10 points</p>","null","html-keyboard-response","6","207048","0.0-7.0-2.5","6157671b6ca7514f658ed117","kgtn4p","AE","31","F","{""name"":""Chrome"",""chrome"":true,""version"":""106.0"",""blink"":true,""windows"":true,""osname"":""Windows"",""osversion"":""10"",""a"":true}","9:14:59","0","1","Practice_3","70","f","1","1604.8000000000466","1920 x 1080","1920 x 1080","true","1","10","","","","",""
"null","<p style=""font-size: 80px;"">+ 10 points</p>","null","html-keyboard-response","7","210343","0.0-7.0-2.6","6157671b6ca7514f658ed117","kgtn4p","AE","31","F","{""name"":""Chrome"",""chrome"":true,""version"":""106.0"",""blink"":true,""windows"":true,""osname"":""Windows"",""osversion"":""10"",""a"":true}","9:14:59","0","1","Practice_1","70","f","1","1276.3999999999069","1920 x 1080","1920 x 1080","true","1","10","","","","",""
"null","<p style=""font-size: 80px;"">+ 10 points</p>","null","html-keyboard-response","8","213454","0.0-7.0-2.7","6157671b6ca7514f658ed117","kgtn4p","AE","31","F","{""name"":""Chrome"",""chrome"":true,""version"":""106.0"",""blink"":true,""windows"":true,""osname"":""Windows"",""osversion"":""10"",""a"":true}","9:14:59","0","1","Practice_2","74","j","1","1087.8000000000466","1920 x 1080","1920 x 1080","true","1","10","","","","",""
"null","<p style=""font-size: 80px;"">+ 10 points</p>","null","html-keyboard-response","9","216406","0.0-7.0-2.8","6157671b6ca7514f658ed117","kgtn4p","AE","31","F","{""name"":""Chrome"",""chrome"":true,""version"":""106.0"",""blink"":true,""windows"":true,""osname"":""Windows"",""osversion"":""10"",""a"":true}","9:14:59","0","1","Practice_4","74","j","1","923.2000000001863","1920 x 1080","1920 x 1080","true","1","10","","","","",""
"null","<p style=""font-size: 80px;"">+ 10 points</p>","null","html-keyboard-response","10","219720","0.0-7.0-2.9","6157671b6ca7514f658ed117","kgtn4p","AE","31","F","{""name"":""Chrome"",""chrome"":true,""version"":""106.0"",""blink"":true,""windows"":true,""osname"":""Windows"",""osversion"":""10"",""a"":true}","9:14:59","0","1","Practice_1","70","f","1","1287.1999999999534","1920 x 1080","1920 x 1080","true","1","10","","","","",""
"null","<p style=""font-size: 80px;"">+ 10 points</p>","null","html-keyboard-response","11","222501","0.0-7.0-2.10","6157671b6ca7514f658ed117","kgtn4p","AE","31","F","{""name"":""Chrome"",""chrome"":true,""version"":""106.0"",""blink"":true,""windows"":true,""osname"":""Windows"",""osversion"":""10"",""a"":true}","9:14:59","0","1","Practice_4","74","j","1","753.9000000001397","1920 x 1080","1920 x 1080","true","1","10","","","","",""
"null","<p style=""font-size: 80px;"">+ 10 points</p>","null","html-keyboard-response","12","225517","0.0-7.0-2.11","6157671b6ca7514f658ed117","kgtn4p","AE","31","F","{""name"":""Chrome"",""chrome"":true,""version"":""106.0"",""blink"":true,""windows"":true,""osname"":""Windows"",""osversion"":""10"",""a"":true}","9:14:59","0","1","Practice_2","74","j","1","987.3999999999069","1920 x 1080","1920 x 1080","true","1","10","","","","",""
"null","<p style=""font-size: 80px;"">+ 10 points</p>","null","html-keyboard-response","13","228202","0.0-7.0-2.12","6157671b6ca7514f658ed117","kgtn4p","AE","31","F","{""name"":""Chrome"",""chrome"":true,""version"":""106.0"",""blink"":true,""windows"":true,""osname"":""Windows"",""osversion"":""10"",""a"":true}","9:14:59","0","1","Practice_2","74","j","1","660.2999999998137","1920 x 1080","1920 x 1080","true","1","10","","","","",""
"null","<p style=""font-size: 80px;"">+ 10 points</p>","null","html-keyboard-response","14","231198","0.0-7.0-2.13","6157671b6ca7514f658ed117","kgtn4p","AE","31","F","{""name"":""Chrome"",""chrome"":true,""version"":""106.0"",""blink"":true,""windows"":true,""osname"":""Windows"",""osversion"":""10"",""a"":true}","9:14:59","0","1","Practice_3","70","f","1","991.9000000001397","1920 x 1080","1920 x 1080","true","1","10","","","","",""
"null","<p style=""font-size: 80px;"">+ 10 points</p>","null","html-keyboard-response","15","233938","0.0-7.0-2.14","6157671b6ca7514f658ed117","kgtn4p","AE","31","F","{""name"":""Chrome"",""chrome"":true,""version"":""106.0"",""blink"":true,""windows"":true,""osname"":""Windows"",""osversion"":""10"",""a"":true}","9:14:59","0","1","Practice_2","74","j","1","730","1920 x 1080","1920 x 1080","true","1","10","","","","",""
"null","<p style=""font-size: 80px;"">+ 10 points</p>","null","html-keyboard-response","16","236577","0.0-7.0-2.15","6157671b6ca7514f658ed117","kgtn4p","AE","31","F","{""name"":""Chrome"",""chrome"":true,""version"":""106.0"",""blink"":true,""windows"":true,""osname"":""Windows"",""osversion"":""10"",""a"":true}","9:14:59","0","1","Practice_3","70","f","1","611.8000000000466","1920 x 1080","1920 x 1080","true","1","10","","","","",""
"null","<p style=""font-size: 80px;"">+ 10 points</p>","null","html-keyboard-response","17","239391","0.0-7.0-2.16","6157671b6ca7514f658ed117","kgtn4p","AE","31","F","{""name"":""Chrome"",""chrome"":true,""version"":""106.0"",""blink"":true,""windows"":true,""osname"":""Windows"",""osversion"":""10"",""a"":true}","9:14:59","0","1","Practice_1","70","f","1","792.6999999999534","1920 x 1080","1920 x 1080","true","1","10","","","","",""
"null","<p style=""font-size: 80px;"">+ 10 points</p>","null","html-keyboard-response","18","242284","0.0-7.0-2.17","6157671b6ca7514f658ed117","kgtn4p","AE","31","F","{""name"":""Chrome"",""chrome"":true,""version"":""106.0"",""blink"":true,""windows"":true,""osname"":""Windows"",""osversion"":""10"",""a"":true}","9:14:59","0","1","Practice_3","70","f","1","873.8000000000466","1920 x 1080","1920 x 1080","true","1","10","","","","",""
"null","<p style=""font-size: 80px;"">+ 10 points</p>","null","html-keyboard-response","19","244938","0.0-7.0-2.18","6157671b6ca7514f658ed117","kgtn4p","AE","31","F","{""name"":""Chrome"",""chrome"":true,""version"":""106.0"",""blink"":true,""windows"":true,""osname"":""Windows"",""osversion"":""10"",""a"":true}","9:14:59","0","1","Practice_2","74","j","1","634.8000000000466","1920 x 1080","1920 x 1080","true","1","10","","","","",""
"null","<p style=""font-size: 80px;"">+ 10 points</p>","null","html-keyboard-response","20","247528","0.0-7.0-2.19","6157671b6ca7514f658ed117","kgtn4p","AE","31","F","{""name"":""Chrome"",""chrome"":true,""version"":""106.0"",""blink"":true,""windows"":true,""osname"":""Windows"",""osversion"":""10"",""a"":true}","9:14:59","0","1","Practice_1","70","f","1","566.5","1920 x 1080","1920 x 1080","true","1","10","","","","",""
"null","<p style=""font-size: 80px;"">+ 0 points</p>","null","html-keyboard-response","21","250435","0.0-7.0-2.20","6157671b6ca7514f658ed117","kgtn4p","AE","31","F","{""name"":""Chrome"",""chrome"":true,""version"":""106.0"",""blink"":true,""windows"":true,""osname"":""Windows"",""osversion"":""10"",""a"":true}","9:14:59","0","2","Practice_4","74","f","0","891.3000000000466","1920 x 1080","1920 x 1080","true","1","0","","","","",""
"null","<p style=""font-size: 80px;"">+ 10 points</p>","null","html-keyboard-response","22","253643","0.0-7.0-2.21","6157671b6ca7514f658ed117","kgtn4p","AE","31","F","{""name"":""Chrome"",""chrome"":true,""version"":""106.0"",""blink"":true,""windows"":true,""osname"":""Windows"",""osversion"":""10"",""a"":true}","9:14:59","0","2","Practice_3","74","j","1","1190.2999999998137","1920 x 1080","1920 x 1080","true","1","10","","","","",""
"null","<p style=""font-size: 80px;"">+ 0 points</p>","null","html-keyboard-response","23","256984","0.0-7.0-2.22","6157671b6ca7514f658ed117","kgtn4p","AE","31","F","{""name"":""Chrome"",""chrome"":true,""version"":""106.0"",""blink"":true,""windows"":true,""osname"":""Windows"",""osversion"":""10"",""a"":true}","9:14:59","0","2","Practice_4","74","f","0","1315","1920 x 1080","1920 x 1080","true","1","0","","","","",""
"null","<p style=""font-size: 80px;"">+ 10 points</p>","null","html-keyboard-response","24","260188","0.0-7.0-2.23","6157671b6ca7514f658ed117","kgtn4p","AE","31","F","{""name"":""Chrome"",""chrome"":true,""version"":""106.0"",""blink"":true,""windows"":true,""osname"":""Windows"",""osversion"":""10"",""a"":true}","9:14:59","0","2","Practice_1","74","j","1","1177.1999999999534","1920 x 1080","1920 x 1080","true","1","10","","","","",""
"null","<p style=""font-size: 80px;"">+ 10 points</p>","null","html-keyboard-response","25","263280","0.0-7.0-2.24","6157671b6ca7514f658ed117","kgtn4p","AE","31","F","{""name"":""Chrome"",""chrome"":true,""version"":""106.0"",""blink"":true,""windows"":true,""osname"":""Windows"",""osversion"":""10"",""a"":true}","9:14:59","0","2","Practice_3","74","j","1","1066.8000000000466","1920 x 1080","1920 x 1080","true","1","10","","","","",""
"null","<p style=""font-size: 80px;"">+ 10 points</p>","null","html-keyboard-response","26","266392","0.0-7.0-2.25","6157671b6ca7514f658ed117","kgtn4p","AE","31","F","{""name"":""Chrome"",""chrome"":true,""version"":""106.0"",""blink"":true,""windows"":true,""osname"":""Windows"",""osversion"":""10"",""a"":true}","9:14:59","0","2","Practice_4","70","f","1","1092.6000000000931","1920 x 1080","1920 x 1080","true","1","10","","","","",""
"null","<p style=""font-size: 80px;"">+ 10 points</p>","null","html-keyboard-response","27","269642","0.0-7.0-2.26","6157671b6ca7514f658ed117","kgtn4p","AE","31","F","{""name"":""Chrome"",""chrome"":true,""version"":""106.0"",""blink"":true,""windows"":true,""osname"":""Windows"",""osversion"":""10"",""a"":true}","9:14:59","0","2","Practice_2","70","f","1","1220.1999999999534","1920 x 1080","1920 x 1080","true","1","10","","","","",""
"null","<p style=""font-size: 80px;"">+ 10 points</p>","null","html-keyboard-response","28","272375","0.0-7.0-2.27","6157671b6ca7514f658ed117","kgtn4p","AE","31","F","{""name"":""Chrome"",""chrome"":true,""version"":""106.0"",""blink"":true,""windows"":true,""osname"":""Windows"",""osversion"":""10"",""a"":true}","9:14:59","0","2","Practice_2","70","f","1","703.9000000001397","1920 x 1080","1920 x 1080","true","1","10","","","","",""
"null","<p style=""font-size: 80px;"">+ 10 points</p>","null","html-keyboard-response","29","275312","0.0-7.0-2.28","6157671b6ca7514f658ed117","kgtn4p","AE","31","F","{""name"":""Chrome"",""chrome"":true,""version"":""106.0"",""blink"":true,""windows"":true,""osname"":""Windows"",""osversion"":""10"",""a"":true}","9:14:59","0","2","Practice_4","70","f","1","906.2000000001863","1920 x 1080","1920 x 1080","true","1","10","","","","",""
"null","<p style=""font-size: 80px;"">+ 10 points</p>","null","html-keyboard-response","30","278157","0.0-7.0-2.29","6157671b6ca7514f658ed117","kgtn4p","AE","31","F","{""name"":""Chrome"",""chrome"":true,""version"":""106.0"",""blink"":true,""windows"":true,""osname"":""Windows"",""osversion"":""10"",""a"":true}","9:14:59","0","2","Practice_4","70","f","1","815.5","1920 x 1080","1920 x 1080","true","1","10","","","","",""
"null","<p style=""font-size: 80px;"">+ 10 points</p>","null","html-keyboard-response","31","281612","0.0-7.0-2.30","6157671b6ca7514f658ed117","kgtn4p","AE","31","F","{""name"":""Chrome"",""chrome"":true,""version"":""106.0"",""blink"":true,""windows"":true,""osname"":""Windows"",""osversion"":""10"",""a"":true}","9:14:59","0","2","Practice_1","74","j","1","1427","1920 x 1080","1920 x 1080","true","1","10","","","","",""
"null","<p style=""font-size: 80px;"">+ 10 points</p>","null","html-keyboard-response","32","284687","0.0-7.0-2.31","6157671b6ca7514f658ed117","kgtn4p","AE","31","F","{""name"":""Chrome"",""chrome"":true,""version"":""106.0"",""blink"":true,""windows"":true,""osname"":""Windows"",""osversion"":""10"",""a"":true}","9:14:59","0","2","Practice_3","74","j","1","1066.6999999999534","1920 x 1080","1920 x 1080","true","1","10","","","","",""
"null","<p style=""font-size: 80px;"">+ 10 points</p>","null","html-keyboard-response","33","287749","0.0-7.0-2.32","6157671b6ca7514f658ed117","kgtn4p","AE","31","F","{""name"":""Chrome"",""chrome"":true,""version"":""106.0"",""blink"":true,""windows"":true,""osname"":""Windows"",""osversion"":""10"",""a"":true}","9:14:59","0","2","Practice_2","70","f","1","1035.1999999999534","1920 x 1080","1920 x 1080","true","1","10","","","","",""
"null","<p style=""font-size: 80px;"">+ 10 points</p>","null","html-keyboard-response","34","290797","0.0-7.0-2.33","6157671b6ca7514f658ed117","kgtn4p","AE","31","F","{""name"":""Chrome"",""chrome"":true,""version"":""106.0"",""blink"":true,""windows"":true,""osname"":""Windows"",""osversion"":""10"",""a"":true}","9:14:59","0","2","Practice_1","74","j","1","1023.1999999999534","1920 x 1080","1920 x 1080","true","1","10","","","","",""
"null","<p style=""font-size: 80px;"">+ 10 points</p>","null","html-keyboard-response","35","294873","0.0-7.0-2.34","6157671b6ca7514f658ed117","kgtn4p","AE","31","F","{""name"":""Chrome"",""chrome"":true,""version"":""106.0"",""blink"":true,""windows"":true,""osname"":""Windows"",""osversion"":""10"",""a"":true}","9:14:59","0","2","Practice_3","74","j","1","2049","1920 x 1080","1920 x 1080","true","1","10","","","","",""
"null","<p style=""font-size: 80px;"">+ 10 points</p>","null","html-keyboard-response","36","297891","0.0-7.0-2.35","6157671b6ca7514f658ed117","kgtn4p","AE","31","F","{""name"":""Chrome"",""chrome"":true,""version"":""106.0"",""blink"":true,""windows"":true,""osname"":""Windows"",""osversion"":""10"",""a"":true}","9:14:59","0","2","Practice_1","74","j","1","987.9000000001397","1920 x 1080","1920 x 1080","true","1","10","","","","",""
"null","<p style=""font-size: 80px;"">+ 10 points</p>","null","html-keyboard-response","37","300748","0.0-7.0-2.36","6157671b6ca7514f658ed117","kgtn4p","AE","31","F","{""name"":""Chrome"",""chrome"":true,""version"":""106.0"",""blink"":true,""windows"":true,""osname"":""Windows"",""osversion"":""10"",""a"":true}","9:14:59","0","2","Practice_3","74","j","1","836.8999999999069","1920 x 1080","1920 x 1080","true","1","10","","","","",""
"null","<p style=""font-size: 80px;"">+ 10 points</p>","null","html-keyboard-response","38","303783","0.0-7.0-2.37","6157671b6ca7514f658ed117","kgtn4p","AE","31","F","{""name"":""Chrome"",""chrome"":true,""version"":""106.0"",""blink"":true,""windows"":true,""osname"":""Windows"",""osversion"":""10"",""a"":true}","9:14:59","0","2","Practice_2","70","f","1","1031.6999999999534","1920 x 1080","1920 x 1080","true","1","10","","","","",""
"null","<p style=""font-size: 80px;"">+ 10 points</p>","null","html-keyboard-response","39","307015","0.0-7.0-2.38","6157671b6ca7514f658ed117","kgtn4p","AE","31","F","{""name"":""Chrome"",""chrome"":true,""version"":""106.0"",""blink"":true,""windows"":true,""osname"":""Windows"",""osversion"":""10"",""a"":true}","9:14:59","0","2","Practice_2","70","f","1","1221.3000000000466","1920 x 1080","1920 x 1080","true","1","10","","","","",""
"null","<p style=""font-size: 80px;"">+ 10 points</p>","null","html-keyboard-response","40","310594","0.0-7.0-2.39","6157671b6ca7514f658ed117","kgtn4p","AE","31","F","{""name"":""Chrome"",""chrome"":true,""version"":""106.0"",""blink"":true,""windows"":true,""osname"":""Windows"",""osversion"":""10"",""a"":true}","9:14:59","0","2","Practice_1","74","j","1","1547.1000000000931","1920 x 1080","1920 x 1080","true","1","10","","","","",""
"17959","","","survey-multi-choice","127","328554","0.0-8.0","6157671b6ca7514f658ed117","kgtn4p","AE","31","F","{""name"":""Chrome"",""chrome"":true,""version"":""106.0"",""blink"":true,""windows"":true,""osname"":""Windows"",""osversion"":""10"",""a"":true}","9:14:59","","","","","","","","","","","1","","{""Q0"":""The red one"",""Q1"":""1""}","[0,1]","1","The red one","2"
"null","<p style=""font-size: 80px;"">+ 0 points</p>","null","html-keyboard-response","1","343597","0.0-11.0-2.0","6157671b6ca7514f658ed117","kgtn4p","AE","31","F","{""name"":""Chrome"",""chrome"":true,""version"":""106.0"",""blink"":true,""windows"":true,""osname"":""Windows"",""osversion"":""10"",""a"":true}","9:14:59","1","4","Test_2","74","f","0","695.1999999999534","1920 x 1080","1920 x 1080","true","1","0","","","","",""
"null","<p style=""font-size: 80px;"">+ 10 points</p>","null","html-keyboard-response","2","346940","0.0-11.0-2.1","6157671b6ca7514f658ed117","kgtn4p","AE","31","F","{""name"":""Chrome"",""chrome"":true,""version"":""106.0"",""blink"":true,""windows"":true,""osname"":""Windows"",""osversion"":""10"",""a"":true}","9:14:59","1","4","Test_4","70","f","1","1328.5","1920 x 1080","1920 x 1080","true","1","10","","","","",""
"null","<p style=""font-size: 80px;"">+ 10 points</p>","null","html-keyboard-response","3","350424","0.0-11.0-2.2","6157671b6ca7514f658ed117","kgtn4p","AE","31","F","{""name"":""Chrome"",""chrome"":true,""version"":""106.0"",""blink"":true,""windows"":true,""osname"":""Windows"",""osversion"":""10"",""a"":true}","9:14:59","1","4","Test_2","70","f","1","1460.5","1920 x 1080","1920 x 1080","true","1","10","","","","",""
"null","<p style=""font-size: 80px;"">+ 10 points</p>","null","html-keyboard-response","4","353391","0.0-11.0-2.3","6157671b6ca7514f658ed117","kgtn4p","AE","31","F","{""name"":""Chrome"",""chrome"":true,""version"":""106.0"",""blink"":true,""windows"":true,""osname"":""Windows"",""osversion"":""10"",""a"":true}","9:14:59","1","4","Test_3","74","j","1","936.3000000000466","1920 x 1080","1920 x 1080","true","1","10","","","","",""
"null","<p style=""font-size: 80px;"">+ 10 points</p>","null","html-keyboard-response","5","356212","0.0-11.0-2.4","6157671b6ca7514f658ed117","kgtn4p","AE","31","F","{""name"":""Chrome"",""chrome"":true,""version"":""106.0"",""blink"":true,""windows"":true,""osname"":""Windows"",""osversion"":""10"",""a"":true}","9:14:59","1","4","Test_3","74","j","1","801.5999999998603","1920 x 1080","1920 x 1080","true","1","10","","","","",""
"null","<p style=""font-size: 80px;"">+ 10 points</p>","null","html-keyboard-response","6","359296","0.0-11.0-2.5","6157671b6ca7514f658ed117","kgtn4p","AE","31","F","{""name"":""Chrome"",""chrome"":true,""version"":""106.0"",""blink"":true,""windows"":true,""osname"":""Windows"",""osversion"":""10"",""a"":true}","9:14:59","1","4","Test_2","70","f","1","1064.8000000000466","1920 x 1080","1920 x 1080","true","1","10","","","","",""
"null","<p style=""font-size: 80px;"">+ 10 points</p>","null","html-keyboard-response","7","362670","0.0-11.0-2.6","6157671b6ca7514f658ed117","kgtn4p","AE","31","F","{""name"":""Chrome"",""chrome"":true,""version"":""106.0"",""blink"":true,""windows"":true,""osname"":""Windows"",""osversion"":""10"",""a"":true}","9:14:59","1","4","Test_1","74","j","1","1343.1999999999534","1920 x 1080","1920 x 1080","true","1","10","","","","",""
"null","<p style=""font-size: 80px;"">+ 10 points</p>","null","html-keyboard-response","8","366452","0.0-11.0-2.7","6157671b6ca7514f658ed117","kgtn4p","AE","31","F","{""name"":""Chrome"",""chrome"":true,""version"":""106.0"",""blink"":true,""windows"":true,""osname"":""Windows"",""osversion"":""10"",""a"":true}","9:14:59","1","4","Test_4","70","f","1","1773.8000000000466","1920 x 1080","1920 x 1080","true","1","10","","","","",""
"null","<p style=""font-size: 80px;"">+ 10 points</p>","null","html-keyboard-response","9","369041","0.0-11.0-2.8","6157671b6ca7514f658ed117","kgtn4p","AE","31","F","{""name"":""Chrome"",""chrome"":true,""version"":""106.0"",""blink"":true,""windows"":true,""osname"":""Windows"",""osversion"":""10"",""a"":true}","9:14:59","1","4","Test_3","74","j","1","565.3000000000466","1920 x 1080","1920 x 1080","true","1","10","","","","",""
"null","<p style=""font-size: 80px;"">+ 0 points</p>","null","html-keyboard-response","10","372514","0.0-11.0-2.9","6157671b6ca7514f658ed117","kgtn4p","AE","31","F","{""name"":""Chrome"",""chrome"":true,""version"":""106.0"",""blink"":true,""windows"":true,""osname"":""Windows"",""osversion"":""10"",""a"":true}","9:14:59","1","4","Test_1","70","j","0","1451.0999999998603","1920 x 1080","1920 x 1080","true","1","0","","","","",""
"null","<p style=""font-size: 80px;"">+ 0 points</p>","null","html-keyboard-response","11","375579","0.0-11.0-2.10","6157671b6ca7514f658ed117","kgtn4p","AE","31","F","{""name"":""Chrome"",""chrome"":true,""version"":""106.0"",""blink"":true,""windows"":true,""osname"":""Windows"",""osversion"":""10"",""a"":true}","9:14:59","1","4","Test_2","74","f","0","1039.2000000001863","1920 x 1080","1920 x 1080","true","1","0","","","","",""
"null","<p style=""font-size: 80px;"">+ 0 points</p>","null","html-keyboard-response","12","379186","0.0-11.0-2.11","6157671b6ca7514f658ed117","kgtn4p","AE","31","F","{""name"":""Chrome"",""chrome"":true,""version"":""106.0"",""blink"":true,""windows"":true,""osname"":""Windows"",""osversion"":""10"",""a"":true}","9:14:59","1","4","Test_4","74","f","0","1576.4000000001397","1920 x 1080","1920 x 1080","true","1","0","","","","",""
"null","<p style=""font-size: 80px;"">+ 10 points</p>","null","html-keyboard-response","13","382469","0.0-11.0-2.12","6157671b6ca7514f658ed117","kgtn4p","AE","31","F","{""name"":""Chrome"",""chrome"":true,""version"":""106.0"",""blink"":true,""windows"":true,""osname"":""Windows"",""osversion"":""10"",""a"":true}","9:14:59","1","4","Test_1","74","j","1","1253.0999999998603","1920 x 1080","1920 x 1080","true","1","10","","","","",""
"null","<p style=""font-size: 80px;"">+ 0 points</p>","null","html-keyboard-response","14","385425","0.0-11.0-2.13","6157671b6ca7514f658ed117","kgtn4p","AE","31","F","{""name"":""Chrome"",""chrome"":true,""version"":""106.0"",""blink"":true,""windows"":true,""osname"":""Windows"",""osversion"":""10"",""a"":true}","9:14:59","1","4","Test_4","74","f","0","930.3000000000466","1920 x 1080","1920 x 1080","true","1","0","","","","",""
"null","<p style=""font-size: 80px;"">+ 0 points</p>","null","html-keyboard-response","15","388724","0.0-11.0-2.14","6157671b6ca7514f658ed117","kgtn4p","AE","31","F","{""name"":""Chrome"",""chrome"":true,""version"":""106.0"",""blink"":true,""windows"":true,""osname"":""Windows"",""osversion"":""10"",""a"":true}","9:14:59","1","4","Test_1","70","j","0","1281.8000000000466","1920 x 1080","1920 x 1080","true","1","0","","","","",""
"null","<p style=""font-size: 80px;"">+ 10 points</p>","null","html-keyboard-response","16","391813","0.0-11.0-2.15","6157671b6ca7514f658ed117","kgtn4p","AE","31","F","{""name"":""Chrome"",""chrome"":true,""version"":""106.0"",""blink"":true,""windows"":true,""osname"":""Windows"",""osversion"":""10"",""a"":true}","9:14:59","1","4","Test_3","74","j","1","1069","1920 x 1080","1920 x 1080","true","1","10","","","","",""
"null","<p style=""font-size: 80px;"">+ 0 points</p>","null","html-keyboard-response","17","395046","0.0-11.0-2.16","6157671b6ca7514f658ed117","kgtn4p","AE","31","F","{""name"":""Chrome"",""chrome"":true,""version"":""106.0"",""blink"":true,""windows"":true,""osname"":""Windows"",""osversion"":""10"",""a"":true}","9:14:59","1","3","Test_4","70","j","0","1204.1999999999534","1920 x 1080","1920 x 1080","true","1","0","","","","",""
"null","<p style=""font-size: 80px;"">+ 0 points</p>","null","html-keyboard-response","18","398015","0.0-11.0-2.17","6157671b6ca7514f658ed117","kgtn4p","AE","31","F","{""name"":""Chrome"",""chrome"":true,""version"":""106.0"",""blink"":true,""windows"":true,""osname"":""Windows"",""osversion"":""10"",""a"":true}","9:14:59","1","3","Test_3","74","f","0","956.5","1920 x 1080","1920 x 1080","true","1","0","","","","",""
"null","<p style=""font-size: 80px;"">+ 10 points</p>","null","html-keyboard-response","19","401515","0.0-11.0-2.18","6157671b6ca7514f658ed117","kgtn4p","AE","31","F","{""name"":""Chrome"",""chrome"":true,""version"":""106.0"",""blink"":true,""windows"":true,""osname"":""Windows"",""osversion"":""10"",""a"":true}","9:14:59","1","3","Test_4","74","j","1","1482","1920 x 1080","1920 x 1080","true","1","10","","","","",""
"null","<p style=""font-size: 80px;"">+ 10 points</p>","null","html-keyboard-response","20","404351","0.0-11.0-2.19","6157671b6ca7514f658ed117","kgtn4p","AE","31","F","{""name"":""Chrome"",""chrome"":true,""version"":""106.0"",""blink"":true,""windows"":true,""osname"":""Windows"",""osversion"":""10"",""a"":true}","9:14:59","1","3","Test_4","74","j","1","817.3000000000466","1920 x 1080","1920 x 1080","true","1","10","","","","",""
"null","<p style=""font-size: 80px;"">+ 10 points</p>","null","html-keyboard-response","21","407673","0.0-11.0-2.20","6157671b6ca7514f658ed117","kgtn4p","AE","31","F","{""name"":""Chrome"",""chrome"":true,""version"":""106.0"",""blink"":true,""windows"":true,""osname"":""Windows"",""osversion"":""10"",""a"":true}","9:14:59","1","3","Test_2","74","j","1","1307.0999999998603","1920 x 1080","1920 x 1080","true","1","10","","","","",""
"null","<p style=""font-size: 80px;"">+ 0 points</p>","null","html-keyboard-response","22","410908","0.0-11.0-2.21","6157671b6ca7514f658ed117","kgtn4p","AE","31","F","{""name"":""Chrome"",""chrome"":true,""version"":""106.0"",""blink"":true,""windows"":true,""osname"":""Windows"",""osversion"":""10"",""a"":true}","9:14:59","1","3","Test_4","70","j","0","1208.6000000000931","1920 x 1080","1920 x 1080","true","1","0","","","","",""
"null","<p style=""font-size: 80px;"">+ 10 points</p>","null","html-keyboard-response","23","414076","0.0-11.0-2.22","6157671b6ca7514f658ed117","kgtn4p","AE","31","F","{""name"":""Chrome"",""chrome"":true,""version"":""106.0"",""blink"":true,""windows"":true,""osname"":""Windows"",""osversion"":""10"",""a"":true}","9:14:59","1","3","Test_2","74","j","1","1145.6000000000931","1920 x 1080","1920 x 1080","true","1","10","","","","",""
"null","<p style=""font-size: 80px;"">+ 10 points</p>","null","html-keyboard-response","24","417797","0.0-11.0-2.23","6157671b6ca7514f658ed117","kgtn4p","AE","31","F","{""name"":""Chrome"",""chrome"":true,""version"":""106.0"",""blink"":true,""windows"":true,""osname"":""Windows"",""osversion"":""10"",""a"":true}","9:14:59","1","3","Test_4","74","j","1","1702.1000000000931","1920 x 1080","1920 x 1080","true","1","10","","","","",""
"null","<p style=""font-size: 80px;"">+ 10 points</p>","null","html-keyboard-response","25","420968","0.0-11.0-2.24","6157671b6ca7514f658ed117","kgtn4p","AE","31","F","{""name"":""Chrome"",""chrome"":true,""version"":""106.0"",""blink"":true,""windows"":true,""osname"":""Windows"",""osversion"":""10"",""a"":true}","9:14:59","1","3","Test_3","70","f","1","1152.3000000000466","1920 x 1080","1920 x 1080","true","1","10","","","","",""
"null","<p style=""font-size: 80px;"">+ 10 points</p>","null","html-keyboard-response","26","423908","0.0-11.0-2.25","6157671b6ca7514f658ed117","kgtn4p","AE","31","F","{""name"":""Chrome"",""chrome"":true,""version"":""106.0"",""blink"":true,""windows"":true,""osname"":""Windows"",""osversion"":""10"",""a"":true}","9:14:59","1","3","Test_2","74","j","1","931.5999999998603","1920 x 1080","1920 x 1080","true","1","10","","","","",""
"null","<p style=""font-size: 80px;"">+ 10 points</p>","null","html-keyboard-response","27","427404","0.0-11.0-2.26","6157671b6ca7514f658ed117","kgtn4p","AE","31","F","{""name"":""Chrome"",""chrome"":true,""version"":""106.0"",""blink"":true,""windows"":true,""osname"":""Windows"",""osversion"":""10"",""a"":true}","9:14:59","1","3","Test_1","70","f","1","1478.3999999999069","1920 x 1080","1920 x 1080","true","1","10","","","","",""
"null","<p style=""font-size: 80px;"">+ 10 points</p>","null","html-keyboard-response","28","430294","0.0-11.0-2.27","6157671b6ca7514f658ed117","kgtn4p","AE","31","F","{""name"":""Chrome"",""chrome"":true,""version"":""106.0"",""blink"":true,""windows"":true,""osname"":""Windows"",""osversion"":""10"",""a"":true}","9:14:59","1","3","Test_2","74","j","1","874.8000000000466","1920 x 1080","1920 x 1080","true","1","10","","","","",""
"null","<p style=""font-size: 80px;"">+ 10 points</p>","null","html-keyboard-response","29","433046","0.0-11.0-2.28","6157671b6ca7514f658ed117","kgtn4p","AE","31","F","{""name"":""Chrome"",""chrome"":true,""version"":""106.0"",""blink"":true,""windows"":true,""osname"":""Windows"",""osversion"":""10"",""a"":true}","9:14:59","1","3","Test_2","74","j","1","725.5","1920 x 1080","1920 x 1080","true","1","10","","","","",""
"null","<p style=""font-size: 80px;"">+ 10 points</p>","null","html-keyboard-response","30","436030","0.0-11.0-2.29","6157671b6ca7514f658ed117","kgtn4p","AE","31","F","{""name"":""Chrome"",""chrome"":true,""version"":""106.0"",""blink"":true,""windows"":true,""osname"":""Windows"",""osversion"":""10"",""a"":true}","9:14:59","1","3","Test_3","70","f","1","967","1920 x 1080","1920 x 1080","true","1","10","","","","",""
"null","<p style=""font-size: 80px;"">+ 10 points</p>","null","html-keyboard-response","31","439109","0.0-11.0-2.30","6157671b6ca7514f658ed117","kgtn4p","AE","31","F","{""name"":""Chrome"",""chrome"":true,""version"":""106.0"",""blink"":true,""windows"":true,""osname"":""Windows"",""osversion"":""10"",""a"":true}","9:14:59","1","3","Test_1","70","f","1","1067.1999999999534","1920 x 1080","1920 x 1080","true","1","10","","","","",""
"null","<p style=""font-size: 80px;"">+ 10 points</p>","null","html-keyboard-response","32","442987","0.0-11.0-2.31","6157671b6ca7514f658ed117","kgtn4p","AE","31","F","{""name"":""Chrome"",""chrome"":true,""version"":""106.0"",""blink"":true,""windows"":true,""osname"":""Windows"",""osversion"":""10"",""a"":true}","9:14:59","1","3","Test_4","74","j","1","1846.5999999998603","1920 x 1080","1920 x 1080","true","1","10","","","","",""
"null","<p style=""font-size: 80px;"">+ 10 points</p>","null","html-keyboard-response","33","446750","0.0-11.0-2.32","6157671b6ca7514f658ed117","kgtn4p","AE","31","F","{""name"":""Chrome"",""chrome"":true,""version"":""106.0"",""blink"":true,""windows"":true,""osname"":""Windows"",""osversion"":""10"",""a"":true}","9:14:59","1","3","Test_1","70","f","1","1740.3000000000466","1920 x 1080","1920 x 1080","true","1","10","","","","",""
"null","<p style=""font-size: 80px;"">+ 10 points</p>","null","html-keyboard-response","34","449722","0.0-11.0-2.33","6157671b6ca7514f658ed117","kgtn4p","AE","31","F","{""name"":""Chrome"",""chrome"":true,""version"":""106.0"",""blink"":true,""windows"":true,""osname"":""Windows"",""osversion"":""10"",""a"":true}","9:14:59","1","3","Test_1","70","f","1","943.3999999999069","1920 x 1080","1920 x 1080","true","1","10","","","","",""
"null","<p style=""font-size: 80px;"">+ 10 points</p>","null","html-keyboard-response","35","452657","0.0-11.0-2.34","6157671b6ca7514f658ed117","kgtn4p","AE","31","F","{""name"":""Chrome"",""chrome"":true,""version"":""106.0"",""blink"":true,""windows"":true,""osname"":""Windows"",""osversion"":""10"",""a"":true}","9:14:59","1","3","Test_2","74","j","1","907.2000000001863","1920 x 1080","1920 x 1080","true","1","10","","","","",""
"null","<p style=""font-size: 80px;"">+ 10 points</p>","null","html-keyboard-response","36","455531","0.0-11.0-2.35","6157671b6ca7514f658ed117","kgtn4p","AE","31","F","{""name"":""Chrome"",""chrome"":true,""version"":""106.0"",""blink"":true,""windows"":true,""osname"":""Windows"",""osversion"":""10"",""a"":true}","9:14:59","1","3","Test_3","70","f","1","855.5","1920 x 1080","1920 x 1080","true","1","10","","","","",""
"null","<p style=""font-size: 80px;"">+ 10 points</p>","null","html-keyboard-response","37","459142","0.0-11.0-2.36","6157671b6ca7514f658ed117","kgtn4p","AE","31","F","{""name"":""Chrome"",""chrome"":true,""version"":""106.0"",""blink"":true,""windows"":true,""osname"":""Windows"",""osversion"":""10"",""a"":true}","9:14:59","1","3","Test_1","70","f","1","1579","1920 x 1080","1920 x 1080","true","1","10","","","","",""
"null","<p style=""font-size: 80px;"">+ 10 points</p>","null","html-keyboard-response","38","461942","0.0-11.0-2.37","6157671b6ca7514f658ed117","kgtn4p","AE","31","F","{""name"":""Chrome"",""chrome"":true,""version"":""106.0"",""blink"":true,""windows"":true,""osname"":""Windows"",""osversion"":""10"",""a"":true}","9:14:59","1","3","Test_1","70","f","1","771.0999999998603","1920 x 1080","1920 x 1080","true","1","10","","","","",""
"null","<p style=""font-size: 80px;"">+ 10 points</p>","null","html-keyboard-response","39","465316","0.0-11.0-2.38","6157671b6ca7514f658ed117","kgtn4p","AE","31","F","{""name"":""Chrome"",""chrome"":true,""version"":""106.0"",""blink"":true,""windows"":true,""osname"":""Windows"",""osversion"":""10"",""a"":true}","9:14:59","1","3","Test_3","70","f","1","1364.1000000000931","1920 x 1080","1920 x 1080","true","1","10","","","","",""
"null","<p style=""font-size: 80px;"">+ 10 points</p>","null","html-keyboard-response","40","468063","0.0-11.0-2.39","6157671b6ca7514f658ed117","kgtn4p","AE","31","F","{""name"":""Chrome"",""chrome"":true,""version"":""106.0"",""blink"":true,""windows"":true,""osname"":""Windows"",""osversion"":""10"",""a"":true}","9:14:59","1","3","Test_3","70","f","1","718.9000000001397","1920 x 1080","1920 x 1080","true","1","10","","","","",""
"null","<p style=""font-size: 80px;"">+ 0 points</p>","null","html-keyboard-response","41","471123","0.0-11.0-2.40","6157671b6ca7514f658ed117","kgtn4p","AE","31","F","{""name"":""Chrome"",""chrome"":true,""version"":""106.0"",""blink"":true,""windows"":true,""osname"":""Windows"",""osversion"":""10"",""a"":true}","9:14:59","1","4","Test_4","74","f","0","1030.1999999999534","1920 x 1080","1920 x 1080","true","1","0","","","","",""
"null","<p style=""font-size: 80px;"">+ 10 points</p>","null","html-keyboard-response","42","474452","0.0-11.0-2.41","6157671b6ca7514f658ed117","kgtn4p","AE","31","F","{""name"":""Chrome"",""chrome"":true,""version"":""106.0"",""blink"":true,""windows"":true,""osname"":""Windows"",""osversion"":""10"",""a"":true}","9:14:59","1","4","Test_4","70","f","1","1309.8000000000466","1920 x 1080","1920 x 1080","true","1","10","","","","",""
"null","<p style=""font-size: 80px;"">+ 10 points</p>","null","html-keyboard-response","43","478469","0.0-11.0-2.42","6157671b6ca7514f658ed117","kgtn4p","AE","31","F","{""name"":""Chrome"",""chrome"":true,""version"":""106.0"",""blink"":true,""windows"":true,""osname"":""Windows"",""osversion"":""10"",""a"":true}","9:14:59","1","4","Test_2","70","f","1","1986.3000000000466","1920 x 1080","1920 x 1080","true","1","10","","","","",""
"null","<p style=""font-size: 80px;"">+ 10 points</p>","null","html-keyboard-response","44","481842","0.0-11.0-2.43","6157671b6ca7514f658ed117","kgtn4p","AE","31","F","{""name"":""Chrome"",""chrome"":true,""version"":""106.0"",""blink"":true,""windows"":true,""osname"":""Windows"",""osversion"":""10"",""a"":true}","9:14:59","1","4","Test_2","70","f","1","1344.3999999999069","1920 x 1080","1920 x 1080","true","1","10","","","","",""
"null","<p style=""font-size: 80px;"">+ 0 points</p>","null","html-keyboard-response","45","486171","0.0-11.0-2.44","6157671b6ca7514f658ed117","kgtn4p","AE","31","F","{""name"":""Chrome"",""chrome"":true,""version"":""106.0"",""blink"":true,""windows"":true,""osname"":""Windows"",""osversion"":""10"",""a"":true}","9:14:59","1","4","Test_1","70","j","0","2300.8000000000466","1920 x 1080","1920 x 1080","true","1","0","","","","",""
"null","<p style=""font-size: 80px;"">+ 10 points</p>","null","html-keyboard-response","46","489720","0.0-11.0-2.45","6157671b6ca7514f658ed117","kgtn4p","AE","31","F","{""name"":""Chrome"",""chrome"":true,""version"":""106.0"",""blink"":true,""windows"":true,""osname"":""Windows"",""osversion"":""10"",""a"":true}","9:14:59","1","4","Test_2","70","f","1","1517.6999999999534","1920 x 1080","1920 x 1080","true","1","10","","","","",""
"null","<p style=""font-size: 80px;"">+ 10 points</p>","null","html-keyboard-response","47","492452","0.0-11.0-2.46","6157671b6ca7514f658ed117","kgtn4p","AE","31","F","{""name"":""Chrome"",""chrome"":true,""version"":""106.0"",""blink"":true,""windows"":true,""osname"":""Windows"",""osversion"":""10"",""a"":true}","9:14:59","1","4","Test_2","70","f","1","714.8000000000466","1920 x 1080","1920 x 1080","true","1","10","","","","",""
"null","<p style=""font-size: 80px;"">+ 10 points</p>","null","html-keyboard-response","48","495516","0.0-11.0-2.47","6157671b6ca7514f658ed117","kgtn4p","AE","31","F","{""name"":""Chrome"",""chrome"":true,""version"":""106.0"",""blink"":true,""windows"":true,""osname"":""Windows"",""osversion"":""10"",""a"":true}","9:14:59","1","4","Test_3","74","j","1","1041","1920 x 1080","1920 x 1080","true","1","10","","","","",""
"null","<p style=""font-size: 80px;"">+ 10 points</p>","null","html-keyboard-response","49","498706","0.0-11.0-2.48","6157671b6ca7514f658ed117","kgtn4p","AE","31","F","{""name"":""Chrome"",""chrome"":true,""version"":""106.0"",""blink"":true,""windows"":true,""osname"":""Windows"",""osversion"":""10"",""a"":true}","9:14:59","1","4","Test_4","70","f","1","1185.6999999999534","1920 x 1080","1920 x 1080","true","1","10","","","","",""
"null","<p style=""font-size: 80px;"">+ 10 points</p>","null","html-keyboard-response","50","502609","0.0-11.0-2.49","6157671b6ca7514f658ed117","kgtn4p","AE","31","F","{""name"":""Chrome"",""chrome"":true,""version"":""106.0"",""blink"":true,""windows"":true,""osname"":""Windows"",""osversion"":""10"",""a"":true}","9:14:59","1","4","Test_1","74","j","1","1879.0999999998603","1920 x 1080","1920 x 1080","true","1","10","","","","",""
"null","<p style=""font-size: 80px;"">+ 10 points</p>","null","html-keyboard-response","51","505392","0.0-11.0-2.50","6157671b6ca7514f658ed117","kgtn4p","AE","31","F","{""name"":""Chrome"",""chrome"":true,""version"":""106.0"",""blink"":true,""windows"":true,""osname"":""Windows"",""osversion"":""10"",""a"":true}","9:14:59","1","4","Test_3","74","j","1","750","1920 x 1080","1920 x 1080","true","1","10","","","","",""
"null","<p style=""font-size: 80px;"">+ 10 points</p>","null","html-keyboard-response","52","508686","0.0-11.0-2.51","6157671b6ca7514f658ed117","kgtn4p","AE","31","F","{""name"":""Chrome"",""chrome"":true,""version"":""106.0"",""blink"":true,""windows"":true,""osname"":""Windows"",""osversion"":""10"",""a"":true}","9:14:59","1","4","Test_4","70","f","1","1275.6999999999534","1920 x 1080","1920 x 1080","true","1","10","","","","",""
"null","<p style=""font-size: 80px;"">+ 10 points</p>","null","html-keyboard-response","53","512265","0.0-11.0-2.52","6157671b6ca7514f658ed117","kgtn4p","AE","31","F","{""name"":""Chrome"",""chrome"":true,""version"":""106.0"",""blink"":true,""windows"":true,""osname"":""Windows"",""osversion"":""10"",""a"":true}","9:14:59","1","4","Test_1","74","j","1","1548.8999999999069","1920 x 1080","1920 x 1080","true","1","10","","","","",""
"null","<p style=""font-size: 80px;"">+ 10 points</p>","null","html-keyboard-response","54","515313","0.0-11.0-2.53","6157671b6ca7514f658ed117","kgtn4p","AE","31","F","{""name"":""Chrome"",""chrome"":true,""version"":""106.0"",""blink"":true,""windows"":true,""osname"":""Windows"",""osversion"":""10"",""a"":true}","9:14:59","1","4","Test_3","74","j","1","1017.5999999998603","1920 x 1080","1920 x 1080","true","1","10","","","","",""
"null","<p style=""font-size: 80px;"">+ 10 points</p>","null","html-keyboard-response","55","518312","0.0-11.0-2.54","6157671b6ca7514f658ed117","kgtn4p","AE","31","F","{""name"":""Chrome"",""chrome"":true,""version"":""106.0"",""blink"":true,""windows"":true,""osname"":""Windows"",""osversion"":""10"",""a"":true}","9:14:59","1","4","Test_4","70","f","1","973","1920 x 1080","1920 x 1080","true","1","10","","","","",""
"null","<p style=""font-size: 80px;"">+ 10 points</p>","null","html-keyboard-response","56","521261","0.0-11.0-2.55","6157671b6ca7514f658ed117","kgtn4p","AE","31","F","{""name"":""Chrome"",""chrome"":true,""version"":""106.0"",""blink"":true,""windows"":true,""osname"":""Windows"",""osversion"":""10"",""a"":true}","9:14:59","1","4","Test_3","74","j","1","921.5","1920 x 1080","1920 x 1080","true","1","10","","","","",""
"null","<p style=""font-size: 80px;"">+ 10 points</p>","null","html-keyboard-response","57","524661","0.0-11.0-2.56","6157671b6ca7514f658ed117","kgtn4p","AE","31","F","{""name"":""Chrome"",""chrome"":true,""version"":""106.0"",""blink"":true,""windows"":true,""osname"":""Windows"",""osversion"":""10"",""a"":true}","9:14:59","1","4","Test_1","74","j","1","1391","1920 x 1080","1920 x 1080","true","1","10","","","","",""
"null","<p style=""font-size: 80px;"">+ 10 points</p>","null","html-keyboard-response","58","527735","0.0-11.0-2.57","6157671b6ca7514f658ed117","kgtn4p","AE","31","F","{""name"":""Chrome"",""chrome"":true,""version"":""106.0"",""blink"":true,""windows"":true,""osname"":""Windows"",""osversion"":""10"",""a"":true}","9:14:59","1","4","Test_3","74","j","1","1046.7999999998137","1920 x 1080","1920 x 1080","true","1","10","","","","",""
"null","<p style=""font-size: 80px;"">+ 0 points</p>","null","html-keyboard-response","59","530782","0.0-11.0-2.58","6157671b6ca7514f658ed117","kgtn4p","AE","31","F","{""name"":""Chrome"",""chrome"":true,""version"":""106.0"",""blink"":true,""windows"":true,""osname"":""Windows"",""osversion"":""10"",""a"":true}","9:14:59","1","3","Test_2","70","j","0","1030.5","1920 x 1080","1920 x 1080","true","1","0","","","","",""
"null","<p style=""font-size: 80px;"">+ 10 points</p>","null","html-keyboard-response","60","533640","0.0-11.0-2.59","6157671b6ca7514f658ed117","kgtn4p","AE","31","F","{""name"":""Chrome"",""chrome"":true,""version"":""106.0"",""blink"":true,""windows"":true,""osname"":""Windows"",""osversion"":""10"",""a"":true}","9:14:59","1","3","Test_3","70","f","1","826.9000000001397","1920 x 1080","1920 x 1080","true","1","10","","","","",""
"null","<p style=""font-size: 80px;"">+ 10 points</p>","null","html-keyboard-response","61","536329","0.0-11.0-2.60","6157671b6ca7514f658ed117","kgtn4p","AE","31","F","{""name"":""Chrome"",""chrome"":true,""version"":""106.0"",""blink"":true,""windows"":true,""osname"":""Windows"",""osversion"":""10"",""a"":true}","9:14:59","1","3","Test_3","70","f","1","682.8000000000466","1920 x 1080","1920 x 1080","true","1","10","","","","",""
"null","<p style=""font-size: 80px;"">+ 10 points</p>","null","html-keyboard-response","62","539624","0.0-11.0-2.61","6157671b6ca7514f658ed117","kgtn4p","AE","31","F","{""name"":""Chrome"",""chrome"":true,""version"":""106.0"",""blink"":true,""windows"":true,""osname"":""Windows"",""osversion"":""10"",""a"":true}","9:14:59","1","3","Test_1","70","f","1","1266.1999999999534","1920 x 1080","1920 x 1080","true","1","10","","","","",""
"null","<p style=""font-size: 80px;"">+ 0 points</p>","null","html-keyboard-response","63","543238","0.0-11.0-2.62","6157671b6ca7514f658ed117","kgtn4p","AE","31","F","{""name"":""Chrome"",""chrome"":true,""version"":""106.0"",""blink"":true,""windows"":true,""osname"":""Windows"",""osversion"":""10"",""a"":true}","9:14:59","1","3","Test_1","74","f","0","1592.6000000000931","1920 x 1080","1920 x 1080","true","1","0","","","","",""
"null","<p style=""font-size: 80px;"">+ 10 points</p>","null","html-keyboard-response","64","545925","0.0-11.0-2.63","6157671b6ca7514f658ed117","kgtn4p","AE","31","F","{""name"":""Chrome"",""chrome"":true,""version"":""106.0"",""blink"":true,""windows"":true,""osname"":""Windows"",""osversion"":""10"",""a"":true}","9:14:59","1","3","Test_2","74","j","1","660.3000000000466","1920 x 1080","1920 x 1080","true","1","10","","","","",""
"null","<p style=""font-size: 80px;"">+ 10 points</p>","null","html-keyboard-response","65","549222","0.0-11.0-2.64","6157671b6ca7514f658ed117","kgtn4p","AE","31","F","{""name"":""Chrome"",""chrome"":true,""version"":""106.0"",""blink"":true,""windows"":true,""osname"":""Windows"",""osversion"":""10"",""a"":true}","9:14:59","1","3","Test_4","74","j","1","1290.3999999999069","1920 x 1080","1920 x 1080","true","1","10","","","","",""
"null","<p style=""font-size: 80px;"">+ 10 points</p>","null","html-keyboard-response","66","552225","0.0-11.0-2.65","6157671b6ca7514f658ed117","kgtn4p","AE","31","F","{""name"":""Chrome"",""chrome"":true,""version"":""106.0"",""blink"":true,""windows"":true,""osname"":""Windows"",""osversion"":""10"",""a"":true}","9:14:59","1","3","Test_3","70","f","1","987.4000000001397","1920 x 1080","1920 x 1080","true","1","10","","","","",""
"null","<p style=""font-size: 80px;"">+ 10 points</p>","null","html-keyboard-response","67","555797","0.0-11.0-2.66","6157671b6ca7514f658ed117","kgtn4p","AE","31","F","{""name"":""Chrome"",""chrome"":true,""version"":""106.0"",""blink"":true,""windows"":true,""osname"":""Windows"",""osversion"":""10"",""a"":true}","9:14:59","1","3","Test_1","70","f","1","1551.1000000000931","1920 x 1080","1920 x 1080","true","1","10","","","","",""
"null","<p style=""font-size: 80px;"">+ 10 points</p>","null","html-keyboard-response","68","558624","0.0-11.0-2.67","6157671b6ca7514f658ed117","kgtn4p","AE","31","F","{""name"":""Chrome"",""chrome"":true,""version"":""106.0"",""blink"":true,""windows"":true,""osname"":""Windows"",""osversion"":""10"",""a"":true}","9:14:59","1","3","Test_1","70","f","1","808.4000000001397","1920 x 1080","1920 x 1080","true","1","10","","","","",""
"null","<p style=""font-size: 80px;"">+ 10 points</p>","null","html-keyboard-response","69","561937","0.0-11.0-2.68","6157671b6ca7514f658ed117","kgtn4p","AE","31","F","{""name"":""Chrome"",""chrome"":true,""version"":""106.0"",""blink"":true,""windows"":true,""osname"":""Windows"",""osversion"":""10"",""a"":true}","9:14:59","1","3","Test_2","74","j","1","1289.6000000000931","1920 x 1080","1920 x 1080","true","1","10","","","","",""
"null","<p style=""font-size: 80px;"">+ 10 points</p>","null","html-keyboard-response","70","564938","0.0-11.0-2.69","6157671b6ca7514f658ed117","kgtn4p","AE","31","F","{""name"":""Chrome"",""chrome"":true,""version"":""106.0"",""blink"":true,""windows"":true,""osname"":""Windows"",""osversion"":""10"",""a"":true}","9:14:59","1","3","Test_3","70","f","1","996.5999999998603","1920 x 1080","1920 x 1080","true","1","10","","","","",""
"null","<p style=""font-size: 80px;"">+ 10 points</p>","null","html-keyboard-response","71","568080","0.0-11.0-2.70","6157671b6ca7514f658ed117","kgtn4p","AE","31","F","{""name"":""Chrome"",""chrome"":true,""version"":""106.0"",""blink"":true,""windows"":true,""osname"":""Windows"",""osversion"":""10"",""a"":true}","9:14:59","1","3","Test_4","74","j","1","1118.1000000000931","1920 x 1080","1920 x 1080","true","1","10","","","","",""
"null","<p style=""font-size: 80px;"">+ 10 points</p>","null","html-keyboard-response","72","570785","0.0-11.0-2.71","6157671b6ca7514f658ed117","kgtn4p","AE","31","F","{""name"":""Chrome"",""chrome"":true,""version"":""106.0"",""blink"":true,""windows"":true,""osname"":""Windows"",""osversion"":""10"",""a"":true}","9:14:59","1","3","Test_2","74","j","1","690.0999999998603","1920 x 1080","1920 x 1080","true","1","10","","","","",""
"null","<p style=""font-size: 80px;"">+ 10 points</p>","null","html-keyboard-response","73","573859","0.0-11.0-2.72","6157671b6ca7514f658ed117","kgtn4p","AE","31","F","{""name"":""Chrome"",""chrome"":true,""version"":""106.0"",""blink"":true,""windows"":true,""osname"":""Windows"",""osversion"":""10"",""a"":true}","9:14:59","1","3","Test_1","70","f","1","1057.6000000000931","1920 x 1080","1920 x 1080","true","1","10","","","","",""
"null","<p style=""font-size: 80px;"">+ 10 points</p>","null","html-keyboard-response","74","576719","0.0-11.0-2.73","6157671b6ca7514f658ed117","kgtn4p","AE","31","F","{""name"":""Chrome"",""chrome"":true,""version"":""106.0"",""blink"":true,""windows"":true,""osname"":""Windows"",""osversion"":""10"",""a"":true}","9:14:59","1","3","Test_4","74","j","1","840.8000000000466","1920 x 1080","1920 x 1080","true","1","10","","","","",""
"null","<p style=""font-size: 80px;"">+ 0 points</p>","null","html-keyboard-response","75","580484","0.0-11.0-2.74","6157671b6ca7514f658ed117","kgtn4p","AE","31","F","{""name"":""Chrome"",""chrome"":true,""version"":""106.0"",""blink"":true,""windows"":true,""osname"":""Windows"",""osversion"":""10"",""a"":true}","9:14:59","1","3","Test_2","70","j","0","1747.6000000000931","1920 x 1080","1920 x 1080","true","1","0","","","","",""
"null","<p style=""font-size: 80px;"">+ 10 points</p>","null","html-keyboard-response","76","583296","0.0-11.0-2.75","6157671b6ca7514f658ed117","kgtn4p","AE","31","F","{""name"":""Chrome"",""chrome"":true,""version"":""106.0"",""blink"":true,""windows"":true,""osname"":""Windows"",""osversion"":""10"",""a"":true}","9:14:59","1","3","Test_1","70","f","1","781.8999999999069","1920 x 1080","1920 x 1080","true","1","10","","","","",""
"null","<p style=""font-size: 80px;"">+ 10 points</p>","null","html-keyboard-response","77","587014","0.0-11.0-2.76","6157671b6ca7514f658ed117","kgtn4p","AE","31","F","{""name"":""Chrome"",""chrome"":true,""version"":""106.0"",""blink"":true,""windows"":true,""osname"":""Windows"",""osversion"":""10"",""a"":true}","9:14:59","1","3","Test_4","74","j","1","1708.1999999999534","1920 x 1080","1920 x 1080","true","1","10","","","","",""
"null","<p style=""font-size: 80px;"">+ 10 points</p>","null","html-keyboard-response","78","590015","0.0-11.0-2.77","6157671b6ca7514f658ed117","kgtn4p","AE","31","F","{""name"":""Chrome"",""chrome"":true,""version"":""106.0"",""blink"":true,""windows"":true,""osname"":""Windows"",""osversion"":""10"",""a"":true}","9:14:59","1","3","Test_2","74","j","1","984.6000000000931","1920 x 1080","1920 x 1080","true","1","10","","","","",""
"null","<p style=""font-size: 80px;"">+ 10 points</p>","null","html-keyboard-response","79","592812","0.0-11.0-2.78","6157671b6ca7514f658ed117","kgtn4p","AE","31","F","{""name"":""Chrome"",""chrome"":true,""version"":""106.0"",""blink"":true,""windows"":true,""osname"":""Windows"",""osversion"":""10"",""a"":true}","9:14:59","1","3","Test_3","70","f","1","779.9000000001397","1920 x 1080","1920 x 1080","true","1","10","","","","",""
"null","<p style=""font-size: 80px;"">+ 0 points</p>","null","html-keyboard-response","80","595515","0.0-11.0-2.79","6157671b6ca7514f658ed117","kgtn4p","AE","31","F","{""name"":""Chrome"",""chrome"":true,""version"":""106.0"",""blink"":true,""windows"":true,""osname"":""Windows"",""osversion"":""10"",""a"":true}","9:14:59","1","4","Test_3","70","j","0","682.5","1920 x 1080","1920 x 1080","true","1","0","","","","",""
"null","<p style=""font-size: 80px;"">+ 10 points</p>","null","html-keyboard-response","81","598643","0.0-11.0-2.80","6157671b6ca7514f658ed117","kgtn4p","AE","31","F","{""name"":""Chrome"",""chrome"":true,""version"":""106.0"",""blink"":true,""windows"":true,""osname"":""Windows"",""osversion"":""10"",""a"":true}","9:14:59","1","4","Test_4","70","f","1","1111","1920 x 1080","1920 x 1080","true","1","10","","","","",""
"null","<p style=""font-size: 80px;"">+ 10 points</p>","null","html-keyboard-response","82","602204","0.0-11.0-2.81","6157671b6ca7514f658ed117","kgtn4p","AE","31","F","{""name"":""Chrome"",""chrome"":true,""version"":""106.0"",""blink"":true,""windows"":true,""osname"":""Windows"",""osversion"":""10"",""a"":true}","9:14:59","1","4","Test_1","74","j","1","1537.8000000000466","1920 x 1080","1920 x 1080","true","1","10","","","","",""
"null","<p style=""font-size: 80px;"">+ 10 points</p>","null","html-keyboard-response","83","605109","0.0-11.0-2.82","6157671b6ca7514f658ed117","kgtn4p","AE","31","F","{""name"":""Chrome"",""chrome"":true,""version"":""106.0"",""blink"":true,""windows"":true,""osname"":""Windows"",""osversion"":""10"",""a"":true}","9:14:59","1","4","Test_2","70","f","1","882.4000000001397","1920 x 1080","1920 x 1080","true","1","10","","","","",""
"null","<p style=""font-size: 80px;"">+ 10 points</p>","null","html-keyboard-response","84","608312","0.0-11.0-2.83","6157671b6ca7514f658ed117","kgtn4p","AE","31","F","{""name"":""Chrome"",""chrome"":true,""version"":""106.0"",""blink"":true,""windows"":true,""osname"":""Windows"",""osversion"":""10"",""a"":true}","9:14:59","1","4","Test_4","70","f","1","1177.1000000000931","1920 x 1080","1920 x 1080","true","1","10","","","","",""
"null","<p style=""font-size: 80px;"">+ 10 points</p>","null","html-keyboard-response","85","611045","0.0-11.0-2.84","6157671b6ca7514f658ed117","kgtn4p","AE","31","F","{""name"":""Chrome"",""chrome"":true,""version"":""106.0"",""blink"":true,""windows"":true,""osname"":""Windows"",""osversion"":""10"",""a"":true}","9:14:59","1","4","Test_3","74","j","1","709.4000000001397","1920 x 1080","1920 x 1080","true","1","10","","","","",""
"null","<p style=""font-size: 80px;"">+ 10 points</p>","null","html-keyboard-response","86","613705","0.0-11.0-2.85","6157671b6ca7514f658ed117","kgtn4p","AE","31","F","{""name"":""Chrome"",""chrome"":true,""version"":""106.0"",""blink"":true,""windows"":true,""osname"":""Windows"",""osversion"":""10"",""a"":true}","9:14:59","1","4","Test_2","70","f","1","639.2999999998137","1920 x 1080","1920 x 1080","true","1","10","","","","",""
"null","<p style=""font-size: 80px;"">+ 10 points</p>","null","html-keyboard-response","87","616705","0.0-11.0-2.86","6157671b6ca7514f658ed117","kgtn4p","AE","31","F","{""name"":""Chrome"",""chrome"":true,""version"":""106.0"",""blink"":true,""windows"":true,""osname"":""Windows"",""osversion"":""10"",""a"":true}","9:14:59","1","4","Test_1","74","j","1","977.7000000001863","1920 x 1080","1920 x 1080","true","1","10","","","","",""
"null","<p style=""font-size: 80px;"">+ 10 points</p>","null","html-keyboard-response","88","619608","0.0-11.0-2.87","6157671b6ca7514f658ed117","kgtn4p","AE","31","F","{""name"":""Chrome"",""chrome"":true,""version"":""106.0"",""blink"":true,""windows"":true,""osname"":""Windows"",""osversion"":""10"",""a"":true}","9:14:59","1","4","Test_1","74","j","1","880.0999999998603","1920 x 1080","1920 x 1080","true","1","10","","","","",""
"null","<p style=""font-size: 80px;"">+ 0 points</p>","null","html-keyboard-response","89","622264","0.0-11.0-2.88","6157671b6ca7514f658ed117","kgtn4p","AE","31","F","{""name"":""Chrome"",""chrome"":true,""version"":""106.0"",""blink"":true,""windows"":true,""osname"":""Windows"",""osversion"":""10"",""a"":true}","9:14:59","1","4","Test_4","74","f","0","644.6999999999534","1920 x 1080","1920 x 1080","true","1","0","","","","",""
"null","<p style=""font-size: 80px;"">+ 10 points</p>","null","html-keyboard-response","90","624984","0.0-11.0-2.89","6157671b6ca7514f658ed117","kgtn4p","AE","31","F","{""name"":""Chrome"",""chrome"":true,""version"":""106.0"",""blink"":true,""windows"":true,""osname"":""Windows"",""osversion"":""10"",""a"":true}","9:14:59","1","4","Test_3","74","j","1","707.8000000000466","1920 x 1080","1920 x 1080","true","1","10","","","","",""
"null","<p style=""font-size: 80px;"">+ 10 points</p>","null","html-keyboard-response","91","627813","0.0-11.0-2.90","6157671b6ca7514f658ed117","kgtn4p","AE","31","F","{""name"":""Chrome"",""chrome"":true,""version"":""106.0"",""blink"":true,""windows"":true,""osname"":""Windows"",""osversion"":""10"",""a"":true}","9:14:59","1","4","Test_2","70","f","1","799.3000000000466","1920 x 1080","1920 x 1080","true","1","10","","","","",""
"null","<p style=""font-size: 80px;"">+ 10 points</p>","null","html-keyboard-response","92","630952","0.0-11.0-2.91","6157671b6ca7514f658ed117","kgtn4p","AE","31","F","{""name"":""Chrome"",""chrome"":true,""version"":""106.0"",""blink"":true,""windows"":true,""osname"":""Windows"",""osversion"":""10"",""a"":true}","9:14:59","1","4","Test_1","74","j","1","1113.1000000000931","1920 x 1080","1920 x 1080","true","1","10","","","","",""
"null","<p style=""font-size: 80px;"">+ 10 points</p>","null","html-keyboard-response","93","633624","0.0-11.0-2.92","6157671b6ca7514f658ed117","kgtn4p","AE","31","F","{""name"":""Chrome"",""chrome"":true,""version"":""106.0"",""blink"":true,""windows"":true,""osname"":""Windows"",""osversion"":""10"",""a"":true}","9:14:59","1","4","Test_2","70","f","1","647","1920 x 1080","1920 x 1080","true","1","10","","","","",""
"null","<p style=""font-size: 80px;"">+ 10 points</p>","null","html-keyboard-response","94","636342","0.0-11.0-2.93","6157671b6ca7514f658ed117","kgtn4p","AE","31","F","{""name"":""Chrome"",""chrome"":true,""version"":""106.0"",""blink"":true,""windows"":true,""osname"":""Windows"",""osversion"":""10"",""a"":true}","9:14:59","1","4","Test_2","70","f","1","700","1920 x 1080","1920 x 1080","true","1","10","","","","",""
"null","<p style=""font-size: 80px;"">+ 10 points</p>","null","html-keyboard-response","95","639282","0.0-11.0-2.94","6157671b6ca7514f658ed117","kgtn4p","AE","31","F","{""name"":""Chrome"",""chrome"":true,""version"":""106.0"",""blink"":true,""windows"":true,""osname"":""Windows"",""osversion"":""10"",""a"":true}","9:14:59","1","4","Test_1","74","j","1","915.6999999999534","1920 x 1080","1920 x 1080","true","1","10","","","","",""
"null","<p style=""font-size: 80px;"">+ 10 points</p>","null","html-keyboard-response","96","642920","0.0-11.0-2.95","6157671b6ca7514f658ed117","kgtn4p","AE","31","F","{""name"":""Chrome"",""chrome"":true,""version"":""106.0"",""blink"":true,""windows"":true,""osname"":""Windows"",""osversion"":""10"",""a"":true}","9:14:59","1","4","Test_4","70","f","1","1623.7000000001863","1920 x 1080","1920 x 1080","true","1","10","","","","",""
"null","<p style=""font-size: 80px;"">+ 0 points</p>","null","html-keyboard-response","97","646140","0.0-11.0-2.96","6157671b6ca7514f658ed117","kgtn4p","AE","31","F","{""name"":""Chrome"",""chrome"":true,""version"":""106.0"",""blink"":true,""windows"":true,""osname"":""Windows"",""osversion"":""10"",""a"":true}","9:14:59","1","3","Test_1","74","f","0","1204","1920 x 1080","1920 x 1080","true","1","0","","","","",""
"null","<p style=""font-size: 80px;"">+ 10 points</p>","null","html-keyboard-response","98","649391","0.0-11.0-2.97","6157671b6ca7514f658ed117","kgtn4p","AE","31","F","{""name"":""Chrome"",""chrome"":true,""version"":""106.0"",""blink"":true,""windows"":true,""osname"":""Windows"",""osversion"":""10"",""a"":true}","9:14:59","1","3","Test_1","70","f","1","1235.8000000000466","1920 x 1080","1920 x 1080","true","1","10","","","","",""
"null","<p style=""font-size: 80px;"">+ 10 points</p>","null","html-keyboard-response","99","652687","0.0-11.0-2.98","6157671b6ca7514f658ed117","kgtn4p","AE","31","F","{""name"":""Chrome"",""chrome"":true,""version"":""106.0"",""blink"":true,""windows"":true,""osname"":""Windows"",""osversion"":""10"",""a"":true}","9:14:59","1","3","Test_3","70","f","1","1266.7999999998137","1920 x 1080","1920 x 1080","true","1","10","","","","",""
"null","<p style=""font-size: 80px;"">+ 10 points</p>","null","html-keyboard-response","100","655671","0.0-11.0-2.99","6157671b6ca7514f658ed117","kgtn4p","AE","31","F","{""name"":""Chrome"",""chrome"":true,""version"":""106.0"",""blink"":true,""windows"":true,""osname"":""Windows"",""osversion"":""10"",""a"":true}","9:14:59","1","3","Test_3","70","f","1","950.9000000001397","1920 x 1080","1920 x 1080","true","1","10","","","","",""
"null","<p style=""font-size: 80px;"">+ 10 points</p>","null","html-keyboard-response","101","658236","0.0-11.0-2.100","6157671b6ca7514f658ed117","kgtn4p","AE","31","F","{""name"":""Chrome"",""chrome"":true,""version"":""106.0"",""blink"":true,""windows"":true,""osname"":""Windows"",""osversion"":""10"",""a"":true}","9:14:59","1","3","Test_4","74","j","1","544.6000000000931","1920 x 1080","1920 x 1080","true","1","10","","","","",""
"null","<p style=""font-size: 80px;"">+ 10 points</p>","null","html-keyboard-response","102","661099","0.0-11.0-2.101","6157671b6ca7514f658ed117","kgtn4p","AE","31","F","{""name"":""Chrome"",""chrome"":true,""version"":""106.0"",""blink"":true,""windows"":true,""osname"":""Windows"",""osversion"":""10"",""a"":true}","9:14:59","1","3","Test_3","70","f","1","837.1000000000931","1920 x 1080","1920 x 1080","true","1","10","","","","",""
"null","<p style=""font-size: 80px;"">+ 10 points</p>","null","html-keyboard-response","103","663793","0.0-11.0-2.102","6157671b6ca7514f658ed117","kgtn4p","AE","31","F","{""name"":""Chrome"",""chrome"":true,""version"":""106.0"",""blink"":true,""windows"":true,""osname"":""Windows"",""osversion"":""10"",""a"":true}","9:14:59","1","3","Test_3","70","f","1","679.3999999999069","1920 x 1080","1920 x 1080","true","1","10","","","","",""
"null","<p style=""font-size: 80px;"">+ 10 points</p>","null","html-keyboard-response","104","666500","0.0-11.0-2.103","6157671b6ca7514f658ed117","kgtn4p","AE","31","F","{""name"":""Chrome"",""chrome"":true,""version"":""106.0"",""blink"":true,""windows"":true,""osname"":""Windows"",""osversion"":""10"",""a"":true}","9:14:59","1","3","Test_4","74","j","1","679.8000000000466","1920 x 1080","1920 x 1080","true","1","10","","","","",""
"null","<p style=""font-size: 80px;"">+ 10 points</p>","null","html-keyboard-response","105","669171","0.0-11.0-2.104","6157671b6ca7514f658ed117","kgtn4p","AE","31","F","{""name"":""Chrome"",""chrome"":true,""version"":""106.0"",""blink"":true,""windows"":true,""osname"":""Windows"",""osversion"":""10"",""a"":true}","9:14:59","1","3","Test_1","70","f","1","649.4000000001397","1920 x 1080","1920 x 1080","true","1","10","","","","",""
"null","<p style=""font-size: 80px;"">+ 10 points</p>","null","html-keyboard-response","106","671706","0.0-11.0-2.105","6157671b6ca7514f658ed117","kgtn4p","AE","31","F","{""name"":""Chrome"",""chrome"":true,""version"":""106.0"",""blink"":true,""windows"":true,""osname"":""Windows"",""osversion"":""10"",""a"":true}","9:14:59","1","3","Test_1","70","f","1","511.39999999990687","1920 x 1080","1920 x 1080","true","1","10","","","","",""
"null","<p style=""font-size: 80px;"">+ 10 points</p>","null","html-keyboard-response","107","674408","0.0-11.0-2.106","6157671b6ca7514f658ed117","kgtn4p","AE","31","F","{""name"":""Chrome"",""chrome"":true,""version"":""106.0"",""blink"":true,""windows"":true,""osname"":""Windows"",""osversion"":""10"",""a"":true}","9:14:59","1","3","Test_4","74","j","1","679.2999999998137","1920 x 1080","1920 x 1080","true","1","10","","","","",""
"null","<p style=""font-size: 80px;"">+ 10 points</p>","null","html-keyboard-response","108","677531","0.0-11.0-2.107","6157671b6ca7514f658ed117","kgtn4p","AE","31","F","{""name"":""Chrome"",""chrome"":true,""version"":""106.0"",""blink"":true,""windows"":true,""osname"":""Windows"",""osversion"":""10"",""a"":true}","9:14:59","1","3","Test_2","74","j","1","1101.8000000000466","1920 x 1080","1920 x 1080","true","1","10","","","","",""
"null","<p style=""font-size: 80px;"">+ 10 points</p>","null","html-keyboard-response","109","680669","0.0-11.0-2.108","6157671b6ca7514f658ed117","kgtn4p","AE","31","F","{""name"":""Chrome"",""chrome"":true,""version"":""106.0"",""blink"":true,""windows"":true,""osname"":""Windows"",""osversion"":""10"",""a"":true}","9:14:59","1","3","Test_3","70","f","1","1106.5","1920 x 1080","1920 x 1080","true","1","10","","","","",""
"null","<p style=""font-size: 80px;"">+ 0 points</p>","null","html-keyboard-response","110","689441","0.0-11.0-2.109","6157671b6ca7514f658ed117","kgtn4p","AE","31","F","{""name"":""Chrome"",""chrome"":true,""version"":""106.0"",""blink"":true,""windows"":true,""osname"":""Windows"",""osversion"":""10"",""a"":true}","9:14:59","1","3","Test_2","70","j","0","954.4000000001397","1920 x 1080","1920 x 1080","true","1","0","","","","",""
"null","<p style=""font-size: 80px;"">+ 10 points</p>","null","html-keyboard-response","111","692140","0.0-11.0-2.110","6157671b6ca7514f658ed117","kgtn4p","AE","31","F","{""name"":""Chrome"",""chrome"":true,""version"":""106.0"",""blink"":true,""windows"":true,""osname"":""Windows"",""osversion"":""10"",""a"":true}","9:14:59","1","3","Test_4","74","j","1","679.0999999998603","1920 x 1080","1920 x 1080","true","1","10","","","","",""
"null","<p style=""font-size: 80px;"">+ 10 points</p>","null","html-keyboard-response","112","695062","0.0-11.0-2.111","6157671b6ca7514f658ed117","kgtn4p","AE","31","F","{""name"":""Chrome"",""chrome"":true,""version"":""106.0"",""blink"":true,""windows"":true,""osname"":""Windows"",""osversion"":""10"",""a"":true}","9:14:59","1","3","Test_1","70","f","1","908.1999999999534","1920 x 1080","1920 x 1080","true","1","10","","","","",""
"null","<p style=""font-size: 80px;"">+ 10 points</p>","null","html-keyboard-response","113","697750","0.0-11.0-2.112","6157671b6ca7514f658ed117","kgtn4p","AE","31","F","{""name"":""Chrome"",""chrome"":true,""version"":""106.0"",""blink"":true,""windows"":true,""osname"":""Windows"",""osversion"":""10"",""a"":true}","9:14:59","1","3","Test_4","74","j","1","661.5","1920 x 1080","1920 x 1080","true","1","10","","","","",""
"null","<p style=""font-size: 80px;"">+ 10 points</p>","null","html-keyboard-response","114","700828","0.0-11.0-2.113","6157671b6ca7514f658ed117","kgtn4p","AE","31","F","{""name"":""Chrome"",""chrome"":true,""version"":""106.0"",""blink"":true,""windows"":true,""osname"":""Windows"",""osversion"":""10"",""a"":true}","9:14:59","1","3","Test_2","74","j","1","1046.9000000001397","1920 x 1080","1920 x 1080","true","1","10","","","","",""
"null","<p style=""font-size: 80px;"">+ 10 points</p>","null","html-keyboard-response","115","703898","0.0-11.0-2.114","6157671b6ca7514f658ed117","kgtn4p","AE","31","F","{""name"":""Chrome"",""chrome"":true,""version"":""106.0"",""blink"":true,""windows"":true,""osname"":""Windows"",""osversion"":""10"",""a"":true}","9:14:59","1","3","Test_3","70","f","1","1066.1000000000931","1920 x 1080","1920 x 1080","true","1","10","","","","",""
"null","<p style=""font-size: 80px;"">+ 10 points</p>","null","html-keyboard-response","116","707421","0.0-11.0-2.115","6157671b6ca7514f658ed117","kgtn4p","AE","31","F","{""name"":""Chrome"",""chrome"":true,""version"":""106.0"",""blink"":true,""windows"":true,""osname"":""Windows"",""osversion"":""10"",""a"":true}","9:14:59","1","3","Test_2","74","j","1","1495.3000000000466","1920 x 1080","1920 x 1080","true","1","10","","","","",""
"null","<p style=""font-size: 80px;"">+ 10 points</p>","null","html-keyboard-response","117","710171","0.0-11.0-2.116","6157671b6ca7514f658ed117","kgtn4p","AE","31","F","{""name"":""Chrome"",""chrome"":true,""version"":""106.0"",""blink"":true,""windows"":true,""osname"":""Windows"",""osversion"":""10"",""a"":true}","9:14:59","1","3","Test_1","70","f","1","724.2999999998137","1920 x 1080","1920 x 1080","true","1","10","","","","",""
"null","<p style=""font-size: 80px;"">+ 10 points</p>","null","html-keyboard-response","118","713031","0.0-11.0-2.117","6157671b6ca7514f658ed117","kgtn4p","AE","31","F","{""name"":""Chrome"",""chrome"":true,""version"":""106.0"",""blink"":true,""windows"":true,""osname"":""Windows"",""osversion"":""10"",""a"":true}","9:14:59","1","3","Test_2","74","j","1","830.5","1920 x 1080","1920 x 1080","true","1","10","","","","",""
"null","<p style=""font-size: 80px;"">+ 10 points</p>","null","html-keyboard-response","119","716110","0.0-11.0-2.118","6157671b6ca7514f658ed117","kgtn4p","AE","31","F","{""name"":""Chrome"",""chrome"":true,""version"":""106.0"",""blink"":true,""windows"":true,""osname"":""Windows"",""osversion"":""10"",""a"":true}","9:14:59","1","3","Test_4","74","j","1","1056","1920 x 1080","1920 x 1080","true","1","10","","","","",""
"null","<p style=""font-size: 80px;"">+ 10 points</p>","null","html-keyboard-response","120","718953","0.0-11.0-2.119","6157671b6ca7514f658ed117","kgtn4p","AE","31","F","{""name"":""Chrome"",""chrome"":true,""version"":""106.0"",""blink"":true,""windows"":true,""osname"":""Windows"",""osversion"":""10"",""a"":true}","9:14:59","1","3","Test_2","74","j","1","835.4000000001397","1920 x 1080","1920 x 1080","true","1","10","","","","",""
"null","<p style=""font-size: 80px;"">+ 0 points</p>","null","html-keyboard-response","121","721656","0.0-11.0-2.120","6157671b6ca7514f658ed117","kgtn4p","AE","31","F","{""name"":""Chrome"",""chrome"":true,""version"":""106.0"",""blink"":true,""windows"":true,""osname"":""Windows"",""osversion"":""10"",""a"":true}","9:14:59","1","4","Test_4","74","f","0","677.6999999999534","1920 x 1080","1920 x 1080","true","1","0","","","","",""
"null","<p style=""font-size: 80px;"">+ 10 points</p>","null","html-keyboard-response","122","725092","0.0-11.0-2.121","6157671b6ca7514f658ed117","kgtn4p","AE","31","F","{""name"":""Chrome"",""chrome"":true,""version"":""106.0"",""blink"":true,""windows"":true,""osname"":""Windows"",""osversion"":""10"",""a"":true}","9:14:59","1","4","Test_2","70","f","1","1430.7999999998137","1920 x 1080","1920 x 1080","true","1","10","","","","",""
"null","<p style=""font-size: 80px;"">+ 10 points</p>","null","html-keyboard-response","123","728060","0.0-11.0-2.122","6157671b6ca7514f658ed117","kgtn4p","AE","31","F","{""name"":""Chrome"",""chrome"":true,""version"":""106.0"",""blink"":true,""windows"":true,""osname"":""Windows"",""osversion"":""10"",""a"":true}","9:14:59","1","4","Test_3","74","j","1","956.3999999999069","1920 x 1080","1920 x 1080","true","1","10","","","","",""
"null","<p style=""font-size: 80px;"">+ 10 points</p>","null","html-keyboard-response","124","731381","0.0-11.0-2.123","6157671b6ca7514f658ed117","kgtn4p","AE","31","F","{""name"":""Chrome"",""chrome"":true,""version"":""106.0"",""blink"":true,""windows"":true,""osname"":""Windows"",""osversion"":""10"",""a"":true}","9:14:59","1","4","Test_3","74","j","1","1305.6000000000931","1920 x 1080","1920 x 1080","true","1","10","","","","",""
"null","<p style=""font-size: 80px;"">+ 10 points</p>","null","html-keyboard-response","125","734219","0.0-11.0-2.124","6157671b6ca7514f658ed117","kgtn4p","AE","31","F","{""name"":""Chrome"",""chrome"":true,""version"":""106.0"",""blink"":true,""windows"":true,""osname"":""Windows"",""osversion"":""10"",""a"":true}","9:14:59","1","4","Test_4","70","f","1","810.3000000000466","1920 x 1080","1920 x 1080","true","1","10","","","","",""
"null","<p style=""font-size: 80px;"">+ 10 points</p>","null","html-keyboard-response","126","737188","0.0-11.0-2.125","6157671b6ca7514f658ed117","kgtn4p","AE","31","F","{""name"":""Chrome"",""chrome"":true,""version"":""106.0"",""blink"":true,""windows"":true,""osname"":""Windows"",""osversion"":""10"",""a"":true}","9:14:59","1","4","Test_2","70","f","1","958.6000000000931","1920 x 1080","1920 x 1080","true","1","10","","","","",""
"null","<p style=""font-size: 80px;"">+ 10 points</p>","null","html-keyboard-response","127","739983","0.0-11.0-2.126","6157671b6ca7514f658ed117","kgtn4p","AE","31","F","{""name"":""Chrome"",""chrome"":true,""version"":""106.0"",""blink"":true,""windows"":true,""osname"":""Windows"",""osversion"":""10"",""a"":true}","9:14:59","1","4","Test_3","74","j","1","771.9000000001397","1920 x 1080","1920 x 1080","true","1","10","","","","",""
"null","<p style=""font-size: 80px;"">+ 10 points</p>","null","html-keyboard-response","128","742890","0.0-11.0-2.127","6157671b6ca7514f658ed117","kgtn4p","AE","31","F","{""name"":""Chrome"",""chrome"":true,""version"":""106.0"",""blink"":true,""windows"":true,""osname"":""Windows"",""osversion"":""10"",""a"":true}","9:14:59","1","4","Test_1","74","j","1","891.8000000000466","1920 x 1080","1920 x 1080","true","1","10","","","","",""
"null","<p style=""font-size: 80px;"">+ 10 points</p>","null","html-keyboard-response","129","746938","0.0-11.0-2.128","6157671b6ca7514f658ed117","kgtn4p","AE","31","F","{""name"":""Chrome"",""chrome"":true,""version"":""106.0"",""blink"":true,""windows"":true,""osname"":""Windows"",""osversion"":""10"",""a"":true}","9:14:59","1","4","Test_1","74","j","1","2021.0999999998603","1920 x 1080","1920 x 1080","true","1","10","","","","",""
"null","<p style=""font-size: 80px;"">+ 10 points</p>","null","html-keyboard-response","130","749703","0.0-11.0-2.129","6157671b6ca7514f658ed117","kgtn4p","AE","31","F","{""name"":""Chrome"",""chrome"":true,""version"":""106.0"",""blink"":true,""windows"":true,""osname"":""Windows"",""osversion"":""10"",""a"":true}","9:14:59","1","4","Test_1","74","j","1","740.4000000001397","1920 x 1080","1920 x 1080","true","1","10","","","","",""
"null","<p style=""font-size: 80px;"">+ 10 points</p>","null","html-keyboard-response","131","753063","0.0-11.0-2.130","6157671b6ca7514f658ed117","kgtn4p","AE","31","F","{""name"":""Chrome"",""chrome"":true,""version"":""106.0"",""blink"":true,""windows"":true,""osname"":""Windows"",""osversion"":""10"",""a"":true}","9:14:59","1","4","Test_1","74","j","1","1343","1920 x 1080","1920 x 1080","true","1","10","","","","",""
"null","<p style=""font-size: 80px;"">+ 0 points</p>","null","html-keyboard-response","132","755759","0.0-11.0-2.131","6157671b6ca7514f658ed117","kgtn4p","AE","31","F","{""name"":""Chrome"",""chrome"":true,""version"":""106.0"",""blink"":true,""windows"":true,""osname"":""Windows"",""osversion"":""10"",""a"":true}","9:14:59","1","4","Test_4","74","f","0","679.5","1920 x 1080","1920 x 1080","true","1","0","","","","",""
"null","<p style=""font-size: 80px;"">+ 10 points</p>","null","html-keyboard-response","133","758627","0.0-11.0-2.132","6157671b6ca7514f658ed117","kgtn4p","AE","31","F","{""name"":""Chrome"",""chrome"":true,""version"":""106.0"",""blink"":true,""windows"":true,""osname"":""Windows"",""osversion"":""10"",""a"":true}","9:14:59","1","4","Test_2","70","f","1","856.5999999998603","1920 x 1080","1920 x 1080","true","1","10","","","","",""
"null","<p style=""font-size: 80px;"">+ 10 points</p>","null","html-keyboard-response","134","761390","0.0-11.0-2.133","6157671b6ca7514f658ed117","kgtn4p","AE","31","F","{""name"":""Chrome"",""chrome"":true,""version"":""106.0"",""blink"":true,""windows"":true,""osname"":""Windows"",""osversion"":""10"",""a"":true}","9:14:59","1","4","Test_2","70","f","1","740.2999999998137","1920 x 1080","1920 x 1080","true","1","10","","","","",""
"null","<p style=""font-size: 80px;"">+ 10 points</p>","null","html-keyboard-response","135","764122","0.0-11.0-2.134","6157671b6ca7514f658ed117","kgtn4p","AE","31","F","{""name"":""Chrome"",""chrome"":true,""version"":""106.0"",""blink"":true,""windows"":true,""osname"":""Windows"",""osversion"":""10"",""a"":true}","9:14:59","1","4","Test_2","70","f","1","699.9000000001397","1920 x 1080","1920 x 1080","true","1","10","","","","",""
"null","<p style=""font-size: 80px;"">+ 10 points</p>","null","html-keyboard-response","136","766985","0.0-11.0-2.135","6157671b6ca7514f658ed117","kgtn4p","AE","31","F","{""name"":""Chrome"",""chrome"":true,""version"":""106.0"",""blink"":true,""windows"":true,""osname"":""Windows"",""osversion"":""10"",""a"":true}","9:14:59","1","4","Test_4","70","f","1","845.7000000001863","1920 x 1080","1920 x 1080","true","1","10","","","","",""
"null","<p style=""font-size: 80px;"">+ 10 points</p>","null","html-keyboard-response","137","770069","0.0-11.0-2.136","6157671b6ca7514f658ed117","kgtn4p","AE","31","F","{""name"":""Chrome"",""chrome"":true,""version"":""106.0"",""blink"":true,""windows"":true,""osname"":""Windows"",""osversion"":""10"",""a"":true}","9:14:59","1","4","Test_3","74","j","1","1080.9000000001397","1920 x 1080","1920 x 1080","true","1","10","","","","",""
"null","<p style=""font-size: 80px;"">+ 10 points</p>","null","html-keyboard-response","138","773876","0.0-11.0-2.137","6157671b6ca7514f658ed117","kgtn4p","AE","31","F","{""name"":""Chrome"",""chrome"":true,""version"":""106.0"",""blink"":true,""windows"":true,""osname"":""Windows"",""osversion"":""10"",""a"":true}","9:14:59","1","4","Test_4","70","f","1","1791.1999999999534","1920 x 1080","1920 x 1080","true","1","10","","","","",""
"null","<p style=""font-size: 80px;"">+ 10 points</p>","null","html-keyboard-response","139","776407","0.0-11.0-2.138","6157671b6ca7514f658ed117","kgtn4p","AE","31","F","{""name"":""Chrome"",""chrome"":true,""version"":""106.0"",""blink"":true,""windows"":true,""osname"":""Windows"",""osversion"":""10"",""a"":true}","9:14:59","1","4","Test_3","74","j","1","513.8000000000466","1920 x 1080","1920 x 1080","true","1","10","","","","",""
"null","<p style=""font-size: 80px;"">+ 10 points</p>","null","html-keyboard-response","140","779219","0.0-11.0-2.139","6157671b6ca7514f658ed117","kgtn4p","AE","31","F","{""name"":""Chrome"",""chrome"":true,""version"":""106.0"",""blink"":true,""windows"":true,""osname"":""Windows"",""osversion"":""10"",""a"":true}","9:14:59","1","4","Test_3","74","j","1","791.6999999999534","1920 x 1080","1920 x 1080","true","1","10","","","","",""
"null","<p style=""font-size: 80px;"">+ 0 points</p>","null","html-keyboard-response","141","782231","0.0-11.0-2.140","6157671b6ca7514f658ed117","kgtn4p","AE","31","F","{""name"":""Chrome"",""chrome"":true,""version"":""106.0"",""blink"":true,""windows"":true,""osname"":""Windows"",""osversion"":""10"",""a"":true}","9:14:59","1","4","Test_1","70","j","0","994.6000000000931","1920 x 1080","1920 x 1080","true","1","0","","","","",""
"null","<p style=""font-size: 80px;"">+ 0 points</p>","null","html-keyboard-response","142","785115","0.0-11.0-2.141","6157671b6ca7514f658ed117","kgtn4p","AE","31","F","{""name"":""Chrome"",""chrome"":true,""version"":""106.0"",""blink"":true,""windows"":true,""osname"":""Windows"",""osversion"":""10"",""a"":true}","9:14:59","1","3","Test_2","70","j","0","874.8000000000466","1920 x 1080","1920 x 1080","true","1","0","","","","",""
"null","<p style=""font-size: 80px;"">+ 10 points</p>","null","html-keyboard-response","143","787936","0.0-11.0-2.142","6157671b6ca7514f658ed117","kgtn4p","AE","31","F","{""name"":""Chrome"",""chrome"":true,""version"":""106.0"",""blink"":true,""windows"":true,""osname"":""Windows"",""osversion"":""10"",""a"":true}","9:14:59","1","3","Test_3","70","f","1","810.0999999998603","1920 x 1080","1920 x 1080","true","1","10","","","","",""
"null","<p style=""font-size: 80px;"">+ 10 points</p>","null","html-keyboard-response","144","790796","0.0-11.0-2.143","6157671b6ca7514f658ed117","kgtn4p","AE","31","F","{""name"":""Chrome"",""chrome"":true,""version"":""106.0"",""blink"":true,""windows"":true,""osname"":""Windows"",""osversion"":""10"",""a"":true}","9:14:59","1","3","Test_3","70","f","1","841.5","1920 x 1080","1920 x 1080","true","1","10","","","","",""
"null","<p style=""font-size: 80px;"">+ 10 points</p>","null","html-keyboard-response","145","793424","0.0-11.0-2.144","6157671b6ca7514f658ed117","kgtn4p","AE","31","F","{""name"":""Chrome"",""chrome"":true,""version"":""106.0"",""blink"":true,""windows"":true,""osname"":""Windows"",""osversion"":""10"",""a"":true}","9:14:59","1","3","Test_3","70","f","1","610.5999999998603","1920 x 1080","1920 x 1080","true","1","10","","","","",""
"null","<p style=""font-size: 80px;"">+ 10 points</p>","null","html-keyboard-response","146","796363","0.0-11.0-2.145","6157671b6ca7514f658ed117","kgtn4p","AE","31","F","{""name"":""Chrome"",""chrome"":true,""version"":""106.0"",""blink"":true,""windows"":true,""osname"":""Windows"",""osversion"":""10"",""a"":true}","9:14:59","1","3","Test_2","74","j","1","919.1999999999534","1920 x 1080","1920 x 1080","true","1","10","","","","",""
"null","<p style=""font-size: 80px;"">+ 10 points</p>","null","html-keyboard-response","147","799265","0.0-11.0-2.146","6157671b6ca7514f658ed117","kgtn4p","AE","31","F","{""name"":""Chrome"",""chrome"":true,""version"":""106.0"",""blink"":true,""windows"":true,""osname"":""Windows"",""osversion"":""10"",""a"":true}","9:14:59","1","3","Test_4","74","j","1","890.3999999999069","1920 x 1080","1920 x 1080","true","1","10","","","","",""
"null","<p style=""font-size: 80px;"">+ 10 points</p>","null","html-keyboard-response","148","801971","0.0-11.0-2.147","6157671b6ca7514f658ed117","kgtn4p","AE","31","F","{""name"":""Chrome"",""chrome"":true,""version"":""106.0"",""blink"":true,""windows"":true,""osname"":""Windows"",""osversion"":""10"",""a"":true}","9:14:59","1","3","Test_4","74","j","1","695.5","1920 x 1080","1920 x 1080","true","1","10","","","","",""
"null","<p style=""font-size: 80px;"">+ 0 points</p>","null","html-keyboard-response","149","805311","0.0-11.0-2.148","6157671b6ca7514f658ed117","kgtn4p","AE","31","F","{""name"":""Chrome"",""chrome"":true,""version"":""106.0"",""blink"":true,""windows"":true,""osname"":""Windows"",""osversion"":""10"",""a"":true}","9:14:59","1","3","Test_1","74","f","0","1330.7999999998137","1920 x 1080","1920 x 1080","true","1","0","","","","",""
"null","<p style=""font-size: 80px;"">+ 10 points</p>","null","html-keyboard-response","150","807984","0.0-11.0-2.149","6157671b6ca7514f658ed117","kgtn4p","AE","31","F","{""name"":""Chrome"",""chrome"":true,""version"":""106.0"",""blink"":true,""windows"":true,""osname"":""Windows"",""osversion"":""10"",""a"":true}","9:14:59","1","3","Test_3","70","f","1","641.6000000000931","1920 x 1080","1920 x 1080","true","1","10","","","","",""
"null","<p style=""font-size: 80px;"">+ 10 points</p>","null","html-keyboard-response","151","810797","0.0-11.0-2.150","6157671b6ca7514f658ed117","kgtn4p","AE","31","F","{""name"":""Chrome"",""chrome"":true,""version"":""106.0"",""blink"":true,""windows"":true,""osname"":""Windows"",""osversion"":""10"",""a"":true}","9:14:59","1","3","Test_2","74","j","1","793.9000000001397","1920 x 1080","1920 x 1080","true","1","10","","","","",""
"null","<p style=""font-size: 80px;"">+ 10 points</p>","null","html-keyboard-response","152","813624","0.0-11.0-2.151","6157671b6ca7514f658ed117","kgtn4p","AE","31","F","{""name"":""Chrome"",""chrome"":true,""version"":""106.0"",""blink"":true,""windows"":true,""osname"":""Windows"",""osversion"":""10"",""a"":true}","9:14:59","1","3","Test_4","74","j","1","803.3999999999069","1920 x 1080","1920 x 1080","true","1","10","","","","",""
"null","<p style=""font-size: 80px;"">+ 10 points</p>","null","html-keyboard-response","153","816724","0.0-11.0-2.152","6157671b6ca7514f658ed117","kgtn4p","AE","31","F","{""name"":""Chrome"",""chrome"":true,""version"":""106.0"",""blink"":true,""windows"":true,""osname"":""Windows"",""osversion"":""10"",""a"":true}","9:14:59","1","3","Test_2","74","j","1","1081.8000000000466","1920 x 1080","1920 x 1080","true","1","10","","","","",""
"null","<p style=""font-size: 80px;"">+ 10 points</p>","null","html-keyboard-response","154","819486","0.0-11.0-2.153","6157671b6ca7514f658ed117","kgtn4p","AE","31","F","{""name"":""Chrome"",""chrome"":true,""version"":""106.0"",""blink"":true,""windows"":true,""osname"":""Windows"",""osversion"":""10"",""a"":true}","9:14:59","1","3","Test_3","70","f","1","743.0999999998603","1920 x 1080","1920 x 1080","true","1","10","","","","",""
"null","<p style=""font-size: 80px;"">+ 10 points</p>","null","html-keyboard-response","155","822408","0.0-11.0-2.154","6157671b6ca7514f658ed117","kgtn4p","AE","31","F","{""name"":""Chrome"",""chrome"":true,""version"":""106.0"",""blink"":true,""windows"":true,""osname"":""Windows"",""osversion"":""10"",""a"":true}","9:14:59","1","3","Test_1","70","f","1","903.0999999998603","1920 x 1080","1920 x 1080","true","1","10","","","","",""
"null","<p style=""font-size: 80px;"">+ 10 points</p>","null","html-keyboard-response","156","825095","0.0-11.0-2.155","6157671b6ca7514f658ed117","kgtn4p","AE","31","F","{""name"":""Chrome"",""chrome"":true,""version"":""106.0"",""blink"":true,""windows"":true,""osname"":""Windows"",""osversion"":""10"",""a"":true}","9:14:59","1","3","Test_2","74","j","1","669.1000000000931","1920 x 1080","1920 x 1080","true","1","10","","","","",""
"null","<p style=""font-size: 80px;"">+ 10 points</p>","null","html-keyboard-response","157","827924","0.0-11.0-2.156","6157671b6ca7514f658ed117","kgtn4p","AE","31","F","{""name"":""Chrome"",""chrome"":true,""version"":""106.0"",""blink"":true,""windows"":true,""osname"":""Windows"",""osversion"":""10"",""a"":true}","9:14:59","1","3","Test_1","70","f","1","805.0999999998603","1920 x 1080","1920 x 1080","true","1","10","","","","",""
"null","<p style=""font-size: 80px;"">+ 10 points</p>","null","html-keyboard-response","158","830621","0.0-11.0-2.157","6157671b6ca7514f658ed117","kgtn4p","AE","31","F","{""name"":""Chrome"",""chrome"":true,""version"":""106.0"",""blink"":true,""windows"":true,""osname"":""Windows"",""osversion"":""10"",""a"":true}","9:14:59","1","3","Test_3","70","f","1","689.6999999999534","1920 x 1080","1920 x 1080","true","1","10","","","","",""
"null","<p style=""font-size: 80px;"">+ 10 points</p>","null","html-keyboard-response","159","833765","0.0-11.0-2.158","6157671b6ca7514f658ed117","kgtn4p","AE","31","F","{""name"":""Chrome"",""chrome"":true,""version"":""106.0"",""blink"":true,""windows"":true,""osname"":""Windows"",""osversion"":""10"",""a"":true}","9:14:59","1","3","Test_1","70","f","1","1129","1920 x 1080","1920 x 1080","true","1","10","","","","",""
"null","<p style=""font-size: 80px;"">+ 10 points</p>","null","html-keyboard-response","160","836624","0.0-11.0-2.159","6157671b6ca7514f658ed117","kgtn4p","AE","31","F","{""name"":""Chrome"",""chrome"":true,""version"":""106.0"",""blink"":true,""windows"":true,""osname"":""Windows"",""osversion"":""10"",""a"":true}","9:14:59","1","3","Test_4","74","j","1","844","1920 x 1080","1920 x 1080","true","1","10","","","","",""
"null","<p style=""font-size: 80px;"">+ 10 points</p>","null","html-keyboard-response","161","839439","0.0-11.0-2.160","6157671b6ca7514f658ed117","kgtn4p","AE","31","F","{""name"":""Chrome"",""chrome"":true,""version"":""106.0"",""blink"":true,""windows"":true,""osname"":""Windows"",""osversion"":""10"",""a"":true}","9:14:59","1","3","Test_4","74","j","1","783.3000000000466","1920 x 1080","1920 x 1080","true","1","10","","","","",""
"null","<p style=""font-size: 80px;"">+ 10 points</p>","null","html-keyboard-response","162","843349","0.0-11.0-2.161","6157671b6ca7514f658ed117","kgtn4p","AE","31","F","{""name"":""Chrome"",""chrome"":true,""version"":""106.0"",""blink"":true,""windows"":true,""osname"":""Windows"",""osversion"":""10"",""a"":true}","9:14:59","1","3","Test_1","70","f","1","1885.1000000000931","1920 x 1080","1920 x 1080","true","1","10","","","","",""
"null","<p style=""font-size: 80px;"">+ 0 points</p>","null","html-keyboard-response","163","846829","0.0-11.0-2.162","6157671b6ca7514f658ed117","kgtn4p","AE","31","F","{""name"":""Chrome"",""chrome"":true,""version"":""106.0"",""blink"":true,""windows"":true,""osname"":""Windows"",""osversion"":""10"",""a"":true}","9:14:59","1","4","Test_4","74","f","0","1457.5","1920 x 1080","1920 x 1080","true","1","0","","","","",""
"null","<p style=""font-size: 80px;"">+ 10 points</p>","null","html-keyboard-response","164","849767","0.0-11.0-2.163","6157671b6ca7514f658ed117","kgtn4p","AE","31","F","{""name"":""Chrome"",""chrome"":true,""version"":""106.0"",""blink"":true,""windows"":true,""osname"":""Windows"",""osversion"":""10"",""a"":true}","9:14:59","1","4","Test_3","74","j","1","918.5","1920 x 1080","1920 x 1080","true","1","10","","","","",""
"null","<p style=""font-size: 80px;"">+ 10 points</p>","null","html-keyboard-response","165","853264","0.0-11.0-2.164","6157671b6ca7514f658ed117","kgtn4p","AE","31","F","{""name"":""Chrome"",""chrome"":true,""version"":""106.0"",""blink"":true,""windows"":true,""osname"":""Windows"",""osversion"":""10"",""a"":true}","9:14:59","1","4","Test_3","74","j","1","1484.8999999999069","1920 x 1080","1920 x 1080","true","1","10","","","","",""
"null","<p style=""font-size: 80px;"">+ 10 points</p>","null","html-keyboard-response","166","855922","0.0-11.0-2.165","6157671b6ca7514f658ed117","kgtn4p","AE","31","F","{""name"":""Chrome"",""chrome"":true,""version"":""106.0"",""blink"":true,""windows"":true,""osname"":""Windows"",""osversion"":""10"",""a"":true}","9:14:59","1","4","Test_2","70","f","1","626","1920 x 1080","1920 x 1080","true","1","10","","","","",""
"null","<p style=""font-size: 80px;"">+ 10 points</p>","null","html-keyboard-response","167","858674","0.0-11.0-2.166","6157671b6ca7514f658ed117","kgtn4p","AE","31","F","{""name"":""Chrome"",""chrome"":true,""version"":""106.0"",""blink"":true,""windows"":true,""osname"":""Windows"",""osversion"":""10"",""a"":true}","9:14:59","1","4","Test_1","74","j","1","727.8000000000466","1920 x 1080","1920 x 1080","true","1","10","","","","",""
"null","<p style=""font-size: 80px;"">+ 10 points</p>","null","html-keyboard-response","168","861514","0.0-11.0-2.167","6157671b6ca7514f658ed117","kgtn4p","AE","31","F","{""name"":""Chrome"",""chrome"":true,""version"":""106.0"",""blink"":true,""windows"":true,""osname"":""Windows"",""osversion"":""10"",""a"":true}","9:14:59","1","4","Test_1","74","j","1","821.6999999999534","1920 x 1080","1920 x 1080","true","1","10","","","","",""
"null","<p style=""font-size: 80px;"">+ 10 points</p>","null","html-keyboard-response","169","864030","0.0-11.0-2.168","6157671b6ca7514f658ed117","kgtn4p","AE","31","F","{""name"":""Chrome"",""chrome"":true,""version"":""106.0"",""blink"":true,""windows"":true,""osname"":""Windows"",""osversion"":""10"",""a"":true}","9:14:59","1","4","Test_2","70","f","1","500.39999999990687","1920 x 1080","1920 x 1080","true","1","10","","","","",""
"null","<p style=""font-size: 80px;"">+ 10 points</p>","null","html-keyboard-response","170","867559","0.0-11.0-2.169","6157671b6ca7514f658ed117","kgtn4p","AE","31","F","{""name"":""Chrome"",""chrome"":true,""version"":""106.0"",""blink"":true,""windows"":true,""osname"":""Windows"",""osversion"":""10"",""a"":true}","9:14:59","1","4","Test_1","74","j","1","1503","1920 x 1080","1920 x 1080","true","1","10","","","","",""
"null","<p style=""font-size: 80px;"">+ 10 points</p>","null","html-keyboard-response","171","870436","0.0-11.0-2.170","6157671b6ca7514f658ed117","kgtn4p","AE","31","F","{""name"":""Chrome"",""chrome"":true,""version"":""106.0"",""blink"":true,""windows"":true,""osname"":""Windows"",""osversion"":""10"",""a"":true}","9:14:59","1","4","Test_1","74","j","1","854.9000000001397","1920 x 1080","1920 x 1080","true","1","10","","","","",""
"null","<p style=""font-size: 80px;"">+ 10 points</p>","null","html-keyboard-response","172","873827","0.0-11.0-2.171","6157671b6ca7514f658ed117","kgtn4p","AE","31","F","{""name"":""Chrome"",""chrome"":true,""version"":""106.0"",""blink"":true,""windows"":true,""osname"":""Windows"",""osversion"":""10"",""a"":true}","9:14:59","1","4","Test_2","70","f","1","1364.3000000000466","1920 x 1080","1920 x 1080","true","1","10","","","","",""
"null","<p style=""font-size: 80px;"">+ 10 points</p>","null","html-keyboard-response","173","877281","0.0-11.0-2.172","6157671b6ca7514f658ed117","kgtn4p","AE","31","F","{""name"":""Chrome"",""chrome"":true,""version"":""106.0"",""blink"":true,""windows"":true,""osname"":""Windows"",""osversion"":""10"",""a"":true}","9:14:59","1","4","Test_4","70","f","1","1440.3000000000466","1920 x 1080","1920 x 1080","true","1","10","","","","",""
"null","<p style=""font-size: 80px;"">+ 10 points</p>","null","html-keyboard-response","174","881437","0.0-11.0-2.173","6157671b6ca7514f658ed117","kgtn4p","AE","31","F","{""name"":""Chrome"",""chrome"":true,""version"":""106.0"",""blink"":true,""windows"":true,""osname"":""Windows"",""osversion"":""10"",""a"":true}","9:14:59","1","4","Test_4","70","f","1","2139.2999999998137","1920 x 1080","1920 x 1080","true","1","10","","","","",""
"null","<p style=""font-size: 80px;"">+ 10 points</p>","null","html-keyboard-response","175","884422","0.0-11.0-2.174","6157671b6ca7514f658ed117","kgtn4p","AE","31","F","{""name"":""Chrome"",""chrome"":true,""version"":""106.0"",""blink"":true,""windows"":true,""osname"":""Windows"",""osversion"":""10"",""a"":true}","9:14:59","1","4","Test_4","70","f","1","975.8000000000466","1920 x 1080","1920 x 1080","true","1","10","","","","",""
"null","<p style=""font-size: 80px;"">+ 10 points</p>","null","html-keyboard-response","176","887174","0.0-11.0-2.175","6157671b6ca7514f658ed117","kgtn4p","AE","31","F","{""name"":""Chrome"",""chrome"":true,""version"":""106.0"",""blink"":true,""windows"":true,""osname"":""Windows"",""osversion"":""10"",""a"":true}","9:14:59","1","4","Test_4","70","f","1","732.6999999999534","1920 x 1080","1920 x 1080","true","1","10","","","","",""
"null","<p style=""font-size: 80px;"">+ 10 points</p>","null","html-keyboard-response","177","890281","0.0-11.0-2.176","6157671b6ca7514f658ed117","kgtn4p","AE","31","F","{""name"":""Chrome"",""chrome"":true,""version"":""106.0"",""blink"":true,""windows"":true,""osname"":""Windows"",""osversion"":""10"",""a"":true}","9:14:59","1","4","Test_1","74","j","1","1085.8999999999069","1920 x 1080","1920 x 1080","true","1","10","","","","",""
"null","<p style=""font-size: 80px;"">+ 10 points</p>","null","html-keyboard-response","178","893546","0.0-11.0-2.177","6157671b6ca7514f658ed117","kgtn4p","AE","31","F","{""name"":""Chrome"",""chrome"":true,""version"":""106.0"",""blink"":true,""windows"":true,""osname"":""Windows"",""osversion"":""10"",""a"":true}","9:14:59","1","4","Test_3","74","j","1","1242.6000000000931","1920 x 1080","1920 x 1080","true","1","10","","","","",""
"null","<p style=""font-size: 80px;"">+ 10 points</p>","null","html-keyboard-response","179","896282","0.0-11.0-2.178","6157671b6ca7514f658ed117","kgtn4p","AE","31","F","{""name"":""Chrome"",""chrome"":true,""version"":""106.0"",""blink"":true,""windows"":true,""osname"":""Windows"",""osversion"":""10"",""a"":true}","9:14:59","1","4","Test_3","74","j","1","720.4000000001397","1920 x 1080","1920 x 1080","true","1","10","","","","",""
"null","<p style=""font-size: 80px;"">+ 10 points</p>","null","html-keyboard-response","180","899280","0.0-11.0-2.179","6157671b6ca7514f658ed117","kgtn4p","AE","31","F","{""name"":""Chrome"",""chrome"":true,""version"":""106.0"",""blink"":true,""windows"":true,""osname"":""Windows"",""osversion"":""10"",""a"":true}","9:14:59","1","4","Test_2","70","f","1","991.3000000000466","1920 x 1080","1920 x 1080","true","1","10","","","","",""
"null","<p style=""font-size: 80px;"">+ 0 points</p>","null","html-keyboard-response","181","902034","0.0-11.0-2.180","6157671b6ca7514f658ed117","kgtn4p","AE","31","F","{""name"":""Chrome"",""chrome"":true,""version"":""106.0"",""blink"":true,""windows"":true,""osname"":""Windows"",""osversion"":""10"",""a"":true}","9:14:59","1","3","Test_2","70","j","0","735.5999999998603","1920 x 1080","1920 x 1080","true","1","0","","","","",""
"null","<p style=""font-size: 80px;"">+ 10 points</p>","null","html-keyboard-response","182","905635","0.0-11.0-2.181","6157671b6ca7514f658ed117","kgtn4p","AE","31","F","{""name"":""Chrome"",""chrome"":true,""version"":""106.0"",""blink"":true,""windows"":true,""osname"":""Windows"",""osversion"":""10"",""a"":true}","9:14:59","1","3","Test_1","70","f","1","1575","1920 x 1080","1920 x 1080","true","1","10","","","","",""
"null","<p style=""font-size: 80px;"">+ 10 points</p>","null","html-keyboard-response","183","908389","0.0-11.0-2.182","6157671b6ca7514f658ed117","kgtn4p","AE","31","F","{""name"":""Chrome"",""chrome"":true,""version"":""106.0"",""blink"":true,""windows"":true,""osname"":""Windows"",""osversion"":""10"",""a"":true}","9:14:59","1","3","Test_1","70","f","1","725.1999999999534","1920 x 1080","1920 x 1080","true","1","10","","","","",""
"null","<p style=""font-size: 80px;"">+ 10 points</p>","null","html-keyboard-response","184","911447","0.0-11.0-2.183","6157671b6ca7514f658ed117","kgtn4p","AE","31","F","{""name"":""Chrome"",""chrome"":true,""version"":""106.0"",""blink"":true,""windows"":true,""osname"":""Windows"",""osversion"":""10"",""a"":true}","9:14:59","1","3","Test_3","70","f","1","1030.8999999999069","1920 x 1080","1920 x 1080","true","1","10","","","","",""
"null","<p style=""font-size: 80px;"">+ 10 points</p>","null","html-keyboard-response","185","914313","0.0-11.0-2.184","6157671b6ca7514f658ed117","kgtn4p","AE","31","F","{""name"":""Chrome"",""chrome"":true,""version"":""106.0"",""blink"":true,""windows"":true,""osname"":""Windows"",""osversion"":""10"",""a"":true}","9:14:59","1","3","Test_2","74","j","1","850.9000000001397","1920 x 1080","1920 x 1080","true","1","10","","","","",""
"null","<p style=""font-size: 80px;"">+ 10 points</p>","null","html-keyboard-response","186","917470","0.0-11.0-2.185","6157671b6ca7514f658ed117","kgtn4p","AE","31","F","{""name"":""Chrome"",""chrome"":true,""version"":""106.0"",""blink"":true,""windows"":true,""osname"":""Windows"",""osversion"":""10"",""a"":true}","9:14:59","1","3","Test_4","74","j","1","1138.2999999998137","1920 x 1080","1920 x 1080","true","1","10","","","","",""
"null","<p style=""font-size: 80px;"">+ 10 points</p>","null","html-keyboard-response","187","920251","0.0-11.0-2.186","6157671b6ca7514f658ed117","kgtn4p","AE","31","F","{""name"":""Chrome"",""chrome"":true,""version"":""106.0"",""blink"":true,""windows"":true,""osname"":""Windows"",""osversion"":""10"",""a"":true}","9:14:59","1","3","Test_2","74","j","1","773.6000000000931","1920 x 1080","1920 x 1080","true","1","10","","","","",""
"null","<p style=""font-size: 80px;"">+ 10 points</p>","null","html-keyboard-response","188","923141","0.0-11.0-2.187","6157671b6ca7514f658ed117","kgtn4p","AE","31","F","{""name"":""Chrome"",""chrome"":true,""version"":""106.0"",""blink"":true,""windows"":true,""osname"":""Windows"",""osversion"":""10"",""a"":true}","9:14:59","1","3","Test_3","70","f","1","860.6999999999534","1920 x 1080","1920 x 1080","true","1","10","","","","",""
