"rt","stimulus","key_press","trial_type","trial_index","time_elapsed","internal_node_id","Prolific_ID","random_ID","initials","age","gender","pc_info","start_time","Phase","Rule","Stimulus","Response","CorrResp","Accuracy","ResponseTime","screen_resolution","window_resolution","focus","relevant","Points","responses","question_order","rev_check","butterfly_check","passed_practice"
"null","<p style=""font-size: 80px;"">+ 10 points</p>","null","html-keyboard-response","1","77863","0.0-7.0-2.0","62d138e361857aef127c9e8b","bo6utk","DD","28","M","{""name"":""Chrome"",""chrome"":true,""version"":""106.0"",""blink"":true,""windows"":true,""osname"":""Windows"",""osversion"":""10"",""a"":true}","9:17:8","0","1","Practice_4","74","j","1","1314.6000000238419","1536 x 864","1536 x 864","true","1","10","","","","",""
"null","<p style=""font-size: 80px;"">+ 10 points</p>","null","html-keyboard-response","2","80643","0.0-7.0-2.1","62d138e361857aef127c9e8b","bo6utk","DD","28","M","{""name"":""Chrome"",""chrome"":true,""version"":""106.0"",""blink"":true,""windows"":true,""osname"":""Windows"",""osversion"":""10"",""a"":true}","9:17:8","0","1","Practice_4","74","j","1","761.7000000476837","1536 x 864","1536 x 864","true","1","10","","","","",""
"null","<p style=""font-size: 80px;"">+ 10 points</p>","null","html-keyboard-response","3","83423","0.0-7.0-2.2","62d138e361857aef127c9e8b","bo6utk","DD","28","M","{""name"":""Chrome"",""chrome"":true,""version"":""106.0"",""blink"":true,""windows"":true,""osname"":""Windows"",""osversion"":""10"",""a"":true}","9:17:8","0","1","Practice_3","70","f","1","761.2999999523163","1536 x 864","1536 x 864","true","1","10","","","","",""
"null","<p style=""font-size: 80px;"">+ 10 points</p>","null","html-keyboard-response","4","86019","0.0-7.0-2.3","62d138e361857aef127c9e8b","bo6utk","DD","28","M","{""name"":""Chrome"",""chrome"":true,""version"":""106.0"",""blink"":true,""windows"":true,""osname"":""Windows"",""osversion"":""10"",""a"":true}","9:17:8","0","1","Practice_3","70","f","1","567.1000000238419","1536 x 864","1536 x 864","true","1","10","","","","",""
"null","<p style=""font-size: 80px;"">+ 10 points</p>","null","html-keyboard-response","5","88651","0.0-7.0-2.4","62d138e361857aef127c9e8b","bo6utk","DD","28","M","{""name"":""Chrome"",""chrome"":true,""version"":""106.0"",""blink"":true,""windows"":true,""osname"":""Windows"",""osversion"":""10"",""a"":true}","9:17:8","0","1","Practice_4","74","j","1","615.5","1536 x 864","1536 x 864","true","1","10","","","","",""
"null","<p style=""font-size: 80px;"">+ 10 points</p>","null","html-keyboard-response","6","91231","0.0-7.0-2.5","62d138e361857aef127c9e8b","bo6utk","DD","28","M","{""name"":""Chrome"",""chrome"":true,""version"":""106.0"",""blink"":true,""windows"":true,""osname"":""Windows"",""osversion"":""10"",""a"":true}","9:17:8","0","1","Practice_4","74","j","1","553.3999999761581","1536 x 864","1536 x 864","true","1","10","","","","",""
"null","<p style=""font-size: 80px;"">+ 0 points</p>","null","html-keyboard-response","7","93914","0.0-7.0-2.6","62d138e361857aef127c9e8b","bo6utk","DD","28","M","{""name"":""Chrome"",""chrome"":true,""version"":""106.0"",""blink"":true,""windows"":true,""osname"":""Windows"",""osversion"":""10"",""a"":true}","9:17:8","0","1","Practice_2","70","j","0","665.3999999761581","1536 x 864","1536 x 864","true","1","0","","","","",""
"null","<p style=""font-size: 80px;"">+ 10 points</p>","null","html-keyboard-response","8","96772","0.0-7.0-2.7","62d138e361857aef127c9e8b","bo6utk","DD","28","M","{""name"":""Chrome"",""chrome"":true,""version"":""106.0"",""blink"":true,""windows"":true,""osname"":""Windows"",""osversion"":""10"",""a"":true}","9:17:8","0","1","Practice_3","70","f","1","827.3999999761581","1536 x 864","1536 x 864","true","1","10","","","","",""
"null","<p style=""font-size: 80px;"">+ 10 points</p>","null","html-keyboard-response","9","99513","0.0-7.0-2.8","62d138e361857aef127c9e8b","bo6utk","DD","28","M","{""name"":""Chrome"",""chrome"":true,""version"":""106.0"",""blink"":true,""windows"":true,""osname"":""Windows"",""osversion"":""10"",""a"":true}","9:17:8","0","1","Practice_2","74","j","1","727.2999999523163","1536 x 864","1536 x 864","true","1","10","","","","",""
"null","<p style=""font-size: 80px;"">+ 10 points</p>","null","html-keyboard-response","10","102907","0.0-7.0-2.9","62d138e361857aef127c9e8b","bo6utk","DD","28","M","{""name"":""Chrome"",""chrome"":true,""version"":""106.0"",""blink"":true,""windows"":true,""osname"":""Windows"",""osversion"":""10"",""a"":true}","9:17:8","0","1","Practice_1","70","f","1","1376.6000000238419","1536 x 864","1536 x 864","true","1","10","","","","",""
"null","<p style=""font-size: 80px;"">+ 10 points</p>","null","html-keyboard-response","11","105553","0.0-7.0-2.10","62d138e361857aef127c9e8b","bo6utk","DD","28","M","{""name"":""Chrome"",""chrome"":true,""version"":""106.0"",""blink"":true,""windows"":true,""osname"":""Windows"",""osversion"":""10"",""a"":true}","9:17:8","0","1","Practice_2","74","j","1","616.1000000238419","1536 x 864","1536 x 864","true","1","10","","","","",""
"null","<p style=""font-size: 80px;"">+ 10 points</p>","null","html-keyboard-response","12","108383","0.0-7.0-2.11","62d138e361857aef127c9e8b","bo6utk","DD","28","M","{""name"":""Chrome"",""chrome"":true,""version"":""106.0"",""blink"":true,""windows"":true,""osname"":""Windows"",""osversion"":""10"",""a"":true}","9:17:8","0","1","Practice_1","70","f","1","801.1000000238419","1536 x 864","1536 x 864","true","1","10","","","","",""
"null","<p style=""font-size: 80px;"">+ 10 points</p>","null","html-keyboard-response","13","111233","0.0-7.0-2.12","62d138e361857aef127c9e8b","bo6utk","DD","28","M","{""name"":""Chrome"",""chrome"":true,""version"":""106.0"",""blink"":true,""windows"":true,""osname"":""Windows"",""osversion"":""10"",""a"":true}","9:17:8","0","1","Practice_2","74","j","1","837.6000000238419","1536 x 864","1536 x 864","true","1","10","","","","",""
"null","<p style=""font-size: 80px;"">+ 10 points</p>","null","html-keyboard-response","14","113862","0.0-7.0-2.13","62d138e361857aef127c9e8b","bo6utk","DD","28","M","{""name"":""Chrome"",""chrome"":true,""version"":""106.0"",""blink"":true,""windows"":true,""osname"":""Windows"",""osversion"":""10"",""a"":true}","9:17:8","0","1","Practice_3","70","f","1","607.3000000715256","1536 x 864","1536 x 864","true","1","10","","","","",""
"null","<p style=""font-size: 80px;"">+ 0 points</p>","null","html-keyboard-response","15","116543","0.0-7.0-2.14","62d138e361857aef127c9e8b","bo6utk","DD","28","M","{""name"":""Chrome"",""chrome"":true,""version"":""106.0"",""blink"":true,""windows"":true,""osname"":""Windows"",""osversion"":""10"",""a"":true}","9:17:8","0","1","Practice_1","74","f","0","652.2000000476837","1536 x 864","1536 x 864","true","1","0","","","","",""
"null","<p style=""font-size: 80px;"">+ 10 points</p>","null","html-keyboard-response","16","119557","0.0-7.0-2.15","62d138e361857aef127c9e8b","bo6utk","DD","28","M","{""name"":""Chrome"",""chrome"":true,""version"":""106.0"",""blink"":true,""windows"":true,""osname"":""Windows"",""osversion"":""10"",""a"":true}","9:17:8","0","1","Practice_4","74","j","1","981.8999999761581","1536 x 864","1536 x 864","true","1","10","","","","",""
"null","<p style=""font-size: 80px;"">+ 10 points</p>","null","html-keyboard-response","17","122608","0.0-7.0-2.16","62d138e361857aef127c9e8b","bo6utk","DD","28","M","{""name"":""Chrome"",""chrome"":true,""version"":""106.0"",""blink"":true,""windows"":true,""osname"":""Windows"",""osversion"":""10"",""a"":true}","9:17:8","0","1","Practice_1","70","f","1","1033.4000000953674","1536 x 864","1536 x 864","true","1","10","","","","",""
"null","<p style=""font-size: 80px;"">+ 10 points</p>","null","html-keyboard-response","18","125158","0.0-7.0-2.17","62d138e361857aef127c9e8b","bo6utk","DD","28","M","{""name"":""Chrome"",""chrome"":true,""version"":""106.0"",""blink"":true,""windows"":true,""osname"":""Windows"",""osversion"":""10"",""a"":true}","9:17:8","0","1","Practice_1","70","f","1","526.6000000238419","1536 x 864","1536 x 864","true","1","10","","","","",""
"null","<p style=""font-size: 80px;"">+ 10 points</p>","null","html-keyboard-response","19","127671","0.0-7.0-2.18","62d138e361857aef127c9e8b","bo6utk","DD","28","M","{""name"":""Chrome"",""chrome"":true,""version"":""106.0"",""blink"":true,""windows"":true,""osname"":""Windows"",""osversion"":""10"",""a"":true}","9:17:8","0","1","Practice_2","74","j","1","482","1536 x 864","1536 x 864","true","1","10","","","","",""
"null","<p style=""font-size: 80px;"">+ 10 points</p>","null","html-keyboard-response","20","130154","0.0-7.0-2.19","62d138e361857aef127c9e8b","bo6utk","DD","28","M","{""name"":""Chrome"",""chrome"":true,""version"":""106.0"",""blink"":true,""windows"":true,""osname"":""Windows"",""osversion"":""10"",""a"":true}","9:17:8","0","1","Practice_3","70","f","1","459.7999999523163","1536 x 864","1536 x 864","true","1","10","","","","",""
"null","<p style=""font-size: 80px;"">+ 0 points</p>","null","html-keyboard-response","21","132800","0.0-7.0-2.20","62d138e361857aef127c9e8b","bo6utk","DD","28","M","{""name"":""Chrome"",""chrome"":true,""version"":""106.0"",""blink"":true,""windows"":true,""osname"":""Windows"",""osversion"":""10"",""a"":true}","9:17:8","0","2","Practice_1","70","j","0","629.2000000476837","1536 x 864","1536 x 864","true","1","0","","","","",""
"null","<p style=""font-size: 80px;"">+ 10 points</p>","null","html-keyboard-response","22","135663","0.0-7.0-2.21","62d138e361857aef127c9e8b","bo6utk","DD","28","M","{""name"":""Chrome"",""chrome"":true,""version"":""106.0"",""blink"":true,""windows"":true,""osname"":""Windows"",""osversion"":""10"",""a"":true}","9:17:8","0","2","Practice_1","74","j","1","830.2999999523163","1536 x 864","1536 x 864","true","1","10","","","","",""
"null","<p style=""font-size: 80px;"">+ 10 points</p>","null","html-keyboard-response","23","138379","0.0-7.0-2.22","62d138e361857aef127c9e8b","bo6utk","DD","28","M","{""name"":""Chrome"",""chrome"":true,""version"":""106.0"",""blink"":true,""windows"":true,""osname"":""Windows"",""osversion"":""10"",""a"":true}","9:17:8","0","2","Practice_2","70","f","1","707.8999999761581","1536 x 864","1536 x 864","true","1","10","","","","",""
"null","<p style=""font-size: 80px;"">+ 10 points</p>","null","html-keyboard-response","24","141141","0.0-7.0-2.23","62d138e361857aef127c9e8b","bo6utk","DD","28","M","{""name"":""Chrome"",""chrome"":true,""version"":""106.0"",""blink"":true,""windows"":true,""osname"":""Windows"",""osversion"":""10"",""a"":true}","9:17:8","0","2","Practice_2","70","f","1","734.1000000238419","1536 x 864","1536 x 864","true","1","10","","","","",""
"null","<p style=""font-size: 80px;"">+ 10 points</p>","null","html-keyboard-response","25","144139","0.0-7.0-2.24","62d138e361857aef127c9e8b","bo6utk","DD","28","M","{""name"":""Chrome"",""chrome"":true,""version"":""106.0"",""blink"":true,""windows"":true,""osname"":""Windows"",""osversion"":""10"",""a"":true}","9:17:8","0","2","Practice_3","74","j","1","971.6999999284744","1536 x 864","1536 x 864","true","1","10","","","","",""
"null","<p style=""font-size: 80px;"">+ 10 points</p>","null","html-keyboard-response","26","147639","0.0-7.0-2.25","62d138e361857aef127c9e8b","bo6utk","DD","28","M","{""name"":""Chrome"",""chrome"":true,""version"":""106.0"",""blink"":true,""windows"":true,""osname"":""Windows"",""osversion"":""10"",""a"":true}","9:17:8","0","2","Practice_2","70","f","1","1487.8000000715256","1536 x 864","1536 x 864","true","1","10","","","","",""
"null","<p style=""font-size: 80px;"">+ 10 points</p>","null","html-keyboard-response","27","150700","0.0-7.0-2.26","62d138e361857aef127c9e8b","bo6utk","DD","28","M","{""name"":""Chrome"",""chrome"":true,""version"":""106.0"",""blink"":true,""windows"":true,""osname"":""Windows"",""osversion"":""10"",""a"":true}","9:17:8","0","2","Practice_3","74","j","1","1037","1536 x 864","1536 x 864","true","1","10","","","","",""
"null","<p style=""font-size: 80px;"">+ 10 points</p>","null","html-keyboard-response","28","154181","0.0-7.0-2.27","62d138e361857aef127c9e8b","bo6utk","DD","28","M","{""name"":""Chrome"",""chrome"":true,""version"":""106.0"",""blink"":true,""windows"":true,""osname"":""Windows"",""osversion"":""10"",""a"":true}","9:17:8","0","2","Practice_4","70","f","1","1463","1536 x 864","1536 x 864","true","1","10","","","","",""
"null","<p style=""font-size: 80px;"">+ 10 points</p>","null","html-keyboard-response","29","157445","0.0-7.0-2.28","62d138e361857aef127c9e8b","bo6utk","DD","28","M","{""name"":""Chrome"",""chrome"":true,""version"":""106.0"",""blink"":true,""windows"":true,""osname"":""Windows"",""osversion"":""10"",""a"":true}","9:17:8","0","2","Practice_3","74","j","1","1238.1000000238419","1536 x 864","1536 x 864","true","1","10","","","","",""
"null","<p style=""font-size: 80px;"">+ 10 points</p>","null","html-keyboard-response","30","160072","0.0-7.0-2.29","62d138e361857aef127c9e8b","bo6utk","DD","28","M","{""name"":""Chrome"",""chrome"":true,""version"":""106.0"",""blink"":true,""windows"":true,""osname"":""Windows"",""osversion"":""10"",""a"":true}","9:17:8","0","2","Practice_2","70","f","1","594.6999999284744","1536 x 864","1536 x 864","true","1","10","","","","",""
"null","<p style=""font-size: 80px;"">+ 10 points</p>","null","html-keyboard-response","31","163123","0.0-7.0-2.30","62d138e361857aef127c9e8b","bo6utk","DD","28","M","{""name"":""Chrome"",""chrome"":true,""version"":""106.0"",""blink"":true,""windows"":true,""osname"":""Windows"",""osversion"":""10"",""a"":true}","9:17:8","0","2","Practice_4","70","f","1","1032.3000000715256","1536 x 864","1536 x 864","true","1","10","","","","",""
"null","<p style=""font-size: 80px;"">+ 10 points</p>","null","html-keyboard-response","32","166223","0.0-7.0-2.31","62d138e361857aef127c9e8b","bo6utk","DD","28","M","{""name"":""Chrome"",""chrome"":true,""version"":""106.0"",""blink"":true,""windows"":true,""osname"":""Windows"",""osversion"":""10"",""a"":true}","9:17:8","0","2","Practice_4","70","f","1","1094.5","1536 x 864","1536 x 864","true","1","10","","","","",""
"null","<p style=""font-size: 80px;"">+ 10 points</p>","null","html-keyboard-response","33","169537","0.0-7.0-2.32","62d138e361857aef127c9e8b","bo6utk","DD","28","M","{""name"":""Chrome"",""chrome"":true,""version"":""106.0"",""blink"":true,""windows"":true,""osname"":""Windows"",""osversion"":""10"",""a"":true}","9:17:8","0","2","Practice_4","70","f","1","1281.1000000238419","1536 x 864","1536 x 864","true","1","10","","","","",""
"null","<p style=""font-size: 80px;"">+ 10 points</p>","null","html-keyboard-response","34","173218","0.0-7.0-2.33","62d138e361857aef127c9e8b","bo6utk","DD","28","M","{""name"":""Chrome"",""chrome"":true,""version"":""106.0"",""blink"":true,""windows"":true,""osname"":""Windows"",""osversion"":""10"",""a"":true}","9:17:8","0","2","Practice_3","74","j","1","1648.7999999523163","1536 x 864","1536 x 864","true","1","10","","","","",""
"null","<p style=""font-size: 80px;"">+ 0 points</p>","null","html-keyboard-response","35","176617","0.0-7.0-2.34","62d138e361857aef127c9e8b","bo6utk","DD","28","M","{""name"":""Chrome"",""chrome"":true,""version"":""106.0"",""blink"":true,""windows"":true,""osname"":""Windows"",""osversion"":""10"",""a"":true}","9:17:8","0","2","Practice_1","70","j","0","1379.8000000715256","1536 x 864","1536 x 864","true","1","0","","","","",""
"null","<p style=""font-size: 80px;"">+ 10 points</p>","null","html-keyboard-response","36","179698","0.0-7.0-2.35","62d138e361857aef127c9e8b","bo6utk","DD","28","M","{""name"":""Chrome"",""chrome"":true,""version"":""106.0"",""blink"":true,""windows"":true,""osname"":""Windows"",""osversion"":""10"",""a"":true}","9:17:8","0","2","Practice_4","70","f","1","1061.7999999523163","1536 x 864","1536 x 864","true","1","10","","","","",""
"null","<p style=""font-size: 80px;"">+ 10 points</p>","null","html-keyboard-response","37","183269","0.0-7.0-2.36","62d138e361857aef127c9e8b","bo6utk","DD","28","M","{""name"":""Chrome"",""chrome"":true,""version"":""106.0"",""blink"":true,""windows"":true,""osname"":""Windows"",""osversion"":""10"",""a"":true}","9:17:8","0","2","Practice_1","74","j","1","1555.3999999761581","1536 x 864","1536 x 864","true","1","10","","","","",""
"null","<p style=""font-size: 80px;"">+ 10 points</p>","null","html-keyboard-response","38","186463","0.0-7.0-2.37","62d138e361857aef127c9e8b","bo6utk","DD","28","M","{""name"":""Chrome"",""chrome"":true,""version"":""106.0"",""blink"":true,""windows"":true,""osname"":""Windows"",""osversion"":""10"",""a"":true}","9:17:8","0","2","Practice_3","74","j","1","1172.5","1536 x 864","1536 x 864","true","1","10","","","","",""
"null","<p style=""font-size: 80px;"">+ 0 points</p>","null","html-keyboard-response","39","189581","0.0-7.0-2.38","62d138e361857aef127c9e8b","bo6utk","DD","28","M","{""name"":""Chrome"",""chrome"":true,""version"":""106.0"",""blink"":true,""windows"":true,""osname"":""Windows"",""osversion"":""10"",""a"":true}","9:17:8","0","2","Practice_1","70","j","0","1085.5","1536 x 864","1536 x 864","true","1","0","","","","",""
"null","<p style=""font-size: 80px;"">+ 10 points</p>","null","html-keyboard-response","40","192593","0.0-7.0-2.39","62d138e361857aef127c9e8b","bo6utk","DD","28","M","{""name"":""Chrome"",""chrome"":true,""version"":""106.0"",""blink"":true,""windows"":true,""osname"":""Windows"",""osversion"":""10"",""a"":true}","9:17:8","0","2","Practice_2","70","f","1","991.2000000476837","1536 x 864","1536 x 864","true","1","10","","","","",""
"9622","","","survey-multi-choice","127","202218","0.0-8.0","62d138e361857aef127c9e8b","bo6utk","DD","28","M","{""name"":""Chrome"",""chrome"":true,""version"":""106.0"",""blink"":true,""windows"":true,""osname"":""Windows"",""osversion"":""10"",""a"":true}","9:17:8","","","","","","","","","","","1","","{""Q0"":""The red one"",""Q1"":""1""}","[0,1]","1","The red one","2"
"null","<p style=""font-size: 80px;"">+ 10 points</p>","null","html-keyboard-response","1","215043","0.0-11.0-2.0","62d138e361857aef127c9e8b","bo6utk","DD","28","M","{""name"":""Chrome"",""chrome"":true,""version"":""106.0"",""blink"":true,""windows"":true,""osname"":""Windows"",""osversion"":""10"",""a"":true}","9:17:8","1","4","Test_2","70","f","1","1206.0999999046326","1536 x 864","1536 x 864","true","1","10","","","","",""
"null","<p style=""font-size: 80px;"">+ 10 points</p>","null","html-keyboard-response","2","218473","0.0-11.0-2.1","62d138e361857aef127c9e8b","bo6utk","DD","28","M","{""name"":""Chrome"",""chrome"":true,""version"":""106.0"",""blink"":true,""windows"":true,""osname"":""Windows"",""osversion"":""10"",""a"":true}","9:17:8","1","4","Test_4","70","f","1","1408.7000000476837","1536 x 864","1536 x 864","true","1","10","","","","",""
"null","<p style=""font-size: 80px;"">+ 10 points</p>","null","html-keyboard-response","3","221336","0.0-11.0-2.2","62d138e361857aef127c9e8b","bo6utk","DD","28","M","{""name"":""Chrome"",""chrome"":true,""version"":""106.0"",""blink"":true,""windows"":true,""osname"":""Windows"",""osversion"":""10"",""a"":true}","9:17:8","1","4","Test_4","70","f","1","832.6999999284744","1536 x 864","1536 x 864","true","1","10","","","","",""
"null","<p style=""font-size: 80px;"">+ 10 points</p>","null","html-keyboard-response","4","224137","0.0-11.0-2.3","62d138e361857aef127c9e8b","bo6utk","DD","28","M","{""name"":""Chrome"",""chrome"":true,""version"":""106.0"",""blink"":true,""windows"":true,""osname"":""Windows"",""osversion"":""10"",""a"":true}","9:17:8","1","4","Test_4","70","f","1","781.8999999761581","1536 x 864","1536 x 864","true","1","10","","","","",""
"null","<p style=""font-size: 80px;"">+ 10 points</p>","null","html-keyboard-response","5","227443","0.0-11.0-2.4","62d138e361857aef127c9e8b","bo6utk","DD","28","M","{""name"":""Chrome"",""chrome"":true,""version"":""106.0"",""blink"":true,""windows"":true,""osname"":""Windows"",""osversion"":""10"",""a"":true}","9:17:8","1","4","Test_1","74","j","1","1290.8000000715256","1536 x 864","1536 x 864","true","1","10","","","","",""
"null","<p style=""font-size: 80px;"">+ 10 points</p>","null","html-keyboard-response","6","230525","0.0-11.0-2.5","62d138e361857aef127c9e8b","bo6utk","DD","28","M","{""name"":""Chrome"",""chrome"":true,""version"":""106.0"",""blink"":true,""windows"":true,""osname"":""Windows"",""osversion"":""10"",""a"":true}","9:17:8","1","4","Test_4","70","f","1","1064.6000000238419","1536 x 864","1536 x 864","true","1","10","","","","",""
"null","<p style=""font-size: 80px;"">+ 10 points</p>","null","html-keyboard-response","7","234631","0.0-11.0-2.6","62d138e361857aef127c9e8b","bo6utk","DD","28","M","{""name"":""Chrome"",""chrome"":true,""version"":""106.0"",""blink"":true,""windows"":true,""osname"":""Windows"",""osversion"":""10"",""a"":true}","9:17:8","1","4","Test_2","70","f","1","2094","1536 x 864","1536 x 864","true","1","10","","","","",""
"null","<p style=""font-size: 80px;"">+ 10 points</p>","null","html-keyboard-response","8","238021","0.0-11.0-2.7","62d138e361857aef127c9e8b","bo6utk","DD","28","M","{""name"":""Chrome"",""chrome"":true,""version"":""106.0"",""blink"":true,""windows"":true,""osname"":""Windows"",""osversion"":""10"",""a"":true}","9:17:8","1","4","Test_3","74","j","1","1372.2999999523163","1536 x 864","1536 x 864","true","1","10","","","","",""
"null","<p style=""font-size: 80px;"">+ 10 points</p>","null","html-keyboard-response","9","240865","0.0-11.0-2.8","62d138e361857aef127c9e8b","bo6utk","DD","28","M","{""name"":""Chrome"",""chrome"":true,""version"":""106.0"",""blink"":true,""windows"":true,""osname"":""Windows"",""osversion"":""10"",""a"":true}","9:17:8","1","4","Test_2","70","f","1","815.2999999523163","1536 x 864","1536 x 864","true","1","10","","","","",""
"null","<p style=""font-size: 80px;"">+ 10 points</p>","null","html-keyboard-response","10","243672","0.0-11.0-2.9","62d138e361857aef127c9e8b","bo6utk","DD","28","M","{""name"":""Chrome"",""chrome"":true,""version"":""106.0"",""blink"":true,""windows"":true,""osname"":""Windows"",""osversion"":""10"",""a"":true}","9:17:8","1","4","Test_1","74","j","1","768.6000000238419","1536 x 864","1536 x 864","true","1","10","","","","",""
"null","<p style=""font-size: 80px;"">+ 10 points</p>","null","html-keyboard-response","11","247039","0.0-11.0-2.10","62d138e361857aef127c9e8b","bo6utk","DD","28","M","{""name"":""Chrome"",""chrome"":true,""version"":""106.0"",""blink"":true,""windows"":true,""osname"":""Windows"",""osversion"":""10"",""a"":true}","9:17:8","1","4","Test_1","74","j","1","1341.7000000476837","1536 x 864","1536 x 864","true","1","10","","","","",""
"null","<p style=""font-size: 80px;"">+ 0 points</p>","null","html-keyboard-response","12","249817","0.0-11.0-2.11","62d138e361857aef127c9e8b","bo6utk","DD","28","M","{""name"":""Chrome"",""chrome"":true,""version"":""106.0"",""blink"":true,""windows"":true,""osname"":""Windows"",""osversion"":""10"",""a"":true}","9:17:8","1","4","Test_3","70","j","0","754.4000000953674","1536 x 864","1536 x 864","true","1","0","","","","",""
"null","<p style=""font-size: 80px;"">+ 10 points</p>","null","html-keyboard-response","13","253733","0.0-11.0-2.12","62d138e361857aef127c9e8b","bo6utk","DD","28","M","{""name"":""Chrome"",""chrome"":true,""version"":""106.0"",""blink"":true,""windows"":true,""osname"":""Windows"",""osversion"":""10"",""a"":true}","9:17:8","1","4","Test_2","70","f","1","1896.7000000476837","1536 x 864","1536 x 864","true","1","10","","","","",""
"null","<p style=""font-size: 80px;"">+ 10 points</p>","null","html-keyboard-response","14","256630","0.0-11.0-2.13","62d138e361857aef127c9e8b","bo6utk","DD","28","M","{""name"":""Chrome"",""chrome"":true,""version"":""106.0"",""blink"":true,""windows"":true,""osname"":""Windows"",""osversion"":""10"",""a"":true}","9:17:8","1","4","Test_2","70","f","1","876.7000000476837","1536 x 864","1536 x 864","true","1","10","","","","",""
"null","<p style=""font-size: 80px;"">+ 10 points</p>","null","html-keyboard-response","15","259242","0.0-11.0-2.14","62d138e361857aef127c9e8b","bo6utk","DD","28","M","{""name"":""Chrome"",""chrome"":true,""version"":""106.0"",""blink"":true,""windows"":true,""osname"":""Windows"",""osversion"":""10"",""a"":true}","9:17:8","1","4","Test_3","74","j","1","577.2000000476837","1536 x 864","1536 x 864","true","1","10","","","","",""
"null","<p style=""font-size: 80px;"">+ 10 points</p>","null","html-keyboard-response","16","262092","0.0-11.0-2.15","62d138e361857aef127c9e8b","bo6utk","DD","28","M","{""name"":""Chrome"",""chrome"":true,""version"":""106.0"",""blink"":true,""windows"":true,""osname"":""Windows"",""osversion"":""10"",""a"":true}","9:17:8","1","4","Test_1","74","j","1","823.3999999761581","1536 x 864","1536 x 864","true","1","10","","","","",""
"null","<p style=""font-size: 80px;"">+ 0 points</p>","null","html-keyboard-response","17","264986","0.0-11.0-2.16","62d138e361857aef127c9e8b","bo6utk","DD","28","M","{""name"":""Chrome"",""chrome"":true,""version"":""106.0"",""blink"":true,""windows"":true,""osname"":""Windows"",""osversion"":""10"",""a"":true}","9:17:8","1","4","Test_3","70","j","0","863.2999999523163","1536 x 864","1536 x 864","true","1","0","","","","",""
"null","<p style=""font-size: 80px;"">+ 10 points</p>","null","html-keyboard-response","18","268452","0.0-11.0-2.17","62d138e361857aef127c9e8b","bo6utk","DD","28","M","{""name"":""Chrome"",""chrome"":true,""version"":""106.0"",""blink"":true,""windows"":true,""osname"":""Windows"",""osversion"":""10"",""a"":true}","9:17:8","1","4","Test_1","74","j","1","1455.0999999046326","1536 x 864","1536 x 864","true","1","10","","","","",""
"null","<p style=""font-size: 80px;"">+ 10 points</p>","null","html-keyboard-response","19","272427","0.0-11.0-2.18","62d138e361857aef127c9e8b","bo6utk","DD","28","M","{""name"":""Chrome"",""chrome"":true,""version"":""106.0"",""blink"":true,""windows"":true,""osname"":""Windows"",""osversion"":""10"",""a"":true}","9:17:8","1","4","Test_3","74","j","1","1948.7000000476837","1536 x 864","1536 x 864","true","1","10","","","","",""
"null","<p style=""font-size: 80px;"">+ 0 points</p>","null","html-keyboard-response","20","275196","0.0-11.0-2.19","62d138e361857aef127c9e8b","bo6utk","DD","28","M","{""name"":""Chrome"",""chrome"":true,""version"":""106.0"",""blink"":true,""windows"":true,""osname"":""Windows"",""osversion"":""10"",""a"":true}","9:17:8","1","3","Test_4","70","j","0","756","1536 x 864","1536 x 864","true","1","0","","","","",""
"null","<p style=""font-size: 80px;"">+ 10 points</p>","null","html-keyboard-response","21","278480","0.0-11.0-2.20","62d138e361857aef127c9e8b","bo6utk","DD","28","M","{""name"":""Chrome"",""chrome"":true,""version"":""106.0"",""blink"":true,""windows"":true,""osname"":""Windows"",""osversion"":""10"",""a"":true}","9:17:8","1","3","Test_1","70","f","1","1270.6000000238419","1536 x 864","1536 x 864","true","1","10","","","","",""
"null","<p style=""font-size: 80px;"">+ 10 points</p>","null","html-keyboard-response","22","282514","0.0-11.0-2.21","62d138e361857aef127c9e8b","bo6utk","DD","28","M","{""name"":""Chrome"",""chrome"":true,""version"":""106.0"",""blink"":true,""windows"":true,""osname"":""Windows"",""osversion"":""10"",""a"":true}","9:17:8","1","3","Test_2","74","j","1","2012","1536 x 864","1536 x 864","true","1","10","","","","",""
"null","<p style=""font-size: 80px;"">+ 10 points</p>","null","html-keyboard-response","23","285255","0.0-11.0-2.22","62d138e361857aef127c9e8b","bo6utk","DD","28","M","{""name"":""Chrome"",""chrome"":true,""version"":""106.0"",""blink"":true,""windows"":true,""osname"":""Windows"",""osversion"":""10"",""a"":true}","9:17:8","1","3","Test_3","70","f","1","724.6000000238419","1536 x 864","1536 x 864","true","1","10","","","","",""
"null","<p style=""font-size: 80px;"">+ 10 points</p>","null","html-keyboard-response","24","288052","0.0-11.0-2.23","62d138e361857aef127c9e8b","bo6utk","DD","28","M","{""name"":""Chrome"",""chrome"":true,""version"":""106.0"",""blink"":true,""windows"":true,""osname"":""Windows"",""osversion"":""10"",""a"":true}","9:17:8","1","3","Test_1","70","f","1","780.6000000238419","1536 x 864","1536 x 864","true","1","10","","","","",""
"null","<p style=""font-size: 80px;"">+ 0 points</p>","null","html-keyboard-response","25","291217","0.0-11.0-2.24","62d138e361857aef127c9e8b","bo6utk","DD","28","M","{""name"":""Chrome"",""chrome"":true,""version"":""106.0"",""blink"":true,""windows"":true,""osname"":""Windows"",""osversion"":""10"",""a"":true}","9:17:8","1","3","Test_1","74","f","0","1145.2000000476837","1536 x 864","1536 x 864","true","1","0","","","","",""
"null","<p style=""font-size: 80px;"">+ 0 points</p>","null","html-keyboard-response","26","294692","0.0-11.0-2.25","62d138e361857aef127c9e8b","bo6utk","DD","28","M","{""name"":""Chrome"",""chrome"":true,""version"":""106.0"",""blink"":true,""windows"":true,""osname"":""Windows"",""osversion"":""10"",""a"":true}","9:17:8","1","3","Test_4","70","j","0","1450.3000000715256","1536 x 864","1536 x 864","true","1","0","","","","",""
"null","<p style=""font-size: 80px;"">+ 10 points</p>","null","html-keyboard-response","27","297596","0.0-11.0-2.26","62d138e361857aef127c9e8b","bo6utk","DD","28","M","{""name"":""Chrome"",""chrome"":true,""version"":""106.0"",""blink"":true,""windows"":true,""osname"":""Windows"",""osversion"":""10"",""a"":true}","9:17:8","1","3","Test_3","70","f","1","881.7000000476837","1536 x 864","1536 x 864","true","1","10","","","","",""
"null","<p style=""font-size: 80px;"">+ 10 points</p>","null","html-keyboard-response","28","300453","0.0-11.0-2.27","62d138e361857aef127c9e8b","bo6utk","DD","28","M","{""name"":""Chrome"",""chrome"":true,""version"":""106.0"",""blink"":true,""windows"":true,""osname"":""Windows"",""osversion"":""10"",""a"":true}","9:17:8","1","3","Test_4","74","j","1","834.5","1536 x 864","1536 x 864","true","1","10","","","","",""
"null","<p style=""font-size: 80px;"">+ 10 points</p>","null","html-keyboard-response","29","303060","0.0-11.0-2.28","62d138e361857aef127c9e8b","bo6utk","DD","28","M","{""name"":""Chrome"",""chrome"":true,""version"":""106.0"",""blink"":true,""windows"":true,""osname"":""Windows"",""osversion"":""10"",""a"":true}","9:17:8","1","3","Test_1","70","f","1","587","1536 x 864","1536 x 864","true","1","10","","","","",""
"null","<p style=""font-size: 80px;"">+ 10 points</p>","null","html-keyboard-response","30","305893","0.0-11.0-2.29","62d138e361857aef127c9e8b","bo6utk","DD","28","M","{""name"":""Chrome"",""chrome"":true,""version"":""106.0"",""blink"":true,""windows"":true,""osname"":""Windows"",""osversion"":""10"",""a"":true}","9:17:8","1","3","Test_3","70","f","1","807","1536 x 864","1536 x 864","true","1","10","","","","",""
"null","<p style=""font-size: 80px;"">+ 10 points</p>","null","html-keyboard-response","31","308658","0.0-11.0-2.30","62d138e361857aef127c9e8b","bo6utk","DD","28","M","{""name"":""Chrome"",""chrome"":true,""version"":""106.0"",""blink"":true,""windows"":true,""osname"":""Windows"",""osversion"":""10"",""a"":true}","9:17:8","1","3","Test_1","70","f","1","732.6999999284744","1536 x 864","1536 x 864","true","1","10","","","","",""
"null","<p style=""font-size: 80px;"">+ 0 points</p>","null","html-keyboard-response","32","311406","0.0-11.0-2.31","62d138e361857aef127c9e8b","bo6utk","DD","28","M","{""name"":""Chrome"",""chrome"":true,""version"":""106.0"",""blink"":true,""windows"":true,""osname"":""Windows"",""osversion"":""10"",""a"":true}","9:17:8","1","3","Test_2","70","j","0","721.7000000476837","1536 x 864","1536 x 864","true","1","0","","","","",""
"null","<p style=""font-size: 80px;"">+ 10 points</p>","null","html-keyboard-response","33","314515","0.0-11.0-2.32","62d138e361857aef127c9e8b","bo6utk","DD","28","M","{""name"":""Chrome"",""chrome"":true,""version"":""106.0"",""blink"":true,""windows"":true,""osname"":""Windows"",""osversion"":""10"",""a"":true}","9:17:8","1","3","Test_3","70","f","1","1085.5","1536 x 864","1536 x 864","true","1","10","","","","",""
"null","<p style=""font-size: 80px;"">+ 10 points</p>","null","html-keyboard-response","34","317430","0.0-11.0-2.33","62d138e361857aef127c9e8b","bo6utk","DD","28","M","{""name"":""Chrome"",""chrome"":true,""version"":""106.0"",""blink"":true,""windows"":true,""osname"":""Windows"",""osversion"":""10"",""a"":true}","9:17:8","1","3","Test_3","70","f","1","894.2999999523163","1536 x 864","1536 x 864","true","1","10","","","","",""
"null","<p style=""font-size: 80px;"">+ 10 points</p>","null","html-keyboard-response","35","320262","0.0-11.0-2.34","62d138e361857aef127c9e8b","bo6utk","DD","28","M","{""name"":""Chrome"",""chrome"":true,""version"":""106.0"",""blink"":true,""windows"":true,""osname"":""Windows"",""osversion"":""10"",""a"":true}","9:17:8","1","3","Test_4","74","j","1","798.9000000953674","1536 x 864","1536 x 864","true","1","10","","","","",""
"null","<p style=""font-size: 80px;"">+ 0 points</p>","null","html-keyboard-response","36","322994","0.0-11.0-2.35","62d138e361857aef127c9e8b","bo6utk","DD","28","M","{""name"":""Chrome"",""chrome"":true,""version"":""106.0"",""blink"":true,""windows"":true,""osname"":""Windows"",""osversion"":""10"",""a"":true}","9:17:8","1","3","Test_4","70","j","0","698.7999999523163","1536 x 864","1536 x 864","true","1","0","","","","",""
"null","<p style=""font-size: 80px;"">+ 10 points</p>","null","html-keyboard-response","37","325926","0.0-11.0-2.36","62d138e361857aef127c9e8b","bo6utk","DD","28","M","{""name"":""Chrome"",""chrome"":true,""version"":""106.0"",""blink"":true,""windows"":true,""osname"":""Windows"",""osversion"":""10"",""a"":true}","9:17:8","1","3","Test_1","70","f","1","925.3999999761581","1536 x 864","1536 x 864","true","1","10","","","","",""
"null","<p style=""font-size: 80px;"">+ 10 points</p>","null","html-keyboard-response","38","328704","0.0-11.0-2.37","62d138e361857aef127c9e8b","bo6utk","DD","28","M","{""name"":""Chrome"",""chrome"":true,""version"":""106.0"",""blink"":true,""windows"":true,""osname"":""Windows"",""osversion"":""10"",""a"":true}","9:17:8","1","3","Test_2","74","j","1","757.5","1536 x 864","1536 x 864","true","1","10","","","","",""
"null","<p style=""font-size: 80px;"">+ 10 points</p>","null","html-keyboard-response","39","331521","0.0-11.0-2.38","62d138e361857aef127c9e8b","bo6utk","DD","28","M","{""name"":""Chrome"",""chrome"":true,""version"":""106.0"",""blink"":true,""windows"":true,""osname"":""Windows"",""osversion"":""10"",""a"":true}","9:17:8","1","3","Test_4","74","j","1","790.7999999523163","1536 x 864","1536 x 864","true","1","10","","","","",""
"null","<p style=""font-size: 80px;"">+ 10 points</p>","null","html-keyboard-response","40","334167","0.0-11.0-2.39","62d138e361857aef127c9e8b","bo6utk","DD","28","M","{""name"":""Chrome"",""chrome"":true,""version"":""106.0"",""blink"":true,""windows"":true,""osname"":""Windows"",""osversion"":""10"",""a"":true}","9:17:8","1","3","Test_3","70","f","1","620.1000000238419","1536 x 864","1536 x 864","true","1","10","","","","",""
"null","<p style=""font-size: 80px;"">+ 10 points</p>","null","html-keyboard-response","41","336965","0.0-11.0-2.40","62d138e361857aef127c9e8b","bo6utk","DD","28","M","{""name"":""Chrome"",""chrome"":true,""version"":""106.0"",""blink"":true,""windows"":true,""osname"":""Windows"",""osversion"":""10"",""a"":true}","9:17:8","1","3","Test_2","74","j","1","766.6000000238419","1536 x 864","1536 x 864","true","1","10","","","","",""
"null","<p style=""font-size: 80px;"">+ 0 points</p>","null","html-keyboard-response","42","339613","0.0-11.0-2.41","62d138e361857aef127c9e8b","bo6utk","DD","28","M","{""name"":""Chrome"",""chrome"":true,""version"":""106.0"",""blink"":true,""windows"":true,""osname"":""Windows"",""osversion"":""10"",""a"":true}","9:17:8","1","3","Test_2","70","j","0","617.2000000476837","1536 x 864","1536 x 864","true","1","0","","","","",""
"null","<p style=""font-size: 80px;"">+ 0 points</p>","null","html-keyboard-response","43","342228","0.0-11.0-2.42","62d138e361857aef127c9e8b","bo6utk","DD","28","M","{""name"":""Chrome"",""chrome"":true,""version"":""106.0"",""blink"":true,""windows"":true,""osname"":""Windows"",""osversion"":""10"",""a"":true}","9:17:8","1","4","Test_1","70","j","0","592.9000000953674","1536 x 864","1536 x 864","true","1","0","","","","",""
"null","<p style=""font-size: 80px;"">+ 10 points</p>","null","html-keyboard-response","44","344857","0.0-11.0-2.43","62d138e361857aef127c9e8b","bo6utk","DD","28","M","{""name"":""Chrome"",""chrome"":true,""version"":""106.0"",""blink"":true,""windows"":true,""osname"":""Windows"",""osversion"":""10"",""a"":true}","9:17:8","1","4","Test_2","70","f","1","600.3999999761581","1536 x 864","1536 x 864","true","1","10","","","","",""
"null","<p style=""font-size: 80px;"">+ 10 points</p>","null","html-keyboard-response","45","347406","0.0-11.0-2.44","62d138e361857aef127c9e8b","bo6utk","DD","28","M","{""name"":""Chrome"",""chrome"":true,""version"":""106.0"",""blink"":true,""windows"":true,""osname"":""Windows"",""osversion"":""10"",""a"":true}","9:17:8","1","4","Test_3","74","j","1","525.2000000476837","1536 x 864","1536 x 864","true","1","10","","","","",""
"null","<p style=""font-size: 80px;"">+ 10 points</p>","null","html-keyboard-response","46","350102","0.0-11.0-2.45","62d138e361857aef127c9e8b","bo6utk","DD","28","M","{""name"":""Chrome"",""chrome"":true,""version"":""106.0"",""blink"":true,""windows"":true,""osname"":""Windows"",""osversion"":""10"",""a"":true}","9:17:8","1","4","Test_4","70","f","1","665.6999999284744","1536 x 864","1536 x 864","true","1","10","","","","",""
"null","<p style=""font-size: 80px;"">+ 0 points</p>","null","html-keyboard-response","47","352769","0.0-11.0-2.46","62d138e361857aef127c9e8b","bo6utk","DD","28","M","{""name"":""Chrome"",""chrome"":true,""version"":""106.0"",""blink"":true,""windows"":true,""osname"":""Windows"",""osversion"":""10"",""a"":true}","9:17:8","1","4","Test_1","70","j","0","638.7000000476837","1536 x 864","1536 x 864","true","1","0","","","","",""
"null","<p style=""font-size: 80px;"">+ 0 points</p>","null","html-keyboard-response","48","355500","0.0-11.0-2.47","62d138e361857aef127c9e8b","bo6utk","DD","28","M","{""name"":""Chrome"",""chrome"":true,""version"":""106.0"",""blink"":true,""windows"":true,""osname"":""Windows"",""osversion"":""10"",""a"":true}","9:17:8","1","4","Test_1","70","j","0","709.1000000238419","1536 x 864","1536 x 864","true","1","0","","","","",""
"null","<p style=""font-size: 80px;"">+ 0 points</p>","null","html-keyboard-response","49","358314","0.0-11.0-2.48","62d138e361857aef127c9e8b","bo6utk","DD","28","M","{""name"":""Chrome"",""chrome"":true,""version"":""106.0"",""blink"":true,""windows"":true,""osname"":""Windows"",""osversion"":""10"",""a"":true}","9:17:8","1","4","Test_1","70","j","0","785.3000000715256","1536 x 864","1536 x 864","true","1","0","","","","",""
"null","<p style=""font-size: 80px;"">+ 0 points</p>","null","html-keyboard-response","50","361329","0.0-11.0-2.49","62d138e361857aef127c9e8b","bo6utk","DD","28","M","{""name"":""Chrome"",""chrome"":true,""version"":""106.0"",""blink"":true,""windows"":true,""osname"":""Windows"",""osversion"":""10"",""a"":true}","9:17:8","1","4","Test_4","74","f","0","987.8999999761581","1536 x 864","1536 x 864","true","1","0","","","","",""
"null","<p style=""font-size: 80px;"">+ 0 points</p>","null","html-keyboard-response","51","364102","0.0-11.0-2.50","62d138e361857aef127c9e8b","bo6utk","DD","28","M","{""name"":""Chrome"",""chrome"":true,""version"":""106.0"",""blink"":true,""windows"":true,""osname"":""Windows"",""osversion"":""10"",""a"":true}","9:17:8","1","4","Test_3","70","j","0","762.2999999523163","1536 x 864","1536 x 864","true","1","0","","","","",""
"null","<p style=""font-size: 80px;"">+ 10 points</p>","null","html-keyboard-response","52","366853","0.0-11.0-2.51","62d138e361857aef127c9e8b","bo6utk","DD","28","M","{""name"":""Chrome"",""chrome"":true,""version"":""106.0"",""blink"":true,""windows"":true,""osname"":""Windows"",""osversion"":""10"",""a"":true}","9:17:8","1","4","Test_1","74","j","1","727.3999999761581","1536 x 864","1536 x 864","true","1","10","","","","",""
"null","<p style=""font-size: 80px;"">+ 10 points</p>","null","html-keyboard-response","53","369500","0.0-11.0-2.52","62d138e361857aef127c9e8b","bo6utk","DD","28","M","{""name"":""Chrome"",""chrome"":true,""version"":""106.0"",""blink"":true,""windows"":true,""osname"":""Windows"",""osversion"":""10"",""a"":true}","9:17:8","1","4","Test_2","70","f","1","617.8999999761581","1536 x 864","1536 x 864","true","1","10","","","","",""
"null","<p style=""font-size: 80px;"">+ 0 points</p>","null","html-keyboard-response","54","372169","0.0-11.0-2.53","62d138e361857aef127c9e8b","bo6utk","DD","28","M","{""name"":""Chrome"",""chrome"":true,""version"":""106.0"",""blink"":true,""windows"":true,""osname"":""Windows"",""osversion"":""10"",""a"":true}","9:17:8","1","4","Test_2","74","f","0","639.1999999284744","1536 x 864","1536 x 864","true","1","0","","","","",""
"null","<p style=""font-size: 80px;"">+ 10 points</p>","null","html-keyboard-response","55","374711","0.0-11.0-2.54","62d138e361857aef127c9e8b","bo6utk","DD","28","M","{""name"":""Chrome"",""chrome"":true,""version"":""106.0"",""blink"":true,""windows"":true,""osname"":""Windows"",""osversion"":""10"",""a"":true}","9:17:8","1","4","Test_2","70","f","1","518.1000000238419","1536 x 864","1536 x 864","true","1","10","","","","",""
"null","<p style=""font-size: 80px;"">+ 10 points</p>","null","html-keyboard-response","56","378140","0.0-11.0-2.55","62d138e361857aef127c9e8b","bo6utk","DD","28","M","{""name"":""Chrome"",""chrome"":true,""version"":""106.0"",""blink"":true,""windows"":true,""osname"":""Windows"",""osversion"":""10"",""a"":true}","9:17:8","1","4","Test_4","70","f","1","1398.3999999761581","1536 x 864","1536 x 864","true","1","10","","","","",""
"null","<p style=""font-size: 80px;"">+ 10 points</p>","null","html-keyboard-response","57","380801","0.0-11.0-2.56","62d138e361857aef127c9e8b","bo6utk","DD","28","M","{""name"":""Chrome"",""chrome"":true,""version"":""106.0"",""blink"":true,""windows"":true,""osname"":""Windows"",""osversion"":""10"",""a"":true}","9:17:8","1","4","Test_4","70","f","1","634.1000000238419","1536 x 864","1536 x 864","true","1","10","","","","",""
"null","<p style=""font-size: 80px;"">+ 10 points</p>","null","html-keyboard-response","58","383653","0.0-11.0-2.57","62d138e361857aef127c9e8b","bo6utk","DD","28","M","{""name"":""Chrome"",""chrome"":true,""version"":""106.0"",""blink"":true,""windows"":true,""osname"":""Windows"",""osversion"":""10"",""a"":true}","9:17:8","1","4","Test_2","70","f","1","832.1000000238419","1536 x 864","1536 x 864","true","1","10","","","","",""
"null","<p style=""font-size: 80px;"">+ 10 points</p>","null","html-keyboard-response","59","386268","0.0-11.0-2.58","62d138e361857aef127c9e8b","bo6utk","DD","28","M","{""name"":""Chrome"",""chrome"":true,""version"":""106.0"",""blink"":true,""windows"":true,""osname"":""Windows"",""osversion"":""10"",""a"":true}","9:17:8","1","4","Test_3","74","j","1","605","1536 x 864","1536 x 864","true","1","10","","","","",""
"null","<p style=""font-size: 80px;"">+ 10 points</p>","null","html-keyboard-response","60","388931","0.0-11.0-2.59","62d138e361857aef127c9e8b","bo6utk","DD","28","M","{""name"":""Chrome"",""chrome"":true,""version"":""106.0"",""blink"":true,""windows"":true,""osname"":""Windows"",""osversion"":""10"",""a"":true}","9:17:8","1","4","Test_4","70","f","1","633.8999999761581","1536 x 864","1536 x 864","true","1","10","","","","",""
"null","<p style=""font-size: 80px;"">+ 10 points</p>","null","html-keyboard-response","61","391823","0.0-11.0-2.60","62d138e361857aef127c9e8b","bo6utk","DD","28","M","{""name"":""Chrome"",""chrome"":true,""version"":""106.0"",""blink"":true,""windows"":true,""osname"":""Windows"",""osversion"":""10"",""a"":true}","9:17:8","1","4","Test_3","74","j","1","862.1000000238419","1536 x 864","1536 x 864","true","1","10","","","","",""
"null","<p style=""font-size: 80px;"">+ 0 points</p>","null","html-keyboard-response","62","394353","0.0-11.0-2.61","62d138e361857aef127c9e8b","bo6utk","DD","28","M","{""name"":""Chrome"",""chrome"":true,""version"":""106.0"",""blink"":true,""windows"":true,""osname"":""Windows"",""osversion"":""10"",""a"":true}","9:17:8","1","3","Test_3","74","f","0","510.10000002384186","1536 x 864","1536 x 864","true","1","0","","","","",""
"null","<p style=""font-size: 80px;"">+ 10 points</p>","null","html-keyboard-response","63","397204","0.0-11.0-2.62","62d138e361857aef127c9e8b","bo6utk","DD","28","M","{""name"":""Chrome"",""chrome"":true,""version"":""106.0"",""blink"":true,""windows"":true,""osname"":""Windows"",""osversion"":""10"",""a"":true}","9:17:8","1","3","Test_1","70","f","1","832","1536 x 864","1536 x 864","true","1","10","","","","",""
"null","<p style=""font-size: 80px;"">+ 10 points</p>","null","html-keyboard-response","64","399903","0.0-11.0-2.63","62d138e361857aef127c9e8b","bo6utk","DD","28","M","{""name"":""Chrome"",""chrome"":true,""version"":""106.0"",""blink"":true,""windows"":true,""osname"":""Windows"",""osversion"":""10"",""a"":true}","9:17:8","1","3","Test_1","70","f","1","685.5999999046326","1536 x 864","1536 x 864","true","1","10","","","","",""
"null","<p style=""font-size: 80px;"">+ 10 points</p>","null","html-keyboard-response","65","403478","0.0-11.0-2.64","62d138e361857aef127c9e8b","bo6utk","DD","28","M","{""name"":""Chrome"",""chrome"":true,""version"":""106.0"",""blink"":true,""windows"":true,""osname"":""Windows"",""osversion"":""10"",""a"":true}","9:17:8","1","3","Test_2","74","j","1","1546.8999999761581","1536 x 864","1536 x 864","true","1","10","","","","",""
"null","<p style=""font-size: 80px;"">+ 10 points</p>","null","html-keyboard-response","66","406077","0.0-11.0-2.65","62d138e361857aef127c9e8b","bo6utk","DD","28","M","{""name"":""Chrome"",""chrome"":true,""version"":""106.0"",""blink"":true,""windows"":true,""osname"":""Windows"",""osversion"":""10"",""a"":true}","9:17:8","1","3","Test_2","74","j","1","576.1000000238419","1536 x 864","1536 x 864","true","1","10","","","","",""
"null","<p style=""font-size: 80px;"">+ 10 points</p>","null","html-keyboard-response","67","408676","0.0-11.0-2.66","62d138e361857aef127c9e8b","bo6utk","DD","28","M","{""name"":""Chrome"",""chrome"":true,""version"":""106.0"",""blink"":true,""windows"":true,""osname"":""Windows"",""osversion"":""10"",""a"":true}","9:17:8","1","3","Test_3","70","f","1","579.1000000238419","1536 x 864","1536 x 864","true","1","10","","","","",""
"null","<p style=""font-size: 80px;"">+ 10 points</p>","null","html-keyboard-response","68","412653","0.0-11.0-2.67","62d138e361857aef127c9e8b","bo6utk","DD","28","M","{""name"":""Chrome"",""chrome"":true,""version"":""106.0"",""blink"":true,""windows"":true,""osname"":""Windows"",""osversion"":""10"",""a"":true}","9:17:8","1","3","Test_1","70","f","1","1951.7999999523163","1536 x 864","1536 x 864","true","1","10","","","","",""
"null","<p style=""font-size: 80px;"">+ 10 points</p>","null","html-keyboard-response","69","415801","0.0-11.0-2.68","62d138e361857aef127c9e8b","bo6utk","DD","28","M","{""name"":""Chrome"",""chrome"":true,""version"":""106.0"",""blink"":true,""windows"":true,""osname"":""Windows"",""osversion"":""10"",""a"":true}","9:17:8","1","3","Test_1","70","f","1","1121.3999999761581","1536 x 864","1536 x 864","true","1","10","","","","",""
"null","<p style=""font-size: 80px;"">+ 10 points</p>","null","html-keyboard-response","70","418499","0.0-11.0-2.69","62d138e361857aef127c9e8b","bo6utk","DD","28","M","{""name"":""Chrome"",""chrome"":true,""version"":""106.0"",""blink"":true,""windows"":true,""osname"":""Windows"",""osversion"":""10"",""a"":true}","9:17:8","1","3","Test_4","74","j","1","680.6000000238419","1536 x 864","1536 x 864","true","1","10","","","","",""
"null","<p style=""font-size: 80px; line-height: 1.4em;"">Too late</br> Speed up!</p>","null","html-keyboard-response","71","425532","0.0-11.0-2.70","62d138e361857aef127c9e8b","bo6utk","DD","28","M","{""name"":""Chrome"",""chrome"":true,""version"":""106.0"",""blink"":true,""windows"":true,""osname"":""Windows"",""osversion"":""10"",""a"":true}","9:17:8","1","3","Test_4","null","j","0","null","1536 x 864","1536 x 864","true","1","0","","","","",""
"null","<p style=""font-size: 80px;"">+ 10 points</p>","null","html-keyboard-response","72","428168","0.0-11.0-2.71","62d138e361857aef127c9e8b","bo6utk","DD","28","M","{""name"":""Chrome"",""chrome"":true,""version"":""106.0"",""blink"":true,""windows"":true,""osname"":""Windows"",""osversion"":""10"",""a"":true}","9:17:8","1","3","Test_1","70","f","1","608.3999999761581","1536 x 864","1536 x 864","true","1","10","","","","",""
"null","<p style=""font-size: 80px;"">+ 0 points</p>","null","html-keyboard-response","73","430762","0.0-11.0-2.72","62d138e361857aef127c9e8b","bo6utk","DD","28","M","{""name"":""Chrome"",""chrome"":true,""version"":""106.0"",""blink"":true,""windows"":true,""osname"":""Windows"",""osversion"":""10"",""a"":true}","9:17:8","1","3","Test_3","74","f","0","581.1000000238419","1536 x 864","1536 x 864","true","1","0","","","","",""
"null","<p style=""font-size: 80px;"">+ 10 points</p>","null","html-keyboard-response","74","433513","0.0-11.0-2.73","62d138e361857aef127c9e8b","bo6utk","DD","28","M","{""name"":""Chrome"",""chrome"":true,""version"":""106.0"",""blink"":true,""windows"":true,""osname"":""Windows"",""osversion"":""10"",""a"":true}","9:17:8","1","3","Test_3","70","f","1","723.1000000238419","1536 x 864","1536 x 864","true","1","10","","","","",""
"null","<p style=""font-size: 80px;"">+ 10 points</p>","null","html-keyboard-response","75","436092","0.0-11.0-2.74","62d138e361857aef127c9e8b","bo6utk","DD","28","M","{""name"":""Chrome"",""chrome"":true,""version"":""106.0"",""blink"":true,""windows"":true,""osname"":""Windows"",""osversion"":""10"",""a"":true}","9:17:8","1","3","Test_3","70","f","1","550.7999999523163","1536 x 864","1536 x 864","true","1","10","","","","",""
"null","<p style=""font-size: 80px;"">+ 10 points</p>","null","html-keyboard-response","76","438691","0.0-11.0-2.75","62d138e361857aef127c9e8b","bo6utk","DD","28","M","{""name"":""Chrome"",""chrome"":true,""version"":""106.0"",""blink"":true,""windows"":true,""osname"":""Windows"",""osversion"":""10"",""a"":true}","9:17:8","1","3","Test_4","74","j","1","591.5999999046326","1536 x 864","1536 x 864","true","1","10","","","","",""
"null","<p style=""font-size: 80px;"">+ 0 points</p>","null","html-keyboard-response","77","441392","0.0-11.0-2.76","62d138e361857aef127c9e8b","bo6utk","DD","28","M","{""name"":""Chrome"",""chrome"":true,""version"":""106.0"",""blink"":true,""windows"":true,""osname"":""Windows"",""osversion"":""10"",""a"":true}","9:17:8","1","3","Test_2","70","j","0","672","1536 x 864","1536 x 864","true","1","0","","","","",""
"null","<p style=""font-size: 80px;"">+ 0 points</p>","null","html-keyboard-response","78","444100","0.0-11.0-2.77","62d138e361857aef127c9e8b","bo6utk","DD","28","M","{""name"":""Chrome"",""chrome"":true,""version"":""106.0"",""blink"":true,""windows"":true,""osname"":""Windows"",""osversion"":""10"",""a"":true}","9:17:8","1","3","Test_4","70","j","0","686","1536 x 864","1536 x 864","true","1","0","","","","",""
"null","<p style=""font-size: 80px;"">+ 0 points</p>","null","html-keyboard-response","79","446919","0.0-11.0-2.78","62d138e361857aef127c9e8b","bo6utk","DD","28","M","{""name"":""Chrome"",""chrome"":true,""version"":""106.0"",""blink"":true,""windows"":true,""osname"":""Windows"",""osversion"":""10"",""a"":true}","9:17:8","1","3","Test_3","74","f","0","795.1000000238419","1536 x 864","1536 x 864","true","1","0","","","","",""
"null","<p style=""font-size: 80px;"">+ 10 points</p>","null","html-keyboard-response","80","449615","0.0-11.0-2.79","62d138e361857aef127c9e8b","bo6utk","DD","28","M","{""name"":""Chrome"",""chrome"":true,""version"":""106.0"",""blink"":true,""windows"":true,""osname"":""Windows"",""osversion"":""10"",""a"":true}","9:17:8","1","3","Test_2","74","j","1","668.5","1536 x 864","1536 x 864","true","1","10","","","","",""
"null","<p style=""font-size: 80px;"">+ 10 points</p>","null","html-keyboard-response","81","452077","0.0-11.0-2.80","62d138e361857aef127c9e8b","bo6utk","DD","28","M","{""name"":""Chrome"",""chrome"":true,""version"":""106.0"",""blink"":true,""windows"":true,""osname"":""Windows"",""osversion"":""10"",""a"":true}","9:17:8","1","3","Test_2","74","j","1","435.39999997615814","1536 x 864","1536 x 864","true","1","10","","","","",""
"null","<p style=""font-size: 80px;"">+ 10 points</p>","null","html-keyboard-response","82","454695","0.0-11.0-2.81","62d138e361857aef127c9e8b","bo6utk","DD","28","M","{""name"":""Chrome"",""chrome"":true,""version"":""106.0"",""blink"":true,""windows"":true,""osname"":""Windows"",""osversion"":""10"",""a"":true}","9:17:8","1","3","Test_1","70","f","1","587.7999999523163","1536 x 864","1536 x 864","true","1","10","","","","",""
"null","<p style=""font-size: 80px;"">+ 0 points</p>","null","html-keyboard-response","83","457522","0.0-11.0-2.82","62d138e361857aef127c9e8b","bo6utk","DD","28","M","{""name"":""Chrome"",""chrome"":true,""version"":""106.0"",""blink"":true,""windows"":true,""osname"":""Windows"",""osversion"":""10"",""a"":true}","9:17:8","1","3","Test_4","70","j","0","801.1999999284744","1536 x 864","1536 x 864","true","1","0","","","","",""
"null","<p style=""font-size: 80px;"">+ 10 points</p>","null","html-keyboard-response","84","460325","0.0-11.0-2.83","62d138e361857aef127c9e8b","bo6utk","DD","28","M","{""name"":""Chrome"",""chrome"":true,""version"":""106.0"",""blink"":true,""windows"":true,""osname"":""Windows"",""osversion"":""10"",""a"":true}","9:17:8","1","4","Test_2","70","f","1","797.9000000953674","1536 x 864","1536 x 864","true","1","10","","","","",""
"null","<p style=""font-size: 80px;"">+ 10 points</p>","null","html-keyboard-response","85","462852","0.0-11.0-2.84","62d138e361857aef127c9e8b","bo6utk","DD","28","M","{""name"":""Chrome"",""chrome"":true,""version"":""106.0"",""blink"":true,""windows"":true,""osname"":""Windows"",""osversion"":""10"",""a"":true}","9:17:8","1","4","Test_2","70","f","1","499.89999997615814","1536 x 864","1536 x 864","true","1","10","","","","",""
"null","<p style=""font-size: 80px;"">+ 10 points</p>","null","html-keyboard-response","86","465568","0.0-11.0-2.85","62d138e361857aef127c9e8b","bo6utk","DD","28","M","{""name"":""Chrome"",""chrome"":true,""version"":""106.0"",""blink"":true,""windows"":true,""osname"":""Windows"",""osversion"":""10"",""a"":true}","9:17:8","1","4","Test_1","74","j","1","684.5999999046326","1536 x 864","1536 x 864","true","1","10","","","","",""
"null","<p style=""font-size: 80px;"">+ 10 points</p>","null","html-keyboard-response","87","468314","0.0-11.0-2.86","62d138e361857aef127c9e8b","bo6utk","DD","28","M","{""name"":""Chrome"",""chrome"":true,""version"":""106.0"",""blink"":true,""windows"":true,""osname"":""Windows"",""osversion"":""10"",""a"":true}","9:17:8","1","4","Test_1","74","j","1","729","1536 x 864","1536 x 864","true","1","10","","","","",""
"null","<p style=""font-size: 80px;"">+ 10 points</p>","null","html-keyboard-response","88","471131","0.0-11.0-2.87","62d138e361857aef127c9e8b","bo6utk","DD","28","M","{""name"":""Chrome"",""chrome"":true,""version"":""106.0"",""blink"":true,""windows"":true,""osname"":""Windows"",""osversion"":""10"",""a"":true}","9:17:8","1","4","Test_4","70","f","1","797.1999999284744","1536 x 864","1536 x 864","true","1","10","","","","",""
"null","<p style=""font-size: 80px;"">+ 10 points</p>","null","html-keyboard-response","89","473996","0.0-11.0-2.88","62d138e361857aef127c9e8b","bo6utk","DD","28","M","{""name"":""Chrome"",""chrome"":true,""version"":""106.0"",""blink"":true,""windows"":true,""osname"":""Windows"",""osversion"":""10"",""a"":true}","9:17:8","1","4","Test_3","74","j","1","842.2999999523163","1536 x 864","1536 x 864","true","1","10","","","","",""
"null","<p style=""font-size: 80px;"">+ 10 points</p>","null","html-keyboard-response","90","476675","0.0-11.0-2.89","62d138e361857aef127c9e8b","bo6utk","DD","28","M","{""name"":""Chrome"",""chrome"":true,""version"":""106.0"",""blink"":true,""windows"":true,""osname"":""Windows"",""osversion"":""10"",""a"":true}","9:17:8","1","4","Test_2","70","f","1","661.3999999761581","1536 x 864","1536 x 864","true","1","10","","","","",""
"null","<p style=""font-size: 80px;"">+ 10 points</p>","null","html-keyboard-response","91","479774","0.0-11.0-2.90","62d138e361857aef127c9e8b","bo6utk","DD","28","M","{""name"":""Chrome"",""chrome"":true,""version"":""106.0"",""blink"":true,""windows"":true,""osname"":""Windows"",""osversion"":""10"",""a"":true}","9:17:8","1","4","Test_4","70","f","1","1078.2000000476837","1536 x 864","1536 x 864","true","1","10","","","","",""
"null","<p style=""font-size: 80px;"">+ 0 points</p>","null","html-keyboard-response","92","482438","0.0-11.0-2.91","62d138e361857aef127c9e8b","bo6utk","DD","28","M","{""name"":""Chrome"",""chrome"":true,""version"":""106.0"",""blink"":true,""windows"":true,""osname"":""Windows"",""osversion"":""10"",""a"":true}","9:17:8","1","4","Test_4","74","f","0","644.0999999046326","1536 x 864","1536 x 864","true","1","0","","","","",""
"null","<p style=""font-size: 80px;"">+ 10 points</p>","null","html-keyboard-response","93","485632","0.0-11.0-2.92","62d138e361857aef127c9e8b","bo6utk","DD","28","M","{""name"":""Chrome"",""chrome"":true,""version"":""106.0"",""blink"":true,""windows"":true,""osname"":""Windows"",""osversion"":""10"",""a"":true}","9:17:8","1","4","Test_4","70","f","1","1166.6000000238419","1536 x 864","1536 x 864","true","1","10","","","","",""
"null","<p style=""font-size: 80px;"">+ 0 points</p>","null","html-keyboard-response","94","488363","0.0-11.0-2.93","62d138e361857aef127c9e8b","bo6utk","DD","28","M","{""name"":""Chrome"",""chrome"":true,""version"":""106.0"",""blink"":true,""windows"":true,""osname"":""Windows"",""osversion"":""10"",""a"":true}","9:17:8","1","4","Test_1","70","j","0","705","1536 x 864","1536 x 864","true","1","0","","","","",""
"null","<p style=""font-size: 80px;"">+ 10 points</p>","null","html-keyboard-response","95","491262","0.0-11.0-2.94","62d138e361857aef127c9e8b","bo6utk","DD","28","M","{""name"":""Chrome"",""chrome"":true,""version"":""106.0"",""blink"":true,""windows"":true,""osname"":""Windows"",""osversion"":""10"",""a"":true}","9:17:8","1","4","Test_2","70","f","1","869.6000000238419","1536 x 864","1536 x 864","true","1","10","","","","",""
"null","<p style=""font-size: 80px;"">+ 10 points</p>","null","html-keyboard-response","96","494094","0.0-11.0-2.95","62d138e361857aef127c9e8b","bo6utk","DD","28","M","{""name"":""Chrome"",""chrome"":true,""version"":""106.0"",""blink"":true,""windows"":true,""osname"":""Windows"",""osversion"":""10"",""a"":true}","9:17:8","1","4","Test_3","74","j","1","817.1999999284744","1536 x 864","1536 x 864","true","1","10","","","","",""
"null","<p style=""font-size: 80px;"">+ 10 points</p>","null","html-keyboard-response","97","496924","0.0-11.0-2.96","62d138e361857aef127c9e8b","bo6utk","DD","28","M","{""name"":""Chrome"",""chrome"":true,""version"":""106.0"",""blink"":true,""windows"":true,""osname"":""Windows"",""osversion"":""10"",""a"":true}","9:17:8","1","4","Test_3","74","j","1","796.3999999761581","1536 x 864","1536 x 864","true","1","10","","","","",""
"null","<p style=""font-size: 80px;"">+ 10 points</p>","null","html-keyboard-response","98","499706","0.0-11.0-2.97","62d138e361857aef127c9e8b","bo6utk","DD","28","M","{""name"":""Chrome"",""chrome"":true,""version"":""106.0"",""blink"":true,""windows"":true,""osname"":""Windows"",""osversion"":""10"",""a"":true}","9:17:8","1","4","Test_2","70","f","1","753.7999999523163","1536 x 864","1536 x 864","true","1","10","","","","",""
"null","<p style=""font-size: 80px;"">+ 10 points</p>","null","html-keyboard-response","99","502470","0.0-11.0-2.98","62d138e361857aef127c9e8b","bo6utk","DD","28","M","{""name"":""Chrome"",""chrome"":true,""version"":""106.0"",""blink"":true,""windows"":true,""osname"":""Windows"",""osversion"":""10"",""a"":true}","9:17:8","1","4","Test_1","74","j","1","742","1536 x 864","1536 x 864","true","1","10","","","","",""
"null","<p style=""font-size: 80px;"">+ 0 points</p>","null","html-keyboard-response","100","505467","0.0-11.0-2.99","62d138e361857aef127c9e8b","bo6utk","DD","28","M","{""name"":""Chrome"",""chrome"":true,""version"":""106.0"",""blink"":true,""windows"":true,""osname"":""Windows"",""osversion"":""10"",""a"":true}","9:17:8","1","4","Test_3","70","j","0","974.0999999046326","1536 x 864","1536 x 864","true","1","0","","","","",""
"null","<p style=""font-size: 80px;"">+ 10 points</p>","null","html-keyboard-response","101","508209","0.0-11.0-2.100","62d138e361857aef127c9e8b","bo6utk","DD","28","M","{""name"":""Chrome"",""chrome"":true,""version"":""106.0"",""blink"":true,""windows"":true,""osname"":""Windows"",""osversion"":""10"",""a"":true}","9:17:8","1","4","Test_4","70","f","1","714.2999999523163","1536 x 864","1536 x 864","true","1","10","","","","",""
"null","<p style=""font-size: 80px;"">+ 0 points</p>","null","html-keyboard-response","102","511109","0.0-11.0-2.101","62d138e361857aef127c9e8b","bo6utk","DD","28","M","{""name"":""Chrome"",""chrome"":true,""version"":""106.0"",""blink"":true,""windows"":true,""osname"":""Windows"",""osversion"":""10"",""a"":true}","9:17:8","1","3","Test_3","74","f","0","888.0999999046326","1536 x 864","1536 x 864","true","1","0","","","","",""
"null","<p style=""font-size: 80px;"">+ 10 points</p>","null","html-keyboard-response","103","514141","0.0-11.0-2.102","62d138e361857aef127c9e8b","bo6utk","DD","28","M","{""name"":""Chrome"",""chrome"":true,""version"":""106.0"",""blink"":true,""windows"":true,""osname"":""Windows"",""osversion"":""10"",""a"":true}","9:17:8","1","3","Test_4","74","j","1","999.1000000238419","1536 x 864","1536 x 864","true","1","10","","","","",""
"null","<p style=""font-size: 80px;"">+ 0 points</p>","null","html-keyboard-response","104","517062","0.0-11.0-2.103","62d138e361857aef127c9e8b","bo6utk","DD","28","M","{""name"":""Chrome"",""chrome"":true,""version"":""106.0"",""blink"":true,""windows"":true,""osname"":""Windows"",""osversion"":""10"",""a"":true}","9:17:8","1","3","Test_2","70","j","0","886.7999999523163","1536 x 864","1536 x 864","true","1","0","","","","",""
"null","<p style=""font-size: 80px;"">+ 10 points</p>","null","html-keyboard-response","105","520121","0.0-11.0-2.104","62d138e361857aef127c9e8b","bo6utk","DD","28","M","{""name"":""Chrome"",""chrome"":true,""version"":""106.0"",""blink"":true,""windows"":true,""osname"":""Windows"",""osversion"":""10"",""a"":true}","9:17:8","1","3","Test_1","70","f","1","1046","1536 x 864","1536 x 864","true","1","10","","","","",""
"null","<p style=""font-size: 80px;"">+ 10 points</p>","null","html-keyboard-response","106","522742","0.0-11.0-2.105","62d138e361857aef127c9e8b","bo6utk","DD","28","M","{""name"":""Chrome"",""chrome"":true,""version"":""106.0"",""blink"":true,""windows"":true,""osname"":""Windows"",""osversion"":""10"",""a"":true}","9:17:8","1","3","Test_3","70","f","1","599.7999999523163","1536 x 864","1536 x 864","true","1","10","","","","",""
"null","<p style=""font-size: 80px;"">+ 10 points</p>","null","html-keyboard-response","107","525497","0.0-11.0-2.106","62d138e361857aef127c9e8b","bo6utk","DD","28","M","{""name"":""Chrome"",""chrome"":true,""version"":""106.0"",""blink"":true,""windows"":true,""osname"":""Windows"",""osversion"":""10"",""a"":true}","9:17:8","1","3","Test_4","74","j","1","730.7000000476837","1536 x 864","1536 x 864","true","1","10","","","","",""
"null","<p style=""font-size: 80px;"">+ 10 points</p>","null","html-keyboard-response","108","528014","0.0-11.0-2.107","62d138e361857aef127c9e8b","bo6utk","DD","28","M","{""name"":""Chrome"",""chrome"":true,""version"":""106.0"",""blink"":true,""windows"":true,""osname"":""Windows"",""osversion"":""10"",""a"":true}","9:17:8","1","3","Test_3","70","f","1","496.39999997615814","1536 x 864","1536 x 864","true","1","10","","","","",""
"null","<p style=""font-size: 80px;"">+ 10 points</p>","null","html-keyboard-response","109","531059","0.0-11.0-2.108","62d138e361857aef127c9e8b","bo6utk","DD","28","M","{""name"":""Chrome"",""chrome"":true,""version"":""106.0"",""blink"":true,""windows"":true,""osname"":""Windows"",""osversion"":""10"",""a"":true}","9:17:8","1","3","Test_3","70","f","1","1020.5999999046326","1536 x 864","1536 x 864","true","1","10","","","","",""
"null","<p style=""font-size: 80px;"">+ 0 points</p>","null","html-keyboard-response","110","570660","0.0-11.0-2.109","62d138e361857aef127c9e8b","bo6utk","DD","28","M","{""name"":""Chrome"",""chrome"":true,""version"":""106.0"",""blink"":true,""windows"":true,""osname"":""Windows"",""osversion"":""10"",""a"":true}","9:17:8","1","3","Test_2","70","j","0","1359.5","1536 x 864","1536 x 864","true","1","0","","","","",""
"null","<p style=""font-size: 80px;"">+ 10 points</p>","null","html-keyboard-response","111","573424","0.0-11.0-2.110","62d138e361857aef127c9e8b","bo6utk","DD","28","M","{""name"":""Chrome"",""chrome"":true,""version"":""106.0"",""blink"":true,""windows"":true,""osname"":""Windows"",""osversion"":""10"",""a"":true}","9:17:8","1","3","Test_4","74","j","1","748.4000000953674","1536 x 864","1536 x 864","true","1","10","","","","",""
"null","<p style=""font-size: 80px;"">+ 10 points</p>","null","html-keyboard-response","112","576072","0.0-11.0-2.111","62d138e361857aef127c9e8b","bo6utk","DD","28","M","{""name"":""Chrome"",""chrome"":true,""version"":""106.0"",""blink"":true,""windows"":true,""osname"":""Windows"",""osversion"":""10"",""a"":true}","9:17:8","1","3","Test_4","74","j","1","623.8999999761581","1536 x 864","1536 x 864","true","1","10","","","","",""
"null","<p style=""font-size: 80px;"">+ 10 points</p>","null","html-keyboard-response","113","578920","0.0-11.0-2.112","62d138e361857aef127c9e8b","bo6utk","DD","28","M","{""name"":""Chrome"",""chrome"":true,""version"":""106.0"",""blink"":true,""windows"":true,""osname"":""Windows"",""osversion"":""10"",""a"":true}","9:17:8","1","3","Test_1","70","f","1","838.7999999523163","1536 x 864","1536 x 864","true","1","10","","","","",""
"null","<p style=""font-size: 80px;"">+ 10 points</p>","null","html-keyboard-response","114","581663","0.0-11.0-2.113","62d138e361857aef127c9e8b","bo6utk","DD","28","M","{""name"":""Chrome"",""chrome"":true,""version"":""106.0"",""blink"":true,""windows"":true,""osname"":""Windows"",""osversion"":""10"",""a"":true}","9:17:8","1","3","Test_1","70","f","1","713.5","1536 x 864","1536 x 864","true","1","10","","","","",""
"null","<p style=""font-size: 80px;"">+ 0 points</p>","null","html-keyboard-response","115","584381","0.0-11.0-2.114","62d138e361857aef127c9e8b","bo6utk","DD","28","M","{""name"":""Chrome"",""chrome"":true,""version"":""106.0"",""blink"":true,""windows"":true,""osname"":""Windows"",""osversion"":""10"",""a"":true}","9:17:8","1","3","Test_3","74","f","0","695.7999999523163","1536 x 864","1536 x 864","true","1","0","","","","",""
"null","<p style=""font-size: 80px;"">+ 10 points</p>","null","html-keyboard-response","116","587141","0.0-11.0-2.115","62d138e361857aef127c9e8b","bo6utk","DD","28","M","{""name"":""Chrome"",""chrome"":true,""version"":""106.0"",""blink"":true,""windows"":true,""osname"":""Windows"",""osversion"":""10"",""a"":true}","9:17:8","1","3","Test_4","74","j","1","731.8999999761581","1536 x 864","1536 x 864","true","1","10","","","","",""
"null","<p style=""font-size: 80px;"">+ 10 points</p>","null","html-keyboard-response","117","589926","0.0-11.0-2.116","62d138e361857aef127c9e8b","bo6utk","DD","28","M","{""name"":""Chrome"",""chrome"":true,""version"":""106.0"",""blink"":true,""windows"":true,""osname"":""Windows"",""osversion"":""10"",""a"":true}","9:17:8","1","3","Test_1","70","f","1","773.7000000476837","1536 x 864","1536 x 864","true","1","10","","","","",""
"null","<p style=""font-size: 80px;"">+ 10 points</p>","null","html-keyboard-response","118","592615","0.0-11.0-2.117","62d138e361857aef127c9e8b","bo6utk","DD","28","M","{""name"":""Chrome"",""chrome"":true,""version"":""106.0"",""blink"":true,""windows"":true,""osname"":""Windows"",""osversion"":""10"",""a"":true}","9:17:8","1","3","Test_1","70","f","1","661.5999999046326","1536 x 864","1536 x 864","true","1","10","","","","",""
"null","<p style=""font-size: 80px;"">+ 10 points</p>","null","html-keyboard-response","119","595862","0.0-11.0-2.118","62d138e361857aef127c9e8b","bo6utk","DD","28","M","{""name"":""Chrome"",""chrome"":true,""version"":""106.0"",""blink"":true,""windows"":true,""osname"":""Windows"",""osversion"":""10"",""a"":true}","9:17:8","1","3","Test_2","74","j","1","1220.6999999284744","1536 x 864","1536 x 864","true","1","10","","","","",""
"null","<p style=""font-size: 80px;"">+ 10 points</p>","null","html-keyboard-response","120","598487","0.0-11.0-2.119","62d138e361857aef127c9e8b","bo6utk","DD","28","M","{""name"":""Chrome"",""chrome"":true,""version"":""106.0"",""blink"":true,""windows"":true,""osname"":""Windows"",""osversion"":""10"",""a"":true}","9:17:8","1","3","Test_3","70","f","1","612.3999999761581","1536 x 864","1536 x 864","true","1","10","","","","",""
"null","<p style=""font-size: 80px;"">+ 10 points</p>","null","html-keyboard-response","121","601600","0.0-11.0-2.120","62d138e361857aef127c9e8b","bo6utk","DD","28","M","{""name"":""Chrome"",""chrome"":true,""version"":""106.0"",""blink"":true,""windows"":true,""osname"":""Windows"",""osversion"":""10"",""a"":true}","9:17:8","1","3","Test_1","70","f","1","1084","1536 x 864","1536 x 864","true","1","10","","","","",""
"null","<p style=""font-size: 80px;"">+ 10 points</p>","null","html-keyboard-response","122","604429","0.0-11.0-2.121","62d138e361857aef127c9e8b","bo6utk","DD","28","M","{""name"":""Chrome"",""chrome"":true,""version"":""106.0"",""blink"":true,""windows"":true,""osname"":""Windows"",""osversion"":""10"",""a"":true}","9:17:8","1","3","Test_2","74","j","1","799.2999999523163","1536 x 864","1536 x 864","true","1","10","","","","",""
"null","<p style=""font-size: 80px;"">+ 0 points</p>","null","html-keyboard-response","123","607143","0.0-11.0-2.122","62d138e361857aef127c9e8b","bo6utk","DD","28","M","{""name"":""Chrome"",""chrome"":true,""version"":""106.0"",""blink"":true,""windows"":true,""osname"":""Windows"",""osversion"":""10"",""a"":true}","9:17:8","1","3","Test_2","70","j","0","686.3999999761581","1536 x 864","1536 x 864","true","1","0","","","","",""
"null","<p style=""font-size: 80px;"">+ 10 points</p>","null","html-keyboard-response","124","610194","0.0-11.0-2.123","62d138e361857aef127c9e8b","bo6utk","DD","28","M","{""name"":""Chrome"",""chrome"":true,""version"":""106.0"",""blink"":true,""windows"":true,""osname"":""Windows"",""osversion"":""10"",""a"":true}","9:17:8","1","3","Test_2","74","j","1","1030.7999999523163","1536 x 864","1536 x 864","true","1","10","","","","",""
"null","<p style=""font-size: 80px;"">+ 10 points</p>","null","html-keyboard-response","125","613055","0.0-11.0-2.124","62d138e361857aef127c9e8b","bo6utk","DD","28","M","{""name"":""Chrome"",""chrome"":true,""version"":""106.0"",""blink"":true,""windows"":true,""osname"":""Windows"",""osversion"":""10"",""a"":true}","9:17:8","1","3","Test_4","74","j","1","846.1000000238419","1536 x 864","1536 x 864","true","1","10","","","","",""
"null","<p style=""font-size: 80px;"">+ 0 points</p>","null","html-keyboard-response","126","616185","0.0-11.0-2.125","62d138e361857aef127c9e8b","bo6utk","DD","28","M","{""name"":""Chrome"",""chrome"":true,""version"":""106.0"",""blink"":true,""windows"":true,""osname"":""Windows"",""osversion"":""10"",""a"":true}","9:17:8","1","4","Test_2","74","f","0","1109.6000000238419","1536 x 864","1536 x 864","true","1","0","","","","",""
"null","<p style=""font-size: 80px;"">+ 0 points</p>","null","html-keyboard-response","127","619065","0.0-11.0-2.126","62d138e361857aef127c9e8b","bo6utk","DD","28","M","{""name"":""Chrome"",""chrome"":true,""version"":""106.0"",""blink"":true,""windows"":true,""osname"":""Windows"",""osversion"":""10"",""a"":true}","9:17:8","1","4","Test_3","70","j","0","857.3000000715256","1536 x 864","1536 x 864","true","1","0","","","","",""
"null","<p style=""font-size: 80px;"">+ 10 points</p>","null","html-keyboard-response","128","621712","0.0-11.0-2.127","62d138e361857aef127c9e8b","bo6utk","DD","28","M","{""name"":""Chrome"",""chrome"":true,""version"":""106.0"",""blink"":true,""windows"":true,""osname"":""Windows"",""osversion"":""10"",""a"":true}","9:17:8","1","4","Test_3","74","j","1","616.3999999761581","1536 x 864","1536 x 864","true","1","10","","","","",""
"null","<p style=""font-size: 80px;"">+ 10 points</p>","null","html-keyboard-response","129","624260","0.0-11.0-2.128","62d138e361857aef127c9e8b","bo6utk","DD","28","M","{""name"":""Chrome"",""chrome"":true,""version"":""106.0"",""blink"":true,""windows"":true,""osname"":""Windows"",""osversion"":""10"",""a"":true}","9:17:8","1","4","Test_2","70","f","1","517.7000000476837","1536 x 864","1536 x 864","true","1","10","","","","",""
"null","<p style=""font-size: 80px;"">+ 10 points</p>","null","html-keyboard-response","130","627110","0.0-11.0-2.129","62d138e361857aef127c9e8b","bo6utk","DD","28","M","{""name"":""Chrome"",""chrome"":true,""version"":""106.0"",""blink"":true,""windows"":true,""osname"":""Windows"",""osversion"":""10"",""a"":true}","9:17:8","1","4","Test_1","74","j","1","830.1999999284744","1536 x 864","1536 x 864","true","1","10","","","","",""
"null","<p style=""font-size: 80px;"">+ 10 points</p>","null","html-keyboard-response","131","629858","0.0-11.0-2.130","62d138e361857aef127c9e8b","bo6utk","DD","28","M","{""name"":""Chrome"",""chrome"":true,""version"":""106.0"",""blink"":true,""windows"":true,""osname"":""Windows"",""osversion"":""10"",""a"":true}","9:17:8","1","4","Test_4","70","f","1","729.5","1536 x 864","1536 x 864","true","1","10","","","","",""
"null","<p style=""font-size: 80px;"">+ 10 points</p>","null","html-keyboard-response","132","632632","0.0-11.0-2.131","62d138e361857aef127c9e8b","bo6utk","DD","28","M","{""name"":""Chrome"",""chrome"":true,""version"":""106.0"",""blink"":true,""windows"":true,""osname"":""Windows"",""osversion"":""10"",""a"":true}","9:17:8","1","4","Test_4","70","f","1","740.5","1536 x 864","1536 x 864","true","1","10","","","","",""
"null","<p style=""font-size: 80px;"">+ 10 points</p>","null","html-keyboard-response","133","635435","0.0-11.0-2.132","62d138e361857aef127c9e8b","bo6utk","DD","28","M","{""name"":""Chrome"",""chrome"":true,""version"":""106.0"",""blink"":true,""windows"":true,""osname"":""Windows"",""osversion"":""10"",""a"":true}","9:17:8","1","4","Test_1","74","j","1","780.3000000715256","1536 x 864","1536 x 864","true","1","10","","","","",""
"null","<p style=""font-size: 80px;"">+ 10 points</p>","null","html-keyboard-response","134","638102","0.0-11.0-2.133","62d138e361857aef127c9e8b","bo6utk","DD","28","M","{""name"":""Chrome"",""chrome"":true,""version"":""106.0"",""blink"":true,""windows"":true,""osname"":""Windows"",""osversion"":""10"",""a"":true}","9:17:8","1","4","Test_2","70","f","1","637.3999999761581","1536 x 864","1536 x 864","true","1","10","","","","",""
"null","<p style=""font-size: 80px;"">+ 0 points</p>","null","html-keyboard-response","135","640880","0.0-11.0-2.134","62d138e361857aef127c9e8b","bo6utk","DD","28","M","{""name"":""Chrome"",""chrome"":true,""version"":""106.0"",""blink"":true,""windows"":true,""osname"":""Windows"",""osversion"":""10"",""a"":true}","9:17:8","1","4","Test_3","70","j","0","755.8000000715256","1536 x 864","1536 x 864","true","1","0","","","","",""
"null","<p style=""font-size: 80px;"">+ 10 points</p>","null","html-keyboard-response","136","643579","0.0-11.0-2.135","62d138e361857aef127c9e8b","bo6utk","DD","28","M","{""name"":""Chrome"",""chrome"":true,""version"":""106.0"",""blink"":true,""windows"":true,""osname"":""Windows"",""osversion"":""10"",""a"":true}","9:17:8","1","4","Test_4","70","f","1","677.5","1536 x 864","1536 x 864","true","1","10","","","","",""
"null","<p style=""font-size: 80px;"">+ 10 points</p>","null","html-keyboard-response","137","646342","0.0-11.0-2.136","62d138e361857aef127c9e8b","bo6utk","DD","28","M","{""name"":""Chrome"",""chrome"":true,""version"":""106.0"",""blink"":true,""windows"":true,""osname"":""Windows"",""osversion"":""10"",""a"":true}","9:17:8","1","4","Test_1","74","j","1","743.1999999284744","1536 x 864","1536 x 864","true","1","10","","","","",""
"null","<p style=""font-size: 80px;"">+ 0 points</p>","null","html-keyboard-response","138","648940","0.0-11.0-2.137","62d138e361857aef127c9e8b","bo6utk","DD","28","M","{""name"":""Chrome"",""chrome"":true,""version"":""106.0"",""blink"":true,""windows"":true,""osname"":""Windows"",""osversion"":""10"",""a"":true}","9:17:8","1","4","Test_1","70","j","0","586.5","1536 x 864","1536 x 864","true","1","0","","","","",""
"null","<p style=""font-size: 80px;"">+ 0 points</p>","null","html-keyboard-response","139","651842","0.0-11.0-2.138","62d138e361857aef127c9e8b","bo6utk","DD","28","M","{""name"":""Chrome"",""chrome"":true,""version"":""106.0"",""blink"":true,""windows"":true,""osname"":""Windows"",""osversion"":""10"",""a"":true}","9:17:8","1","4","Test_3","70","j","0","873","1536 x 864","1536 x 864","true","1","0","","","","",""
"null","<p style=""font-size: 80px;"">+ 0 points</p>","null","html-keyboard-response","140","654808","0.0-11.0-2.139","62d138e361857aef127c9e8b","bo6utk","DD","28","M","{""name"":""Chrome"",""chrome"":true,""version"":""106.0"",""blink"":true,""windows"":true,""osname"":""Windows"",""osversion"":""10"",""a"":true}","9:17:8","1","4","Test_2","74","f","0","947.9000000953674","1536 x 864","1536 x 864","true","1","0","","","","",""
"null","<p style=""font-size: 80px;"">+ 0 points</p>","null","html-keyboard-response","141","657804","0.0-11.0-2.140","62d138e361857aef127c9e8b","bo6utk","DD","28","M","{""name"":""Chrome"",""chrome"":true,""version"":""106.0"",""blink"":true,""windows"":true,""osname"":""Windows"",""osversion"":""10"",""a"":true}","9:17:8","1","4","Test_4","74","f","0","975.7000000476837","1536 x 864","1536 x 864","true","1","0","","","","",""
"null","<p style=""font-size: 80px;"">+ 10 points</p>","null","html-keyboard-response","142","660822","0.0-11.0-2.141","62d138e361857aef127c9e8b","bo6utk","DD","28","M","{""name"":""Chrome"",""chrome"":true,""version"":""106.0"",""blink"":true,""windows"":true,""osname"":""Windows"",""osversion"":""10"",""a"":true}","9:17:8","1","3","Test_3","70","f","1","999.4000000953674","1536 x 864","1536 x 864","true","1","10","","","","",""
"null","<p style=""font-size: 80px;"">+ 10 points</p>","null","html-keyboard-response","143","663679","0.0-11.0-2.142","62d138e361857aef127c9e8b","bo6utk","DD","28","M","{""name"":""Chrome"",""chrome"":true,""version"":""106.0"",""blink"":true,""windows"":true,""osname"":""Windows"",""osversion"":""10"",""a"":true}","9:17:8","1","3","Test_3","70","f","1","834.5","1536 x 864","1536 x 864","true","1","10","","","","",""
"null","<p style=""font-size: 80px;"">+ 10 points</p>","null","html-keyboard-response","144","666342","0.0-11.0-2.143","62d138e361857aef127c9e8b","bo6utk","DD","28","M","{""name"":""Chrome"",""chrome"":true,""version"":""106.0"",""blink"":true,""windows"":true,""osname"":""Windows"",""osversion"":""10"",""a"":true}","9:17:8","1","3","Test_4","74","j","1","641","1536 x 864","1536 x 864","true","1","10","","","","",""
"null","<p style=""font-size: 80px;"">+ 10 points</p>","null","html-keyboard-response","145","668838","0.0-11.0-2.144","62d138e361857aef127c9e8b","bo6utk","DD","28","M","{""name"":""Chrome"",""chrome"":true,""version"":""106.0"",""blink"":true,""windows"":true,""osname"":""Windows"",""osversion"":""10"",""a"":true}","9:17:8","1","3","Test_4","74","j","1","464.89999997615814","1536 x 864","1536 x 864","true","1","10","","","","",""
"null","<p style=""font-size: 80px;"">+ 10 points</p>","null","html-keyboard-response","146","671485","0.0-11.0-2.145","62d138e361857aef127c9e8b","bo6utk","DD","28","M","{""name"":""Chrome"",""chrome"":true,""version"":""106.0"",""blink"":true,""windows"":true,""osname"":""Windows"",""osversion"":""10"",""a"":true}","9:17:8","1","3","Test_1","70","f","1","616.2999999523163","1536 x 864","1536 x 864","true","1","10","","","","",""
"null","<p style=""font-size: 80px;"">+ 10 points</p>","null","html-keyboard-response","147","674136","0.0-11.0-2.146","62d138e361857aef127c9e8b","bo6utk","DD","28","M","{""name"":""Chrome"",""chrome"":true,""version"":""106.0"",""blink"":true,""windows"":true,""osname"":""Windows"",""osversion"":""10"",""a"":true}","9:17:8","1","3","Test_2","74","j","1","617.7000000476837","1536 x 864","1536 x 864","true","1","10","","","","",""
"null","<p style=""font-size: 80px;"">+ 10 points</p>","null","html-keyboard-response","148","676830","0.0-11.0-2.147","62d138e361857aef127c9e8b","bo6utk","DD","28","M","{""name"":""Chrome"",""chrome"":true,""version"":""106.0"",""blink"":true,""windows"":true,""osname"":""Windows"",""osversion"":""10"",""a"":true}","9:17:8","1","3","Test_1","70","f","1","663.2999999523163","1536 x 864","1536 x 864","true","1","10","","","","",""
"null","<p style=""font-size: 80px;"">+ 10 points</p>","null","html-keyboard-response","149","679612","0.0-11.0-2.148","62d138e361857aef127c9e8b","bo6utk","DD","28","M","{""name"":""Chrome"",""chrome"":true,""version"":""106.0"",""blink"":true,""windows"":true,""osname"":""Windows"",""osversion"":""10"",""a"":true}","9:17:8","1","3","Test_3","70","f","1","770.3999999761581","1536 x 864","1536 x 864","true","1","10","","","","",""
"null","<p style=""font-size: 80px;"">+ 10 points</p>","null","html-keyboard-response","150","682300","0.0-11.0-2.149","62d138e361857aef127c9e8b","bo6utk","DD","28","M","{""name"":""Chrome"",""chrome"":true,""version"":""106.0"",""blink"":true,""windows"":true,""osname"":""Windows"",""osversion"":""10"",""a"":true}","9:17:8","1","3","Test_2","74","j","1","665.1000000238419","1536 x 864","1536 x 864","true","1","10","","","","",""
"null","<p style=""font-size: 80px;"">+ 10 points</p>","null","html-keyboard-response","151","684850","0.0-11.0-2.150","62d138e361857aef127c9e8b","bo6utk","DD","28","M","{""name"":""Chrome"",""chrome"":true,""version"":""106.0"",""blink"":true,""windows"":true,""osname"":""Windows"",""osversion"":""10"",""a"":true}","9:17:8","1","3","Test_2","74","j","1","522.6000000238419","1536 x 864","1536 x 864","true","1","10","","","","",""
"null","<p style=""font-size: 80px;"">+ 10 points</p>","null","html-keyboard-response","152","687474","0.0-11.0-2.151","62d138e361857aef127c9e8b","bo6utk","DD","28","M","{""name"":""Chrome"",""chrome"":true,""version"":""106.0"",""blink"":true,""windows"":true,""osname"":""Windows"",""osversion"":""10"",""a"":true}","9:17:8","1","3","Test_1","70","f","1","609.3999999761581","1536 x 864","1536 x 864","true","1","10","","","","",""
"null","<p style=""font-size: 80px;"">+ 10 points</p>","null","html-keyboard-response","153","690154","0.0-11.0-2.152","62d138e361857aef127c9e8b","bo6utk","DD","28","M","{""name"":""Chrome"",""chrome"":true,""version"":""106.0"",""blink"":true,""windows"":true,""osname"":""Windows"",""osversion"":""10"",""a"":true}","9:17:8","1","3","Test_2","74","j","1","652","1536 x 864","1536 x 864","true","1","10","","","","",""
"null","<p style=""font-size: 80px;"">+ 0 points</p>","null","html-keyboard-response","154","693034","0.0-11.0-2.153","62d138e361857aef127c9e8b","bo6utk","DD","28","M","{""name"":""Chrome"",""chrome"":true,""version"":""106.0"",""blink"":true,""windows"":true,""osname"":""Windows"",""osversion"":""10"",""a"":true}","9:17:8","1","3","Test_4","70","j","0","850.3999999761581","1536 x 864","1536 x 864","true","1","0","","","","",""
"null","<p style=""font-size: 80px;"">+ 10 points</p>","null","html-keyboard-response","155","696314","0.0-11.0-2.154","62d138e361857aef127c9e8b","bo6utk","DD","28","M","{""name"":""Chrome"",""chrome"":true,""version"":""106.0"",""blink"":true,""windows"":true,""osname"":""Windows"",""osversion"":""10"",""a"":true}","9:17:8","1","3","Test_1","70","f","1","1252.5","1536 x 864","1536 x 864","true","1","10","","","","",""
"null","<p style=""font-size: 80px;"">+ 10 points</p>","null","html-keyboard-response","156","699193","0.0-11.0-2.155","62d138e361857aef127c9e8b","bo6utk","DD","28","M","{""name"":""Chrome"",""chrome"":true,""version"":""106.0"",""blink"":true,""windows"":true,""osname"":""Windows"",""osversion"":""10"",""a"":true}","9:17:8","1","3","Test_2","74","j","1","850.5","1536 x 864","1536 x 864","true","1","10","","","","",""
"null","<p style=""font-size: 80px;"">+ 10 points</p>","null","html-keyboard-response","157","702580","0.0-11.0-2.156","62d138e361857aef127c9e8b","bo6utk","DD","28","M","{""name"":""Chrome"",""chrome"":true,""version"":""106.0"",""blink"":true,""windows"":true,""osname"":""Windows"",""osversion"":""10"",""a"":true}","9:17:8","1","3","Test_4","74","j","1","1375.6999999284744","1536 x 864","1536 x 864","true","1","10","","","","",""
"null","<p style=""font-size: 80px;"">+ 10 points</p>","null","html-keyboard-response","158","705241","0.0-11.0-2.157","62d138e361857aef127c9e8b","bo6utk","DD","28","M","{""name"":""Chrome"",""chrome"":true,""version"":""106.0"",""blink"":true,""windows"":true,""osname"":""Windows"",""osversion"":""10"",""a"":true}","9:17:8","1","3","Test_1","70","f","1","640.7999999523163","1536 x 864","1536 x 864","true","1","10","","","","",""
"null","<p style=""font-size: 80px;"">+ 10 points</p>","null","html-keyboard-response","159","708272","0.0-11.0-2.158","62d138e361857aef127c9e8b","bo6utk","DD","28","M","{""name"":""Chrome"",""chrome"":true,""version"":""106.0"",""blink"":true,""windows"":true,""osname"":""Windows"",""osversion"":""10"",""a"":true}","9:17:8","1","3","Test_2","74","j","1","1003.8999999761581","1536 x 864","1536 x 864","true","1","10","","","","",""
"null","<p style=""font-size: 80px;"">+ 10 points</p>","null","html-keyboard-response","160","710919","0.0-11.0-2.159","62d138e361857aef127c9e8b","bo6utk","DD","28","M","{""name"":""Chrome"",""chrome"":true,""version"":""106.0"",""blink"":true,""windows"":true,""osname"":""Windows"",""osversion"":""10"",""a"":true}","9:17:8","1","3","Test_3","70","f","1","623","1536 x 864","1536 x 864","true","1","10","","","","",""
"null","<p style=""font-size: 80px;"">+ 10 points</p>","null","html-keyboard-response","161","713567","0.0-11.0-2.160","62d138e361857aef127c9e8b","bo6utk","DD","28","M","{""name"":""Chrome"",""chrome"":true,""version"":""106.0"",""blink"":true,""windows"":true,""osname"":""Windows"",""osversion"":""10"",""a"":true}","9:17:8","1","3","Test_4","74","j","1","619.1999999284744","1536 x 864","1536 x 864","true","1","10","","","","",""
"null","<p style=""font-size: 80px;"">+ 10 points</p>","null","html-keyboard-response","162","716005","0.0-11.0-2.161","62d138e361857aef127c9e8b","bo6utk","DD","28","M","{""name"":""Chrome"",""chrome"":true,""version"":""106.0"",""blink"":true,""windows"":true,""osname"":""Windows"",""osversion"":""10"",""a"":true}","9:17:8","1","3","Test_3","70","f","1","417.5","1536 x 864","1536 x 864","true","1","10","","","","",""
"null","<p style=""font-size: 80px;"">+ 0 points</p>","null","html-keyboard-response","163","718548","0.0-11.0-2.162","62d138e361857aef127c9e8b","bo6utk","DD","28","M","{""name"":""Chrome"",""chrome"":true,""version"":""106.0"",""blink"":true,""windows"":true,""osname"":""Windows"",""osversion"":""10"",""a"":true}","9:17:8","1","3","Test_3","74","f","0","531.3999999761581","1536 x 864","1536 x 864","true","1","0","","","","",""
"null","<p style=""font-size: 80px;"">+ 0 points</p>","null","html-keyboard-response","164","721223","0.0-11.0-2.163","62d138e361857aef127c9e8b","bo6utk","DD","28","M","{""name"":""Chrome"",""chrome"":true,""version"":""106.0"",""blink"":true,""windows"":true,""osname"":""Windows"",""osversion"":""10"",""a"":true}","9:17:8","1","4","Test_1","70","j","0","649.1000000238419","1536 x 864","1536 x 864","true","1","0","","","","",""
"null","<p style=""font-size: 80px;"">+ 10 points</p>","null","html-keyboard-response","165","723741","0.0-11.0-2.164","62d138e361857aef127c9e8b","bo6utk","DD","28","M","{""name"":""Chrome"",""chrome"":true,""version"":""106.0"",""blink"":true,""windows"":true,""osname"":""Windows"",""osversion"":""10"",""a"":true}","9:17:8","1","4","Test_1","74","j","1","502.59999990463257","1536 x 864","1536 x 864","true","1","10","","","","",""
"null","<p style=""font-size: 80px;"">+ 10 points</p>","null","html-keyboard-response","166","726389","0.0-11.0-2.165","62d138e361857aef127c9e8b","bo6utk","DD","28","M","{""name"":""Chrome"",""chrome"":true,""version"":""106.0"",""blink"":true,""windows"":true,""osname"":""Windows"",""osversion"":""10"",""a"":true}","9:17:8","1","4","Test_2","70","f","1","630.6999999284744","1536 x 864","1536 x 864","true","1","10","","","","",""
"null","<p style=""font-size: 80px;"">+ 10 points</p>","null","html-keyboard-response","167","728936","0.0-11.0-2.166","62d138e361857aef127c9e8b","bo6utk","DD","28","M","{""name"":""Chrome"",""chrome"":true,""version"":""106.0"",""blink"":true,""windows"":true,""osname"":""Windows"",""osversion"":""10"",""a"":true}","9:17:8","1","4","Test_1","74","j","1","526.2000000476837","1536 x 864","1536 x 864","true","1","10","","","","",""
"null","<p style=""font-size: 80px;"">+ 0 points</p>","null","html-keyboard-response","168","732673","0.0-11.0-2.167","62d138e361857aef127c9e8b","bo6utk","DD","28","M","{""name"":""Chrome"",""chrome"":true,""version"":""106.0"",""blink"":true,""windows"":true,""osname"":""Windows"",""osversion"":""10"",""a"":true}","9:17:8","1","4","Test_4","74","f","0","1726","1536 x 864","1536 x 864","true","1","0","","","","",""
"null","<p style=""font-size: 80px;"">+ 10 points</p>","null","html-keyboard-response","169","735330","0.0-11.0-2.168","62d138e361857aef127c9e8b","bo6utk","DD","28","M","{""name"":""Chrome"",""chrome"":true,""version"":""106.0"",""blink"":true,""windows"":true,""osname"":""Windows"",""osversion"":""10"",""a"":true}","9:17:8","1","4","Test_4","70","f","1","632.1999999284744","1536 x 864","1536 x 864","true","1","10","","","","",""
"null","<p style=""font-size: 80px;"">+ 10 points</p>","null","html-keyboard-response","170","738458","0.0-11.0-2.169","62d138e361857aef127c9e8b","bo6utk","DD","28","M","{""name"":""Chrome"",""chrome"":true,""version"":""106.0"",""blink"":true,""windows"":true,""osname"":""Windows"",""osversion"":""10"",""a"":true}","9:17:8","1","4","Test_3","74","j","1","1102.7999999523163","1536 x 864","1536 x 864","true","1","10","","","","",""
"null","<p style=""font-size: 80px;"">+ 10 points</p>","null","html-keyboard-response","171","741336","0.0-11.0-2.170","62d138e361857aef127c9e8b","bo6utk","DD","28","M","{""name"":""Chrome"",""chrome"":true,""version"":""106.0"",""blink"":true,""windows"":true,""osname"":""Windows"",""osversion"":""10"",""a"":true}","9:17:8","1","4","Test_3","74","j","1","852.2000000476837","1536 x 864","1536 x 864","true","1","10","","","","",""
"null","<p style=""font-size: 80px;"">+ 10 points</p>","null","html-keyboard-response","172","744294","0.0-11.0-2.171","62d138e361857aef127c9e8b","bo6utk","DD","28","M","{""name"":""Chrome"",""chrome"":true,""version"":""106.0"",""blink"":true,""windows"":true,""osname"":""Windows"",""osversion"":""10"",""a"":true}","9:17:8","1","4","Test_3","74","j","1","938.4000000953674","1536 x 864","1536 x 864","true","1","10","","","","",""
"null","<p style=""font-size: 80px;"">+ 0 points</p>","null","html-keyboard-response","173","747154","0.0-11.0-2.172","62d138e361857aef127c9e8b","bo6utk","DD","28","M","{""name"":""Chrome"",""chrome"":true,""version"":""106.0"",""blink"":true,""windows"":true,""osname"":""Windows"",""osversion"":""10"",""a"":true}","9:17:8","1","4","Test_2","74","f","0","832.6000000238419","1536 x 864","1536 x 864","true","1","0","","","","",""
"null","<p style=""font-size: 80px;"">+ 0 points</p>","null","html-keyboard-response","174","749953","0.0-11.0-2.173","62d138e361857aef127c9e8b","bo6utk","DD","28","M","{""name"":""Chrome"",""chrome"":true,""version"":""106.0"",""blink"":true,""windows"":true,""osname"":""Windows"",""osversion"":""10"",""a"":true}","9:17:8","1","4","Test_1","70","j","0","778.3000000715256","1536 x 864","1536 x 864","true","1","0","","","","",""
"null","<p style=""font-size: 80px;"">+ 10 points</p>","null","html-keyboard-response","175","752613","0.0-11.0-2.174","62d138e361857aef127c9e8b","bo6utk","DD","28","M","{""name"":""Chrome"",""chrome"":true,""version"":""106.0"",""blink"":true,""windows"":true,""osname"":""Windows"",""osversion"":""10"",""a"":true}","9:17:8","1","4","Test_1","74","j","1","641.8000000715256","1536 x 864","1536 x 864","true","1","10","","","","",""
"null","<p style=""font-size: 80px;"">+ 0 points</p>","null","html-keyboard-response","176","755461","0.0-11.0-2.175","62d138e361857aef127c9e8b","bo6utk","DD","28","M","{""name"":""Chrome"",""chrome"":true,""version"":""106.0"",""blink"":true,""windows"":true,""osname"":""Windows"",""osversion"":""10"",""a"":true}","9:17:8","1","4","Test_4","74","f","0","812.6000000238419","1536 x 864","1536 x 864","true","1","0","","","","",""
"null","<p style=""font-size: 80px;"">+ 10 points</p>","null","html-keyboard-response","177","758124","0.0-11.0-2.176","62d138e361857aef127c9e8b","bo6utk","DD","28","M","{""name"":""Chrome"",""chrome"":true,""version"":""106.0"",""blink"":true,""windows"":true,""osname"":""Windows"",""osversion"":""10"",""a"":true}","9:17:8","1","4","Test_2","70","f","1","651.2999999523163","1536 x 864","1536 x 864","true","1","10","","","","",""
"null","<p style=""font-size: 80px;"">+ 10 points</p>","null","html-keyboard-response","178","760956","0.0-11.0-2.177","62d138e361857aef127c9e8b","bo6utk","DD","28","M","{""name"":""Chrome"",""chrome"":true,""version"":""106.0"",""blink"":true,""windows"":true,""osname"":""Windows"",""osversion"":""10"",""a"":true}","9:17:8","1","4","Test_2","70","f","1","811.0999999046326","1536 x 864","1536 x 864","true","1","10","","","","",""
"null","<p style=""font-size: 80px;"">+ 0 points</p>","null","html-keyboard-response","179","765388","0.0-11.0-2.178","62d138e361857aef127c9e8b","bo6utk","DD","28","M","{""name"":""Chrome"",""chrome"":true,""version"":""106.0"",""blink"":true,""windows"":true,""osname"":""Windows"",""osversion"":""10"",""a"":true}","9:17:8","1","4","Test_4","74","f","0","2411.5999999046326","1536 x 864","1536 x 864","true","1","0","","","","",""
"null","<p style=""font-size: 80px;"">+ 0 points</p>","null","html-keyboard-response","180","768418","0.0-11.0-2.179","62d138e361857aef127c9e8b","bo6utk","DD","28","M","{""name"":""Chrome"",""chrome"":true,""version"":""106.0"",""blink"":true,""windows"":true,""osname"":""Windows"",""osversion"":""10"",""a"":true}","9:17:8","1","4","Test_3","70","j","0","1006.1999999284744","1536 x 864","1536 x 864","true","1","0","","","","",""
"null","<p style=""font-size: 80px;"">+ 0 points</p>","null","html-keyboard-response","181","771050","0.0-11.0-2.180","62d138e361857aef127c9e8b","bo6utk","DD","28","M","{""name"":""Chrome"",""chrome"":true,""version"":""106.0"",""blink"":true,""windows"":true,""osname"":""Windows"",""osversion"":""10"",""a"":true}","9:17:8","1","4","Test_4","74","f","0","604.3000000715256","1536 x 864","1536 x 864","true","1","0","","","","",""
"null","<p style=""font-size: 80px;"">+ 10 points</p>","null","html-keyboard-response","182","773662","0.0-11.0-2.181","62d138e361857aef127c9e8b","bo6utk","DD","28","M","{""name"":""Chrome"",""chrome"":true,""version"":""106.0"",""blink"":true,""windows"":true,""osname"":""Windows"",""osversion"":""10"",""a"":true}","9:17:8","1","4","Test_2","70","f","1","580.5","1536 x 864","1536 x 864","true","1","10","","","","",""
"null","<p style=""font-size: 80px;"">+ 0 points</p>","null","html-keyboard-response","183","776292","0.0-11.0-2.182","62d138e361857aef127c9e8b","bo6utk","DD","28","M","{""name"":""Chrome"",""chrome"":true,""version"":""106.0"",""blink"":true,""windows"":true,""osname"":""Windows"",""osversion"":""10"",""a"":true}","9:17:8","1","3","Test_2","70","j","0","624.5","1536 x 864","1536 x 864","true","1","0","","","","",""
"null","<p style=""font-size: 80px;"">+ 10 points</p>","null","html-keyboard-response","184","779127","0.0-11.0-2.183","62d138e361857aef127c9e8b","bo6utk","DD","28","M","{""name"":""Chrome"",""chrome"":true,""version"":""106.0"",""blink"":true,""windows"":true,""osname"":""Windows"",""osversion"":""10"",""a"":true}","9:17:8","1","3","Test_3","70","f","1","802.5","1536 x 864","1536 x 864","true","1","10","","","","",""
"null","<p style=""font-size: 80px;"">+ 10 points</p>","null","html-keyboard-response","185","782039","0.0-11.0-2.184","62d138e361857aef127c9e8b","bo6utk","DD","28","M","{""name"":""Chrome"",""chrome"":true,""version"":""106.0"",""blink"":true,""windows"":true,""osname"":""Windows"",""osversion"":""10"",""a"":true}","9:17:8","1","3","Test_4","74","j","1","886.4000000953674","1536 x 864","1536 x 864","true","1","10","","","","",""
"null","<p style=""font-size: 80px;"">+ 10 points</p>","null","html-keyboard-response","186","785169","0.0-11.0-2.185","62d138e361857aef127c9e8b","bo6utk","DD","28","M","{""name"":""Chrome"",""chrome"":true,""version"":""106.0"",""blink"":true,""windows"":true,""osname"":""Windows"",""osversion"":""10"",""a"":true}","9:17:8","1","3","Test_2","74","j","1","1107","1536 x 864","1536 x 864","true","1","10","","","","",""
"null","<p style=""font-size: 80px;"">+ 10 points</p>","null","html-keyboard-response","187","787867","0.0-11.0-2.186","62d138e361857aef127c9e8b","bo6utk","DD","28","M","{""name"":""Chrome"",""chrome"":true,""version"":""106.0"",""blink"":true,""windows"":true,""osname"":""Windows"",""osversion"":""10"",""a"":true}","9:17:8","1","3","Test_3","70","f","1","670","1536 x 864","1536 x 864","true","1","10","","","","",""
"null","<p style=""font-size: 80px;"">+ 10 points</p>","null","html-keyboard-response","188","790714","0.0-11.0-2.187","62d138e361857aef127c9e8b","bo6utk","DD","28","M","{""name"":""Chrome"",""chrome"":true,""version"":""106.0"",""blink"":true,""windows"":true,""osname"":""Windows"",""osversion"":""10"",""a"":true}","9:17:8","1","3","Test_4","74","j","1","821","1536 x 864","1536 x 864","true","1","10","","","","",""
"null","<p style=""font-size: 80px;"">+ 10 points</p>","null","html-keyboard-response","189","793476","0.0-11.0-2.188","62d138e361857aef127c9e8b","bo6utk","DD","28","M","{""name"":""Chrome"",""chrome"":true,""version"":""106.0"",""blink"":true,""windows"":true,""osname"":""Windows"",""osversion"":""10"",""a"":true}","9:17:8","1","3","Test_3","70","f","1","745","1536 x 864","1536 x 864","true","1","10","","","","",""
"null","<p style=""font-size: 80px;"">+ 0 points</p>","null","html-keyboard-response","190","796411","0.0-11.0-2.189","62d138e361857aef127c9e8b","bo6utk","DD","28","M","{""name"":""Chrome"",""chrome"":true,""version"":""106.0"",""blink"":true,""windows"":true,""osname"":""Windows"",""osversion"":""10"",""a"":true}","9:17:8","1","3","Test_1","74","f","0","922.8999999761581","1536 x 864","1536 x 864","true","1","0","","","","",""
