"rt","stimulus","key_press","trial_type","trial_index","time_elapsed","internal_node_id","Prolific_ID","random_ID","initials","age","gender","pc_info","start_time","Phase","Rule","Stimulus","Response","CorrResp","Accuracy","ResponseTime","screen_resolution","window_resolution","focus","relevant","Points","responses","question_order","rev_check","butterfly_check","passed_practice"
"null","<p style=""font-size: 80px;"">+ 0 points</p>","null","html-keyboard-response","1","77151","0.0-7.0-2.0","611119b66c980fffcfea9e71","lsdx0m","SH","26","F","{""name"":""Chrome"",""chrome"":true,""version"":""106.0"",""blink"":true,""windows"":true,""osname"":""Windows"",""osversion"":""10"",""a"":true}","9:10:38","0","1","Practice_4","70","j","0","918.5999999046326","1536 x 864","1347 x 832","true","1","0","","","","",""
"null","<p style=""font-size: 80px;"">+ 10 points</p>","null","html-keyboard-response","2","80456","0.0-7.0-2.1","611119b66c980fffcfea9e71","lsdx0m","SH","26","F","{""name"":""Chrome"",""chrome"":true,""version"":""106.0"",""blink"":true,""windows"":true,""osname"":""Windows"",""osversion"":""10"",""a"":true}","9:10:38","0","1","Practice_3","70","f","1","1284.6000000238419","1536 x 864","1347 x 832","true","1","10","","","","",""
"null","<p style=""font-size: 80px;"">+ 0 points</p>","null","html-keyboard-response","3","83106","0.0-7.0-2.2","611119b66c980fffcfea9e71","lsdx0m","SH","26","F","{""name"":""Chrome"",""chrome"":true,""version"":""106.0"",""blink"":true,""windows"":true,""osname"":""Windows"",""osversion"":""10"",""a"":true}","9:10:38","0","1","Practice_2","70","j","0","631.7999999523163","1536 x 864","1347 x 832","true","1","0","","","","",""
"null","<p style=""font-size: 80px;"">+ 10 points</p>","null","html-keyboard-response","4","86201","0.0-7.0-2.3","611119b66c980fffcfea9e71","lsdx0m","SH","26","F","{""name"":""Chrome"",""chrome"":true,""version"":""106.0"",""blink"":true,""windows"":true,""osname"":""Windows"",""osversion"":""10"",""a"":true}","9:10:38","0","1","Practice_4","74","j","1","1066.5999999046326","1536 x 864","1347 x 832","true","1","10","","","","",""
"null","<p style=""font-size: 80px;"">+ 0 points</p>","null","html-keyboard-response","5","89101","0.0-7.0-2.4","611119b66c980fffcfea9e71","lsdx0m","SH","26","F","{""name"":""Chrome"",""chrome"":true,""version"":""106.0"",""blink"":true,""windows"":true,""osname"":""Windows"",""osversion"":""10"",""a"":true}","9:10:38","0","1","Practice_1","74","f","0","883.3999999761581","1536 x 864","1347 x 832","true","1","0","","","","",""
"null","<p style=""font-size: 80px;"">+ 10 points</p>","null","html-keyboard-response","6","92854","0.0-7.0-2.5","611119b66c980fffcfea9e71","lsdx0m","SH","26","F","{""name"":""Chrome"",""chrome"":true,""version"":""106.0"",""blink"":true,""windows"":true,""osname"":""Windows"",""osversion"":""10"",""a"":true}","9:10:38","0","1","Practice_4","74","j","1","1729.6000000238419","1536 x 864","1347 x 832","true","1","10","","","","",""
"null","<p style=""font-size: 80px;"">+ 10 points</p>","null","html-keyboard-response","7","95756","0.0-7.0-2.6","611119b66c980fffcfea9e71","lsdx0m","SH","26","F","{""name"":""Chrome"",""chrome"":true,""version"":""106.0"",""blink"":true,""windows"":true,""osname"":""Windows"",""osversion"":""10"",""a"":true}","9:10:38","0","1","Practice_3","70","f","1","878.1000000238419","1536 x 864","1347 x 832","true","1","10","","","","",""
"null","<p style=""font-size: 80px;"">+ 10 points</p>","null","html-keyboard-response","8","98513","0.0-7.0-2.7","611119b66c980fffcfea9e71","lsdx0m","SH","26","F","{""name"":""Chrome"",""chrome"":true,""version"":""106.0"",""blink"":true,""windows"":true,""osname"":""Windows"",""osversion"":""10"",""a"":true}","9:10:38","0","1","Practice_1","70","f","1","735.3999999761581","1536 x 864","1347 x 832","true","1","10","","","","",""
"null","<p style=""font-size: 80px;"">+ 10 points</p>","null","html-keyboard-response","9","101222","0.0-7.0-2.8","611119b66c980fffcfea9e71","lsdx0m","SH","26","F","{""name"":""Chrome"",""chrome"":true,""version"":""106.0"",""blink"":true,""windows"":true,""osname"":""Windows"",""osversion"":""10"",""a"":true}","9:10:38","0","1","Practice_4","74","j","1","673.7999999523163","1536 x 864","1347 x 832","true","1","10","","","","",""
"null","<p style=""font-size: 80px;"">+ 10 points</p>","null","html-keyboard-response","10","104154","0.0-7.0-2.9","611119b66c980fffcfea9e71","lsdx0m","SH","26","F","{""name"":""Chrome"",""chrome"":true,""version"":""106.0"",""blink"":true,""windows"":true,""osname"":""Windows"",""osversion"":""10"",""a"":true}","9:10:38","0","1","Practice_3","70","f","1","901","1536 x 864","1347 x 832","true","1","10","","","","",""
"null","<p style=""font-size: 80px;"">+ 10 points</p>","null","html-keyboard-response","11","107901","0.0-7.0-2.10","611119b66c980fffcfea9e71","lsdx0m","SH","26","F","{""name"":""Chrome"",""chrome"":true,""version"":""106.0"",""blink"":true,""windows"":true,""osname"":""Windows"",""osversion"":""10"",""a"":true}","9:10:38","0","1","Practice_2","74","j","1","1729","1536 x 864","1347 x 832","true","1","10","","","","",""
"null","<p style=""font-size: 80px;"">+ 10 points</p>","null","html-keyboard-response","12","110576","0.0-7.0-2.11","611119b66c980fffcfea9e71","lsdx0m","SH","26","F","{""name"":""Chrome"",""chrome"":true,""version"":""106.0"",""blink"":true,""windows"":true,""osname"":""Windows"",""osversion"":""10"",""a"":true}","9:10:38","0","1","Practice_2","74","j","1","661.9000000953674","1536 x 864","1347 x 832","true","1","10","","","","",""
"null","<p style=""font-size: 80px;"">+ 10 points</p>","null","html-keyboard-response","13","113216","0.0-7.0-2.12","611119b66c980fffcfea9e71","lsdx0m","SH","26","F","{""name"":""Chrome"",""chrome"":true,""version"":""106.0"",""blink"":true,""windows"":true,""osname"":""Windows"",""osversion"":""10"",""a"":true}","9:10:38","0","1","Practice_2","74","j","1","627.8999999761581","1536 x 864","1347 x 832","true","1","10","","","","",""
"null","<p style=""font-size: 80px;"">+ 0 points</p>","null","html-keyboard-response","14","116098","0.0-7.0-2.13","611119b66c980fffcfea9e71","lsdx0m","SH","26","F","{""name"":""Chrome"",""chrome"":true,""version"":""106.0"",""blink"":true,""windows"":true,""osname"":""Windows"",""osversion"":""10"",""a"":true}","9:10:38","0","1","Practice_4","70","j","0","848.7000000476837","1536 x 864","1347 x 832","true","1","0","","","","",""
"null","<p style=""font-size: 80px;"">+ 10 points</p>","null","html-keyboard-response","15","118981","0.0-7.0-2.14","611119b66c980fffcfea9e71","lsdx0m","SH","26","F","{""name"":""Chrome"",""chrome"":true,""version"":""106.0"",""blink"":true,""windows"":true,""osname"":""Windows"",""osversion"":""10"",""a"":true}","9:10:38","0","1","Practice_3","70","f","1","872.2999999523163","1536 x 864","1347 x 832","true","1","10","","","","",""
"null","<p style=""font-size: 80px;"">+ 10 points</p>","null","html-keyboard-response","16","121896","0.0-7.0-2.15","611119b66c980fffcfea9e71","lsdx0m","SH","26","F","{""name"":""Chrome"",""chrome"":true,""version"":""106.0"",""blink"":true,""windows"":true,""osname"":""Windows"",""osversion"":""10"",""a"":true}","9:10:38","0","1","Practice_2","74","j","1","884.3999999761581","1536 x 864","1347 x 832","true","1","10","","","","",""
"null","<p style=""font-size: 80px;"">+ 10 points</p>","null","html-keyboard-response","17","124751","0.0-7.0-2.16","611119b66c980fffcfea9e71","lsdx0m","SH","26","F","{""name"":""Chrome"",""chrome"":true,""version"":""106.0"",""blink"":true,""windows"":true,""osname"":""Windows"",""osversion"":""10"",""a"":true}","9:10:38","0","1","Practice_3","70","f","1","844.3999999761581","1536 x 864","1347 x 832","true","1","10","","","","",""
"null","<p style=""font-size: 80px;"">+ 10 points</p>","null","html-keyboard-response","18","127525","0.0-7.0-2.17","611119b66c980fffcfea9e71","lsdx0m","SH","26","F","{""name"":""Chrome"",""chrome"":true,""version"":""106.0"",""blink"":true,""windows"":true,""osname"":""Windows"",""osversion"":""10"",""a"":true}","9:10:38","0","1","Practice_1","70","f","1","746.2999999523163","1536 x 864","1347 x 832","true","1","10","","","","",""
"null","<p style=""font-size: 80px;"">+ 10 points</p>","null","html-keyboard-response","19","130861","0.0-7.0-2.18","611119b66c980fffcfea9e71","lsdx0m","SH","26","F","{""name"":""Chrome"",""chrome"":true,""version"":""106.0"",""blink"":true,""windows"":true,""osname"":""Windows"",""osversion"":""10"",""a"":true}","9:10:38","0","1","Practice_1","70","f","1","1315.6999999284744","1536 x 864","1347 x 832","true","1","10","","","","",""
"null","<p style=""font-size: 80px;"">+ 10 points</p>","null","html-keyboard-response","20","133581","0.0-7.0-2.19","611119b66c980fffcfea9e71","lsdx0m","SH","26","F","{""name"":""Chrome"",""chrome"":true,""version"":""106.0"",""blink"":true,""windows"":true,""osname"":""Windows"",""osversion"":""10"",""a"":true}","9:10:38","0","1","Practice_1","70","f","1","697.1000000238419","1536 x 864","1347 x 832","true","1","10","","","","",""
"null","<p style=""font-size: 80px;"">+ 0 points</p>","null","html-keyboard-response","21","136181","0.0-7.0-2.20","611119b66c980fffcfea9e71","lsdx0m","SH","26","F","{""name"":""Chrome"",""chrome"":true,""version"":""106.0"",""blink"":true,""windows"":true,""osname"":""Windows"",""osversion"":""10"",""a"":true}","9:10:38","0","2","Practice_1","70","j","0","564.8999999761581","1536 x 864","1347 x 832","true","1","0","","","","",""
"null","<p style=""font-size: 80px;"">+ 10 points</p>","null","html-keyboard-response","22","138825","0.0-7.0-2.21","611119b66c980fffcfea9e71","lsdx0m","SH","26","F","{""name"":""Chrome"",""chrome"":true,""version"":""106.0"",""blink"":true,""windows"":true,""osname"":""Windows"",""osversion"":""10"",""a"":true}","9:10:38","0","2","Practice_1","74","j","1","616.3999999761581","1536 x 864","1347 x 832","true","1","10","","","","",""
"null","<p style=""font-size: 80px;"">+ 10 points</p>","null","html-keyboard-response","23","141591","0.0-7.0-2.22","611119b66c980fffcfea9e71","lsdx0m","SH","26","F","{""name"":""Chrome"",""chrome"":true,""version"":""106.0"",""blink"":true,""windows"":true,""osname"":""Windows"",""osversion"":""10"",""a"":true}","9:10:38","0","2","Practice_4","70","f","1","746.3999999761581","1536 x 864","1347 x 832","true","1","10","","","","",""
"null","<p style=""font-size: 80px;"">+ 10 points</p>","null","html-keyboard-response","24","144101","0.0-7.0-2.23","611119b66c980fffcfea9e71","lsdx0m","SH","26","F","{""name"":""Chrome"",""chrome"":true,""version"":""106.0"",""blink"":true,""windows"":true,""osname"":""Windows"",""osversion"":""10"",""a"":true}","9:10:38","0","2","Practice_4","70","f","1","484.2000000476837","1536 x 864","1347 x 832","true","1","10","","","","",""
"null","<p style=""font-size: 80px;"">+ 10 points</p>","null","html-keyboard-response","25","146761","0.0-7.0-2.24","611119b66c980fffcfea9e71","lsdx0m","SH","26","F","{""name"":""Chrome"",""chrome"":true,""version"":""106.0"",""blink"":true,""windows"":true,""osname"":""Windows"",""osversion"":""10"",""a"":true}","9:10:38","0","2","Practice_1","74","j","1","642.5","1536 x 864","1347 x 832","true","1","10","","","","",""
"null","<p style=""font-size: 80px;"">+ 10 points</p>","null","html-keyboard-response","26","149221","0.0-7.0-2.25","611119b66c980fffcfea9e71","lsdx0m","SH","26","F","{""name"":""Chrome"",""chrome"":true,""version"":""106.0"",""blink"":true,""windows"":true,""osname"":""Windows"",""osversion"":""10"",""a"":true}","9:10:38","0","2","Practice_4","70","f","1","439.8000000715256","1536 x 864","1347 x 832","true","1","10","","","","",""
"null","<p style=""font-size: 80px;"">+ 10 points</p>","null","html-keyboard-response","27","152387","0.0-7.0-2.26","611119b66c980fffcfea9e71","lsdx0m","SH","26","F","{""name"":""Chrome"",""chrome"":true,""version"":""106.0"",""blink"":true,""windows"":true,""osname"":""Windows"",""osversion"":""10"",""a"":true}","9:10:38","0","2","Practice_3","74","j","1","1129.3999999761581","1536 x 864","1347 x 832","true","1","10","","","","",""
"null","<p style=""font-size: 80px;"">+ 10 points</p>","null","html-keyboard-response","28","155019","0.0-7.0-2.27","611119b66c980fffcfea9e71","lsdx0m","SH","26","F","{""name"":""Chrome"",""chrome"":true,""version"":""106.0"",""blink"":true,""windows"":true,""osname"":""Windows"",""osversion"":""10"",""a"":true}","9:10:38","0","2","Practice_3","74","j","1","613.5","1536 x 864","1347 x 832","true","1","10","","","","",""
"null","<p style=""font-size: 80px;"">+ 10 points</p>","null","html-keyboard-response","29","157601","0.0-7.0-2.28","611119b66c980fffcfea9e71","lsdx0m","SH","26","F","{""name"":""Chrome"",""chrome"":true,""version"":""106.0"",""blink"":true,""windows"":true,""osname"":""Windows"",""osversion"":""10"",""a"":true}","9:10:38","0","2","Practice_3","74","j","1","554.6000000238419","1536 x 864","1347 x 832","true","1","10","","","","",""
"null","<p style=""font-size: 80px;"">+ 10 points</p>","null","html-keyboard-response","30","160159","0.0-7.0-2.29","611119b66c980fffcfea9e71","lsdx0m","SH","26","F","{""name"":""Chrome"",""chrome"":true,""version"":""106.0"",""blink"":true,""windows"":true,""osname"":""Windows"",""osversion"":""10"",""a"":true}","9:10:38","0","2","Practice_3","74","j","1","538.1000000238419","1536 x 864","1347 x 832","true","1","10","","","","",""
"null","<p style=""font-size: 80px;"">+ 10 points</p>","null","html-keyboard-response","31","162716","0.0-7.0-2.30","611119b66c980fffcfea9e71","lsdx0m","SH","26","F","{""name"":""Chrome"",""chrome"":true,""version"":""106.0"",""blink"":true,""windows"":true,""osname"":""Windows"",""osversion"":""10"",""a"":true}","9:10:38","0","2","Practice_3","74","j","1","540.1999999284744","1536 x 864","1347 x 832","true","1","10","","","","",""
"null","<p style=""font-size: 80px;"">+ 10 points</p>","null","html-keyboard-response","32","165198","0.0-7.0-2.31","611119b66c980fffcfea9e71","lsdx0m","SH","26","F","{""name"":""Chrome"",""chrome"":true,""version"":""106.0"",""blink"":true,""windows"":true,""osname"":""Windows"",""osversion"":""10"",""a"":true}","9:10:38","0","2","Practice_2","70","f","1","469.5","1536 x 864","1347 x 832","true","1","10","","","","",""
"null","<p style=""font-size: 80px;"">+ 10 points</p>","null","html-keyboard-response","33","167786","0.0-7.0-2.32","611119b66c980fffcfea9e71","lsdx0m","SH","26","F","{""name"":""Chrome"",""chrome"":true,""version"":""106.0"",""blink"":true,""windows"":true,""osname"":""Windows"",""osversion"":""10"",""a"":true}","9:10:38","0","2","Practice_2","70","f","1","559.5","1536 x 864","1347 x 832","true","1","10","","","","",""
"null","<p style=""font-size: 80px;"">+ 10 points</p>","null","html-keyboard-response","34","170976","0.0-7.0-2.33","611119b66c980fffcfea9e71","lsdx0m","SH","26","F","{""name"":""Chrome"",""chrome"":true,""version"":""106.0"",""blink"":true,""windows"":true,""osname"":""Windows"",""osversion"":""10"",""a"":true}","9:10:38","0","2","Practice_4","70","f","1","1162.7999999523163","1536 x 864","1347 x 832","true","1","10","","","","",""
"null","<p style=""font-size: 80px;"">+ 10 points</p>","null","html-keyboard-response","35","173748","0.0-7.0-2.34","611119b66c980fffcfea9e71","lsdx0m","SH","26","F","{""name"":""Chrome"",""chrome"":true,""version"":""106.0"",""blink"":true,""windows"":true,""osname"":""Windows"",""osversion"":""10"",""a"":true}","9:10:38","0","2","Practice_2","70","f","1","746.7999999523163","1536 x 864","1347 x 832","true","1","10","","","","",""
"null","<p style=""font-size: 80px;"">+ 10 points</p>","null","html-keyboard-response","36","176331","0.0-7.0-2.35","611119b66c980fffcfea9e71","lsdx0m","SH","26","F","{""name"":""Chrome"",""chrome"":true,""version"":""106.0"",""blink"":true,""windows"":true,""osname"":""Windows"",""osversion"":""10"",""a"":true}","9:10:38","0","2","Practice_2","70","f","1","553","1536 x 864","1347 x 832","true","1","10","","","","",""
"null","<p style=""font-size: 80px;"">+ 10 points</p>","null","html-keyboard-response","37","179241","0.0-7.0-2.36","611119b66c980fffcfea9e71","lsdx0m","SH","26","F","{""name"":""Chrome"",""chrome"":true,""version"":""106.0"",""blink"":true,""windows"":true,""osname"":""Windows"",""osversion"":""10"",""a"":true}","9:10:38","0","2","Practice_4","70","f","1","874.8999999761581","1536 x 864","1347 x 832","true","1","10","","","","",""
"null","<p style=""font-size: 80px;"">+ 10 points</p>","null","html-keyboard-response","38","183786","0.0-7.0-2.37","611119b66c980fffcfea9e71","lsdx0m","SH","26","F","{""name"":""Chrome"",""chrome"":true,""version"":""106.0"",""blink"":true,""windows"":true,""osname"":""Windows"",""osversion"":""10"",""a"":true}","9:10:38","0","2","Practice_1","74","j","1","2509.100000023842","1536 x 864","1347 x 832","true","1","10","","","","",""
"null","<p style=""font-size: 80px;"">+ 10 points</p>","null","html-keyboard-response","39","186916","0.0-7.0-2.38","611119b66c980fffcfea9e71","lsdx0m","SH","26","F","{""name"":""Chrome"",""chrome"":true,""version"":""106.0"",""blink"":true,""windows"":true,""osname"":""Windows"",""osversion"":""10"",""a"":true}","9:10:38","0","2","Practice_2","70","f","1","1117.1000000238419","1536 x 864","1347 x 832","true","1","10","","","","",""
"null","<p style=""font-size: 80px;"">+ 10 points</p>","null","html-keyboard-response","40","189891","0.0-7.0-2.39","611119b66c980fffcfea9e71","lsdx0m","SH","26","F","{""name"":""Chrome"",""chrome"":true,""version"":""106.0"",""blink"":true,""windows"":true,""osname"":""Windows"",""osversion"":""10"",""a"":true}","9:10:38","0","2","Practice_1","74","j","1","959.8999999761581","1536 x 864","1347 x 832","true","1","10","","","","",""
"9589.899999976158","","","survey-multi-choice","127","199483","0.0-8.0","611119b66c980fffcfea9e71","lsdx0m","SH","26","F","{""name"":""Chrome"",""chrome"":true,""version"":""106.0"",""blink"":true,""windows"":true,""osname"":""Windows"",""osversion"":""10"",""a"":true}","9:10:38","","","","","","","","","","","1","","{""Q0"":""The red one"",""Q1"":""1""}","[0,1]","1","The red one","2"
"null","<p style=""font-size: 80px;"">+ 10 points</p>","null","html-keyboard-response","1","210341","0.0-11.0-2.0","611119b66c980fffcfea9e71","lsdx0m","SH","26","F","{""name"":""Chrome"",""chrome"":true,""version"":""106.0"",""blink"":true,""windows"":true,""osname"":""Windows"",""osversion"":""10"",""a"":true}","9:10:38","1","4","Test_2","70","f","1","527.8000000715256","1536 x 864","1347 x 832","true","1","10","","","","",""
"null","<p style=""font-size: 80px;"">+ 10 points</p>","null","html-keyboard-response","2","212781","0.0-11.0-2.1","611119b66c980fffcfea9e71","lsdx0m","SH","26","F","{""name"":""Chrome"",""chrome"":true,""version"":""106.0"",""blink"":true,""windows"":true,""osname"":""Windows"",""osversion"":""10"",""a"":true}","9:10:38","1","4","Test_2","70","f","1","420.2000000476837","1536 x 864","1347 x 832","true","1","10","","","","",""
"null","<p style=""font-size: 80px;"">+ 10 points</p>","null","html-keyboard-response","3","215557","0.0-11.0-2.2","611119b66c980fffcfea9e71","lsdx0m","SH","26","F","{""name"":""Chrome"",""chrome"":true,""version"":""106.0"",""blink"":true,""windows"":true,""osname"":""Windows"",""osversion"":""10"",""a"":true}","9:10:38","1","4","Test_1","74","j","1","755.1999999284744","1536 x 864","1347 x 832","true","1","10","","","","",""
"null","<p style=""font-size: 80px;"">+ 0 points</p>","null","html-keyboard-response","4","218046","0.0-11.0-2.3","611119b66c980fffcfea9e71","lsdx0m","SH","26","F","{""name"":""Chrome"",""chrome"":true,""version"":""106.0"",""blink"":true,""windows"":true,""osname"":""Windows"",""osversion"":""10"",""a"":true}","9:10:38","1","4","Test_3","70","j","0","454.60000002384186","1536 x 864","1347 x 832","true","1","0","","","","",""
"null","<p style=""font-size: 80px;"">+ 0 points</p>","null","html-keyboard-response","5","220911","0.0-11.0-2.4","611119b66c980fffcfea9e71","lsdx0m","SH","26","F","{""name"":""Chrome"",""chrome"":true,""version"":""106.0"",""blink"":true,""windows"":true,""osname"":""Windows"",""osversion"":""10"",""a"":true}","9:10:38","1","4","Test_1","70","j","0","844.8999999761581","1536 x 864","1347 x 832","true","1","0","","","","",""
"null","<p style=""font-size: 80px;"">+ 10 points</p>","null","html-keyboard-response","6","223606","0.0-11.0-2.5","611119b66c980fffcfea9e71","lsdx0m","SH","26","F","{""name"":""Chrome"",""chrome"":true,""version"":""106.0"",""blink"":true,""windows"":true,""osname"":""Windows"",""osversion"":""10"",""a"":true}","9:10:38","1","4","Test_1","74","j","1","676.6000000238419","1536 x 864","1347 x 832","true","1","10","","","","",""
"null","<p style=""font-size: 80px;"">+ 10 points</p>","null","html-keyboard-response","7","226846","0.0-11.0-2.6","611119b66c980fffcfea9e71","lsdx0m","SH","26","F","{""name"":""Chrome"",""chrome"":true,""version"":""106.0"",""blink"":true,""windows"":true,""osname"":""Windows"",""osversion"":""10"",""a"":true}","9:10:38","1","4","Test_4","70","f","1","1225.1000000238419","1536 x 864","1347 x 832","true","1","10","","","","",""
"null","<p style=""font-size: 80px;"">+ 10 points</p>","null","html-keyboard-response","8","229526","0.0-11.0-2.7","611119b66c980fffcfea9e71","lsdx0m","SH","26","F","{""name"":""Chrome"",""chrome"":true,""version"":""106.0"",""blink"":true,""windows"":true,""osname"":""Windows"",""osversion"":""10"",""a"":true}","9:10:38","1","4","Test_2","70","f","1","655.8999999761581","1536 x 864","1347 x 832","true","1","10","","","","",""
"null","<p style=""font-size: 80px;"">+ 10 points</p>","null","html-keyboard-response","9","232196","0.0-11.0-2.8","611119b66c980fffcfea9e71","lsdx0m","SH","26","F","{""name"":""Chrome"",""chrome"":true,""version"":""106.0"",""blink"":true,""windows"":true,""osname"":""Windows"",""osversion"":""10"",""a"":true}","9:10:38","1","4","Test_1","74","j","1","653.2000000476837","1536 x 864","1347 x 832","true","1","10","","","","",""
"null","<p style=""font-size: 80px;"">+ 10 points</p>","null","html-keyboard-response","10","234841","0.0-11.0-2.9","611119b66c980fffcfea9e71","lsdx0m","SH","26","F","{""name"":""Chrome"",""chrome"":true,""version"":""106.0"",""blink"":true,""windows"":true,""osname"":""Windows"",""osversion"":""10"",""a"":true}","9:10:38","1","4","Test_2","70","f","1","619.5","1536 x 864","1347 x 832","true","1","10","","","","",""
"null","<p style=""font-size: 80px;"">+ 10 points</p>","null","html-keyboard-response","11","237876","0.0-11.0-2.10","611119b66c980fffcfea9e71","lsdx0m","SH","26","F","{""name"":""Chrome"",""chrome"":true,""version"":""106.0"",""blink"":true,""windows"":true,""osname"":""Windows"",""osversion"":""10"",""a"":true}","9:10:38","1","4","Test_3","74","j","1","1000.5","1536 x 864","1347 x 832","true","1","10","","","","",""
"null","<p style=""font-size: 80px;"">+ 10 points</p>","null","html-keyboard-response","12","240442","0.0-11.0-2.11","611119b66c980fffcfea9e71","lsdx0m","SH","26","F","{""name"":""Chrome"",""chrome"":true,""version"":""106.0"",""blink"":true,""windows"":true,""osname"":""Windows"",""osversion"":""10"",""a"":true}","9:10:38","1","4","Test_4","70","f","1","535.6000000238419","1536 x 864","1347 x 832","true","1","10","","","","",""
"null","<p style=""font-size: 80px;"">+ 10 points</p>","null","html-keyboard-response","13","243262","0.0-11.0-2.12","611119b66c980fffcfea9e71","lsdx0m","SH","26","F","{""name"":""Chrome"",""chrome"":true,""version"":""106.0"",""blink"":true,""windows"":true,""osname"":""Windows"",""osversion"":""10"",""a"":true}","9:10:38","1","4","Test_4","70","f","1","809.6000000238419","1536 x 864","1347 x 832","true","1","10","","","","",""
"null","<p style=""font-size: 80px;"">+ 0 points</p>","null","html-keyboard-response","14","246190","0.0-11.0-2.13","611119b66c980fffcfea9e71","lsdx0m","SH","26","F","{""name"":""Chrome"",""chrome"":true,""version"":""106.0"",""blink"":true,""windows"":true,""osname"":""Windows"",""osversion"":""10"",""a"":true}","9:10:38","1","4","Test_4","74","f","0","906.8999999761581","1536 x 864","1347 x 832","true","1","0","","","","",""
"null","<p style=""font-size: 80px;"">+ 10 points</p>","null","html-keyboard-response","15","248977","0.0-11.0-2.14","611119b66c980fffcfea9e71","lsdx0m","SH","26","F","{""name"":""Chrome"",""chrome"":true,""version"":""106.0"",""blink"":true,""windows"":true,""osname"":""Windows"",""osversion"":""10"",""a"":true}","9:10:38","1","4","Test_1","74","j","1","765.7999999523163","1536 x 864","1347 x 832","true","1","10","","","","",""
"null","<p style=""font-size: 80px;"">+ 10 points</p>","null","html-keyboard-response","16","252066","0.0-11.0-2.15","611119b66c980fffcfea9e71","lsdx0m","SH","26","F","{""name"":""Chrome"",""chrome"":true,""version"":""106.0"",""blink"":true,""windows"":true,""osname"":""Windows"",""osversion"":""10"",""a"":true}","9:10:38","1","4","Test_3","74","j","1","1073.0999999046326","1536 x 864","1347 x 832","true","1","10","","","","",""
"null","<p style=""font-size: 80px;"">+ 10 points</p>","null","html-keyboard-response","17","254682","0.0-11.0-2.16","611119b66c980fffcfea9e71","lsdx0m","SH","26","F","{""name"":""Chrome"",""chrome"":true,""version"":""106.0"",""blink"":true,""windows"":true,""osname"":""Windows"",""osversion"":""10"",""a"":true}","9:10:38","1","4","Test_3","74","j","1","592.2000000476837","1536 x 864","1347 x 832","true","1","10","","","","",""
"null","<p style=""font-size: 80px;"">+ 10 points</p>","null","html-keyboard-response","18","257126","0.0-11.0-2.17","611119b66c980fffcfea9e71","lsdx0m","SH","26","F","{""name"":""Chrome"",""chrome"":true,""version"":""106.0"",""blink"":true,""windows"":true,""osname"":""Windows"",""osversion"":""10"",""a"":true}","9:10:38","1","3","Test_1","70","f","1","425.8000000715256","1536 x 864","1347 x 832","true","1","10","","","","",""
"null","<p style=""font-size: 80px;"">+ 10 points</p>","null","html-keyboard-response","19","260176","0.0-11.0-2.18","611119b66c980fffcfea9e71","lsdx0m","SH","26","F","{""name"":""Chrome"",""chrome"":true,""version"":""106.0"",""blink"":true,""windows"":true,""osname"":""Windows"",""osversion"":""10"",""a"":true}","9:10:38","1","3","Test_4","74","j","1","1038.8999999761581","1536 x 864","1347 x 832","true","1","10","","","","",""
"null","<p style=""font-size: 80px;"">+ 10 points</p>","null","html-keyboard-response","20","262803","0.0-11.0-2.19","611119b66c980fffcfea9e71","lsdx0m","SH","26","F","{""name"":""Chrome"",""chrome"":true,""version"":""106.0"",""blink"":true,""windows"":true,""osname"":""Windows"",""osversion"":""10"",""a"":true}","9:10:38","1","3","Test_4","74","j","1","614.3999999761581","1536 x 864","1347 x 832","true","1","10","","","","",""
"null","<p style=""font-size: 80px;"">+ 10 points</p>","null","html-keyboard-response","21","265533","0.0-11.0-2.20","611119b66c980fffcfea9e71","lsdx0m","SH","26","F","{""name"":""Chrome"",""chrome"":true,""version"":""106.0"",""blink"":true,""windows"":true,""osname"":""Windows"",""osversion"":""10"",""a"":true}","9:10:38","1","3","Test_3","70","f","1","708.5999999046326","1536 x 864","1347 x 832","true","1","10","","","","",""
"null","<p style=""font-size: 80px;"">+ 10 points</p>","null","html-keyboard-response","22","268666","0.0-11.0-2.21","611119b66c980fffcfea9e71","lsdx0m","SH","26","F","{""name"":""Chrome"",""chrome"":true,""version"":""106.0"",""blink"":true,""windows"":true,""osname"":""Windows"",""osversion"":""10"",""a"":true}","9:10:38","1","3","Test_1","70","f","1","1121.6000000238419","1536 x 864","1347 x 832","true","1","10","","","","",""
"null","<p style=""font-size: 80px;"">+ 0 points</p>","null","html-keyboard-response","23","271324","0.0-11.0-2.22","611119b66c980fffcfea9e71","lsdx0m","SH","26","F","{""name"":""Chrome"",""chrome"":true,""version"":""106.0"",""blink"":true,""windows"":true,""osname"":""Windows"",""osversion"":""10"",""a"":true}","9:10:38","1","3","Test_3","74","f","0","625.7000000476837","1536 x 864","1347 x 832","true","1","0","","","","",""
"null","<p style=""font-size: 80px;"">+ 10 points</p>","null","html-keyboard-response","24","274236","0.0-11.0-2.23","611119b66c980fffcfea9e71","lsdx0m","SH","26","F","{""name"":""Chrome"",""chrome"":true,""version"":""106.0"",""blink"":true,""windows"":true,""osname"":""Windows"",""osversion"":""10"",""a"":true}","9:10:38","1","3","Test_2","74","j","1","878.6999999284744","1536 x 864","1347 x 832","true","1","10","","","","",""
"null","<p style=""font-size: 80px;"">+ 10 points</p>","null","html-keyboard-response","25","277046","0.0-11.0-2.24","611119b66c980fffcfea9e71","lsdx0m","SH","26","F","{""name"":""Chrome"",""chrome"":true,""version"":""106.0"",""blink"":true,""windows"":true,""osname"":""Windows"",""osversion"":""10"",""a"":true}","9:10:38","1","3","Test_2","74","j","1","786.3999999761581","1536 x 864","1347 x 832","true","1","10","","","","",""
"null","<p style=""font-size: 80px;"">+ 10 points</p>","null","html-keyboard-response","26","279746","0.0-11.0-2.25","611119b66c980fffcfea9e71","lsdx0m","SH","26","F","{""name"":""Chrome"",""chrome"":true,""version"":""106.0"",""blink"":true,""windows"":true,""osname"":""Windows"",""osversion"":""10"",""a"":true}","9:10:38","1","3","Test_2","74","j","1","660.2000000476837","1536 x 864","1347 x 832","true","1","10","","","","",""
"null","<p style=""font-size: 80px;"">+ 10 points</p>","null","html-keyboard-response","27","282357","0.0-11.0-2.26","611119b66c980fffcfea9e71","lsdx0m","SH","26","F","{""name"":""Chrome"",""chrome"":true,""version"":""106.0"",""blink"":true,""windows"":true,""osname"":""Windows"",""osversion"":""10"",""a"":true}","9:10:38","1","3","Test_1","70","f","1","581.1000000238419","1536 x 864","1347 x 832","true","1","10","","","","",""
"null","<p style=""font-size: 80px;"">+ 10 points</p>","null","html-keyboard-response","28","285172","0.0-11.0-2.27","611119b66c980fffcfea9e71","lsdx0m","SH","26","F","{""name"":""Chrome"",""chrome"":true,""version"":""106.0"",""blink"":true,""windows"":true,""osname"":""Windows"",""osversion"":""10"",""a"":true}","9:10:38","1","3","Test_3","70","f","1","788.8999999761581","1536 x 864","1347 x 832","true","1","10","","","","",""
"null","<p style=""font-size: 80px;"">+ 10 points</p>","null","html-keyboard-response","29","288393","0.0-11.0-2.28","611119b66c980fffcfea9e71","lsdx0m","SH","26","F","{""name"":""Chrome"",""chrome"":true,""version"":""106.0"",""blink"":true,""windows"":true,""osname"":""Windows"",""osversion"":""10"",""a"":true}","9:10:38","1","3","Test_2","74","j","1","1212","1536 x 864","1347 x 832","true","1","10","","","","",""
"null","<p style=""font-size: 80px;"">+ 10 points</p>","null","html-keyboard-response","30","290922","0.0-11.0-2.29","611119b66c980fffcfea9e71","lsdx0m","SH","26","F","{""name"":""Chrome"",""chrome"":true,""version"":""106.0"",""blink"":true,""windows"":true,""osname"":""Windows"",""osversion"":""10"",""a"":true}","9:10:38","1","3","Test_1","70","f","1","497.7999999523163","1536 x 864","1347 x 832","true","1","10","","","","",""
"null","<p style=""font-size: 80px;"">+ 10 points</p>","null","html-keyboard-response","31","294241","0.0-11.0-2.30","611119b66c980fffcfea9e71","lsdx0m","SH","26","F","{""name"":""Chrome"",""chrome"":true,""version"":""106.0"",""blink"":true,""windows"":true,""osname"":""Windows"",""osversion"":""10"",""a"":true}","9:10:38","1","3","Test_4","74","j","1","1295.4000000953674","1536 x 864","1347 x 832","true","1","10","","","","",""
"null","<p style=""font-size: 80px;"">+ 10 points</p>","null","html-keyboard-response","32","296761","0.0-11.0-2.31","611119b66c980fffcfea9e71","lsdx0m","SH","26","F","{""name"":""Chrome"",""chrome"":true,""version"":""106.0"",""blink"":true,""windows"":true,""osname"":""Windows"",""osversion"":""10"",""a"":true}","9:10:38","1","3","Test_1","70","f","1","497.89999997615814","1536 x 864","1347 x 832","true","1","10","","","","",""
"null","<p style=""font-size: 80px;"">+ 10 points</p>","null","html-keyboard-response","33","299541","0.0-11.0-2.32","611119b66c980fffcfea9e71","lsdx0m","SH","26","F","{""name"":""Chrome"",""chrome"":true,""version"":""106.0"",""blink"":true,""windows"":true,""osname"":""Windows"",""osversion"":""10"",""a"":true}","9:10:38","1","3","Test_2","74","j","1","754.5","1536 x 864","1347 x 832","true","1","10","","","","",""
"null","<p style=""font-size: 80px;"">+ 10 points</p>","null","html-keyboard-response","34","302341","0.0-11.0-2.33","611119b66c980fffcfea9e71","lsdx0m","SH","26","F","{""name"":""Chrome"",""chrome"":true,""version"":""106.0"",""blink"":true,""windows"":true,""osname"":""Windows"",""osversion"":""10"",""a"":true}","9:10:38","1","3","Test_1","70","f","1","783","1536 x 864","1347 x 832","true","1","10","","","","",""
"null","<p style=""font-size: 80px;"">+ 10 points</p>","null","html-keyboard-response","35","305181","0.0-11.0-2.34","611119b66c980fffcfea9e71","lsdx0m","SH","26","F","{""name"":""Chrome"",""chrome"":true,""version"":""106.0"",""blink"":true,""windows"":true,""osname"":""Windows"",""osversion"":""10"",""a"":true}","9:10:38","1","3","Test_4","74","j","1","817.3999999761581","1536 x 864","1347 x 832","true","1","10","","","","",""
"null","<p style=""font-size: 80px;"">+ 10 points</p>","null","html-keyboard-response","36","307996","0.0-11.0-2.35","611119b66c980fffcfea9e71","lsdx0m","SH","26","F","{""name"":""Chrome"",""chrome"":true,""version"":""106.0"",""blink"":true,""windows"":true,""osname"":""Windows"",""osversion"":""10"",""a"":true}","9:10:38","1","3","Test_3","70","f","1","797.7999999523163","1536 x 864","1347 x 832","true","1","10","","","","",""
"null","<p style=""font-size: 80px;"">+ 10 points</p>","null","html-keyboard-response","37","311001","0.0-11.0-2.36","611119b66c980fffcfea9e71","lsdx0m","SH","26","F","{""name"":""Chrome"",""chrome"":true,""version"":""106.0"",""blink"":true,""windows"":true,""osname"":""Windows"",""osversion"":""10"",""a"":true}","9:10:38","1","3","Test_2","74","j","1","979.2999999523163","1536 x 864","1347 x 832","true","1","10","","","","",""
"null","<p style=""font-size: 80px;"">+ 10 points</p>","null","html-keyboard-response","38","313711","0.0-11.0-2.37","611119b66c980fffcfea9e71","lsdx0m","SH","26","F","{""name"":""Chrome"",""chrome"":true,""version"":""106.0"",""blink"":true,""windows"":true,""osname"":""Windows"",""osversion"":""10"",""a"":true}","9:10:38","1","3","Test_3","70","f","1","699.5","1536 x 864","1347 x 832","true","1","10","","","","",""
"null","<p style=""font-size: 80px;"">+ 10 points</p>","null","html-keyboard-response","39","316436","0.0-11.0-2.38","611119b66c980fffcfea9e71","lsdx0m","SH","26","F","{""name"":""Chrome"",""chrome"":true,""version"":""106.0"",""blink"":true,""windows"":true,""osname"":""Windows"",""osversion"":""10"",""a"":true}","9:10:38","1","3","Test_4","74","j","1","698.1000000238419","1536 x 864","1347 x 832","true","1","10","","","","",""
"null","<p style=""font-size: 80px;"">+ 10 points</p>","null","html-keyboard-response","40","319131","0.0-11.0-2.39","611119b66c980fffcfea9e71","lsdx0m","SH","26","F","{""name"":""Chrome"",""chrome"":true,""version"":""106.0"",""blink"":true,""windows"":true,""osname"":""Windows"",""osversion"":""10"",""a"":true}","9:10:38","1","3","Test_3","70","f","1","675.8999999761581","1536 x 864","1347 x 832","true","1","10","","","","",""
"null","<p style=""font-size: 80px;"">+ 0 points</p>","null","html-keyboard-response","41","321656","0.0-11.0-2.40","611119b66c980fffcfea9e71","lsdx0m","SH","26","F","{""name"":""Chrome"",""chrome"":true,""version"":""106.0"",""blink"":true,""windows"":true,""osname"":""Windows"",""osversion"":""10"",""a"":true}","9:10:38","1","4","Test_3","70","j","0","507.40000009536743","1536 x 864","1347 x 832","true","1","0","","","","",""
"null","<p style=""font-size: 80px;"">+ 10 points</p>","null","html-keyboard-response","42","325966","0.0-11.0-2.41","611119b66c980fffcfea9e71","lsdx0m","SH","26","F","{""name"":""Chrome"",""chrome"":true,""version"":""106.0"",""blink"":true,""windows"":true,""osname"":""Windows"",""osversion"":""10"",""a"":true}","9:10:38","1","4","Test_1","74","j","1","2288.600000023842","1536 x 864","1347 x 832","true","1","10","","","","",""
"null","<p style=""font-size: 80px;"">+ 10 points</p>","null","html-keyboard-response","43","328682","0.0-11.0-2.42","611119b66c980fffcfea9e71","lsdx0m","SH","26","F","{""name"":""Chrome"",""chrome"":true,""version"":""106.0"",""blink"":true,""windows"":true,""osname"":""Windows"",""osversion"":""10"",""a"":true}","9:10:38","1","4","Test_4","70","f","1","693.7000000476837","1536 x 864","1347 x 832","true","1","10","","","","",""
"null","<p style=""font-size: 80px;"">+ 10 points</p>","null","html-keyboard-response","44","331652","0.0-11.0-2.43","611119b66c980fffcfea9e71","lsdx0m","SH","26","F","{""name"":""Chrome"",""chrome"":true,""version"":""106.0"",""blink"":true,""windows"":true,""osname"":""Windows"",""osversion"":""10"",""a"":true}","9:10:38","1","4","Test_2","70","f","1","949.5999999046326","1536 x 864","1347 x 832","true","1","10","","","","",""
"null","<p style=""font-size: 80px;"">+ 10 points</p>","null","html-keyboard-response","45","334386","0.0-11.0-2.44","611119b66c980fffcfea9e71","lsdx0m","SH","26","F","{""name"":""Chrome"",""chrome"":true,""version"":""106.0"",""blink"":true,""windows"":true,""osname"":""Windows"",""osversion"":""10"",""a"":true}","9:10:38","1","4","Test_3","74","j","1","719.3999999761581","1536 x 864","1347 x 832","true","1","10","","","","",""
"null","<p style=""font-size: 80px;"">+ 10 points</p>","null","html-keyboard-response","46","337122","0.0-11.0-2.45","611119b66c980fffcfea9e71","lsdx0m","SH","26","F","{""name"":""Chrome"",""chrome"":true,""version"":""106.0"",""blink"":true,""windows"":true,""osname"":""Windows"",""osversion"":""10"",""a"":true}","9:10:38","1","4","Test_1","74","j","1","707.1000000238419","1536 x 864","1347 x 832","true","1","10","","","","",""
"null","<p style=""font-size: 80px;"">+ 10 points</p>","null","html-keyboard-response","47","339801","0.0-11.0-2.46","611119b66c980fffcfea9e71","lsdx0m","SH","26","F","{""name"":""Chrome"",""chrome"":true,""version"":""106.0"",""blink"":true,""windows"":true,""osname"":""Windows"",""osversion"":""10"",""a"":true}","9:10:38","1","4","Test_4","70","f","1","649.8999999761581","1536 x 864","1347 x 832","true","1","10","","","","",""
"null","<p style=""font-size: 80px;"">+ 10 points</p>","null","html-keyboard-response","48","342346","0.0-11.0-2.47","611119b66c980fffcfea9e71","lsdx0m","SH","26","F","{""name"":""Chrome"",""chrome"":true,""version"":""106.0"",""blink"":true,""windows"":true,""osname"":""Windows"",""osversion"":""10"",""a"":true}","9:10:38","1","4","Test_2","70","f","1","529.7000000476837","1536 x 864","1347 x 832","true","1","10","","","","",""
"null","<p style=""font-size: 80px;"">+ 10 points</p>","null","html-keyboard-response","49","344936","0.0-11.0-2.48","611119b66c980fffcfea9e71","lsdx0m","SH","26","F","{""name"":""Chrome"",""chrome"":true,""version"":""106.0"",""blink"":true,""windows"":true,""osname"":""Windows"",""osversion"":""10"",""a"":true}","9:10:38","1","4","Test_3","74","j","1","573.1000000238419","1536 x 864","1347 x 832","true","1","10","","","","",""
"null","<p style=""font-size: 80px;"">+ 10 points</p>","null","html-keyboard-response","50","347507","0.0-11.0-2.49","611119b66c980fffcfea9e71","lsdx0m","SH","26","F","{""name"":""Chrome"",""chrome"":true,""version"":""106.0"",""blink"":true,""windows"":true,""osname"":""Windows"",""osversion"":""10"",""a"":true}","9:10:38","1","4","Test_2","70","f","1","554.2999999523163","1536 x 864","1347 x 832","true","1","10","","","","",""
"null","<p style=""font-size: 80px;"">+ 10 points</p>","null","html-keyboard-response","51","350890","0.0-11.0-2.50","611119b66c980fffcfea9e71","lsdx0m","SH","26","F","{""name"":""Chrome"",""chrome"":true,""version"":""106.0"",""blink"":true,""windows"":true,""osname"":""Windows"",""osversion"":""10"",""a"":true}","9:10:38","1","4","Test_1","74","j","1","1362.1000000238419","1536 x 864","1347 x 832","true","1","10","","","","",""
"null","<p style=""font-size: 80px;"">+ 10 points</p>","null","html-keyboard-response","52","353406","0.0-11.0-2.51","611119b66c980fffcfea9e71","lsdx0m","SH","26","F","{""name"":""Chrome"",""chrome"":true,""version"":""106.0"",""blink"":true,""windows"":true,""osname"":""Windows"",""osversion"":""10"",""a"":true}","9:10:38","1","4","Test_4","70","f","1","489.10000002384186","1536 x 864","1347 x 832","true","1","10","","","","",""
"null","<p style=""font-size: 80px;"">+ 10 points</p>","null","html-keyboard-response","53","356117","0.0-11.0-2.52","611119b66c980fffcfea9e71","lsdx0m","SH","26","F","{""name"":""Chrome"",""chrome"":true,""version"":""106.0"",""blink"":true,""windows"":true,""osname"":""Windows"",""osversion"":""10"",""a"":true}","9:10:38","1","4","Test_3","74","j","1","683.7000000476837","1536 x 864","1347 x 832","true","1","10","","","","",""
"null","<p style=""font-size: 80px;"">+ 10 points</p>","null","html-keyboard-response","54","359392","0.0-11.0-2.53","611119b66c980fffcfea9e71","lsdx0m","SH","26","F","{""name"":""Chrome"",""chrome"":true,""version"":""106.0"",""blink"":true,""windows"":true,""osname"":""Windows"",""osversion"":""10"",""a"":true}","9:10:38","1","4","Test_1","74","j","1","1250.5","1536 x 864","1347 x 832","true","1","10","","","","",""
"null","<p style=""font-size: 80px;"">+ 10 points</p>","null","html-keyboard-response","55","362171","0.0-11.0-2.54","611119b66c980fffcfea9e71","lsdx0m","SH","26","F","{""name"":""Chrome"",""chrome"":true,""version"":""106.0"",""blink"":true,""windows"":true,""osname"":""Windows"",""osversion"":""10"",""a"":true}","9:10:38","1","4","Test_2","70","f","1","774.6999999284744","1536 x 864","1347 x 832","true","1","10","","","","",""
"null","<p style=""font-size: 80px;"">+ 10 points</p>","null","html-keyboard-response","56","365121","0.0-11.0-2.55","611119b66c980fffcfea9e71","lsdx0m","SH","26","F","{""name"":""Chrome"",""chrome"":true,""version"":""106.0"",""blink"":true,""windows"":true,""osname"":""Windows"",""osversion"":""10"",""a"":true}","9:10:38","1","4","Test_4","70","f","1","929.2999999523163","1536 x 864","1347 x 832","true","1","10","","","","",""
"null","<p style=""font-size: 80px;"">+ 10 points</p>","null","html-keyboard-response","57","367691","0.0-11.0-2.56","611119b66c980fffcfea9e71","lsdx0m","SH","26","F","{""name"":""Chrome"",""chrome"":true,""version"":""106.0"",""blink"":true,""windows"":true,""osname"":""Windows"",""osversion"":""10"",""a"":true}","9:10:38","1","4","Test_3","74","j","1","551.1000000238419","1536 x 864","1347 x 832","true","1","10","","","","",""
"null","<p style=""font-size: 80px;"">+ 10 points</p>","null","html-keyboard-response","58","370737","0.0-11.0-2.57","611119b66c980fffcfea9e71","lsdx0m","SH","26","F","{""name"":""Chrome"",""chrome"":true,""version"":""106.0"",""blink"":true,""windows"":true,""osname"":""Windows"",""osversion"":""10"",""a"":true}","9:10:38","1","4","Test_1","74","j","1","1013.6000000238419","1536 x 864","1347 x 832","true","1","10","","","","",""
"null","<p style=""font-size: 80px;"">+ 0 points</p>","null","html-keyboard-response","59","373584","0.0-11.0-2.58","611119b66c980fffcfea9e71","lsdx0m","SH","26","F","{""name"":""Chrome"",""chrome"":true,""version"":""106.0"",""blink"":true,""windows"":true,""osname"":""Windows"",""osversion"":""10"",""a"":true}","9:10:38","1","3","Test_1","74","f","0","815.8999999761581","1536 x 864","1347 x 832","true","1","0","","","","",""
"null","<p style=""font-size: 80px;"">+ 10 points</p>","null","html-keyboard-response","60","376471","0.0-11.0-2.59","611119b66c980fffcfea9e71","lsdx0m","SH","26","F","{""name"":""Chrome"",""chrome"":true,""version"":""106.0"",""blink"":true,""windows"":true,""osname"":""Windows"",""osversion"":""10"",""a"":true}","9:10:38","1","3","Test_3","70","f","1","856.1000000238419","1536 x 864","1347 x 832","true","1","10","","","","",""
"null","<p style=""font-size: 80px;"">+ 10 points</p>","null","html-keyboard-response","61","379740","0.0-11.0-2.60","611119b66c980fffcfea9e71","lsdx0m","SH","26","F","{""name"":""Chrome"",""chrome"":true,""version"":""106.0"",""blink"":true,""windows"":true,""osname"":""Windows"",""osversion"":""10"",""a"":true}","9:10:38","1","3","Test_3","70","f","1","1248","1536 x 864","1347 x 832","true","1","10","","","","",""
"null","<p style=""font-size: 80px;"">+ 10 points</p>","null","html-keyboard-response","62","382526","0.0-11.0-2.61","611119b66c980fffcfea9e71","lsdx0m","SH","26","F","{""name"":""Chrome"",""chrome"":true,""version"":""106.0"",""blink"":true,""windows"":true,""osname"":""Windows"",""osversion"":""10"",""a"":true}","9:10:38","1","3","Test_4","74","j","1","774.2999999523163","1536 x 864","1347 x 832","true","1","10","","","","",""
"null","<p style=""font-size: 80px;"">+ 10 points</p>","null","html-keyboard-response","63","385405","0.0-11.0-2.62","611119b66c980fffcfea9e71","lsdx0m","SH","26","F","{""name"":""Chrome"",""chrome"":true,""version"":""106.0"",""blink"":true,""windows"":true,""osname"":""Windows"",""osversion"":""10"",""a"":true}","9:10:38","1","3","Test_3","70","f","1","846","1536 x 864","1347 x 832","true","1","10","","","","",""
"null","<p style=""font-size: 80px;"">+ 0 points</p>","null","html-keyboard-response","64","388386","0.0-11.0-2.63","611119b66c980fffcfea9e71","lsdx0m","SH","26","F","{""name"":""Chrome"",""chrome"":true,""version"":""106.0"",""blink"":true,""windows"":true,""osname"":""Windows"",""osversion"":""10"",""a"":true}","9:10:38","1","3","Test_1","74","f","0","952.2000000476837","1536 x 864","1347 x 832","true","1","0","","","","",""
"null","<p style=""font-size: 80px;"">+ 10 points</p>","null","html-keyboard-response","65","391216","0.0-11.0-2.64","611119b66c980fffcfea9e71","lsdx0m","SH","26","F","{""name"":""Chrome"",""chrome"":true,""version"":""106.0"",""blink"":true,""windows"":true,""osname"":""Windows"",""osversion"":""10"",""a"":true}","9:10:38","1","3","Test_2","74","j","1","806","1536 x 864","1347 x 832","true","1","10","","","","",""
"null","<p style=""font-size: 80px;"">+ 10 points</p>","null","html-keyboard-response","66","393766","0.0-11.0-2.65","611119b66c980fffcfea9e71","lsdx0m","SH","26","F","{""name"":""Chrome"",""chrome"":true,""version"":""106.0"",""blink"":true,""windows"":true,""osname"":""Windows"",""osversion"":""10"",""a"":true}","9:10:38","1","3","Test_1","70","f","1","521","1536 x 864","1347 x 832","true","1","10","","","","",""
"null","<p style=""font-size: 80px;"">+ 10 points</p>","null","html-keyboard-response","67","396916","0.0-11.0-2.66","611119b66c980fffcfea9e71","lsdx0m","SH","26","F","{""name"":""Chrome"",""chrome"":true,""version"":""106.0"",""blink"":true,""windows"":true,""osname"":""Windows"",""osversion"":""10"",""a"":true}","9:10:38","1","3","Test_3","70","f","1","1127.6000000238419","1536 x 864","1347 x 832","true","1","10","","","","",""
"null","<p style=""font-size: 80px;"">+ 10 points</p>","null","html-keyboard-response","68","399605","0.0-11.0-2.67","611119b66c980fffcfea9e71","lsdx0m","SH","26","F","{""name"":""Chrome"",""chrome"":true,""version"":""106.0"",""blink"":true,""windows"":true,""osname"":""Windows"",""osversion"":""10"",""a"":true}","9:10:38","1","3","Test_4","74","j","1","660.6999999284744","1536 x 864","1347 x 832","true","1","10","","","","",""
"null","<p style=""font-size: 80px;"">+ 10 points</p>","null","html-keyboard-response","69","403142","0.0-11.0-2.68","611119b66c980fffcfea9e71","lsdx0m","SH","26","F","{""name"":""Chrome"",""chrome"":true,""version"":""106.0"",""blink"":true,""windows"":true,""osname"":""Windows"",""osversion"":""10"",""a"":true}","9:10:38","1","3","Test_2","74","j","1","1524.4000000953674","1536 x 864","1347 x 832","true","1","10","","","","",""
"null","<p style=""font-size: 80px;"">+ 10 points</p>","null","html-keyboard-response","70","406205","0.0-11.0-2.69","611119b66c980fffcfea9e71","lsdx0m","SH","26","F","{""name"":""Chrome"",""chrome"":true,""version"":""106.0"",""blink"":true,""windows"":true,""osname"":""Windows"",""osversion"":""10"",""a"":true}","9:10:38","1","3","Test_1","70","f","1","1038.8999999761581","1536 x 864","1347 x 832","true","1","10","","","","",""
"null","<p style=""font-size: 80px;"">+ 10 points</p>","null","html-keyboard-response","71","408866","0.0-11.0-2.70","611119b66c980fffcfea9e71","lsdx0m","SH","26","F","{""name"":""Chrome"",""chrome"":true,""version"":""106.0"",""blink"":true,""windows"":true,""osname"":""Windows"",""osversion"":""10"",""a"":true}","9:10:38","1","3","Test_3","70","f","1","648.5","1536 x 864","1347 x 832","true","1","10","","","","",""
"null","<p style=""font-size: 80px;"">+ 10 points</p>","null","html-keyboard-response","72","411556","0.0-11.0-2.71","611119b66c980fffcfea9e71","lsdx0m","SH","26","F","{""name"":""Chrome"",""chrome"":true,""version"":""106.0"",""blink"":true,""windows"":true,""osname"":""Windows"",""osversion"":""10"",""a"":true}","9:10:38","1","3","Test_2","74","j","1","658.8999999761581","1536 x 864","1347 x 832","true","1","10","","","","",""
"null","<p style=""font-size: 80px;"">+ 10 points</p>","null","html-keyboard-response","73","414136","0.0-11.0-2.72","611119b66c980fffcfea9e71","lsdx0m","SH","26","F","{""name"":""Chrome"",""chrome"":true,""version"":""106.0"",""blink"":true,""windows"":true,""osname"":""Windows"",""osversion"":""10"",""a"":true}","9:10:38","1","3","Test_2","74","j","1","542.1999999284744","1536 x 864","1347 x 832","true","1","10","","","","",""
"null","<p style=""font-size: 80px;"">+ 10 points</p>","null","html-keyboard-response","74","417033","0.0-11.0-2.73","611119b66c980fffcfea9e71","lsdx0m","SH","26","F","{""name"":""Chrome"",""chrome"":true,""version"":""106.0"",""blink"":true,""windows"":true,""osname"":""Windows"",""osversion"":""10"",""a"":true}","9:10:38","1","3","Test_4","74","j","1","873.3999999761581","1536 x 864","1347 x 832","true","1","10","","","","",""
"null","<p style=""font-size: 80px;"">+ 10 points</p>","null","html-keyboard-response","75","419666","0.0-11.0-2.74","611119b66c980fffcfea9e71","lsdx0m","SH","26","F","{""name"":""Chrome"",""chrome"":true,""version"":""106.0"",""blink"":true,""windows"":true,""osname"":""Windows"",""osversion"":""10"",""a"":true}","9:10:38","1","3","Test_4","74","j","1","608.3999999761581","1536 x 864","1347 x 832","true","1","10","","","","",""
"null","<p style=""font-size: 80px;"">+ 10 points</p>","null","html-keyboard-response","76","422197","0.0-11.0-2.75","611119b66c980fffcfea9e71","lsdx0m","SH","26","F","{""name"":""Chrome"",""chrome"":true,""version"":""106.0"",""blink"":true,""windows"":true,""osname"":""Windows"",""osversion"":""10"",""a"":true}","9:10:38","1","3","Test_4","74","j","1","515.5","1536 x 864","1347 x 832","true","1","10","","","","",""
"null","<p style=""font-size: 80px;"">+ 10 points</p>","null","html-keyboard-response","77","424836","0.0-11.0-2.76","611119b66c980fffcfea9e71","lsdx0m","SH","26","F","{""name"":""Chrome"",""chrome"":true,""version"":""106.0"",""blink"":true,""windows"":true,""osname"":""Windows"",""osversion"":""10"",""a"":true}","9:10:38","1","3","Test_3","70","f","1","616.8999999761581","1536 x 864","1347 x 832","true","1","10","","","","",""
"null","<p style=""font-size: 80px;"">+ 10 points</p>","null","html-keyboard-response","78","427613","0.0-11.0-2.77","611119b66c980fffcfea9e71","lsdx0m","SH","26","F","{""name"":""Chrome"",""chrome"":true,""version"":""106.0"",""blink"":true,""windows"":true,""osname"":""Windows"",""osversion"":""10"",""a"":true}","9:10:38","1","3","Test_4","74","j","1","759.1000000238419","1536 x 864","1347 x 832","true","1","10","","","","",""
"null","<p style=""font-size: 80px;"">+ 10 points</p>","null","html-keyboard-response","79","430318","0.0-11.0-2.78","611119b66c980fffcfea9e71","lsdx0m","SH","26","F","{""name"":""Chrome"",""chrome"":true,""version"":""106.0"",""blink"":true,""windows"":true,""osname"":""Windows"",""osversion"":""10"",""a"":true}","9:10:38","1","3","Test_1","70","f","1","686.6000000238419","1536 x 864","1347 x 832","true","1","10","","","","",""
"null","<p style=""font-size: 80px;"">+ 10 points</p>","null","html-keyboard-response","80","432983","0.0-11.0-2.79","611119b66c980fffcfea9e71","lsdx0m","SH","26","F","{""name"":""Chrome"",""chrome"":true,""version"":""106.0"",""blink"":true,""windows"":true,""osname"":""Windows"",""osversion"":""10"",""a"":true}","9:10:38","1","3","Test_2","74","j","1","643.6999999284744","1536 x 864","1347 x 832","true","1","10","","","","",""
"null","<p style=""font-size: 80px;"">+ 10 points</p>","null","html-keyboard-response","81","435653","0.0-11.0-2.80","611119b66c980fffcfea9e71","lsdx0m","SH","26","F","{""name"":""Chrome"",""chrome"":true,""version"":""106.0"",""blink"":true,""windows"":true,""osname"":""Windows"",""osversion"":""10"",""a"":true}","9:10:38","1","3","Test_2","74","j","1","648.2000000476837","1536 x 864","1347 x 832","true","1","10","","","","",""
"null","<p style=""font-size: 80px;"">+ 10 points</p>","null","html-keyboard-response","82","438198","0.0-11.0-2.81","611119b66c980fffcfea9e71","lsdx0m","SH","26","F","{""name"":""Chrome"",""chrome"":true,""version"":""106.0"",""blink"":true,""windows"":true,""osname"":""Windows"",""osversion"":""10"",""a"":true}","9:10:38","1","3","Test_1","70","f","1","529.6000000238419","1536 x 864","1347 x 832","true","1","10","","","","",""
"null","<p style=""font-size: 80px;"">+ 10 points</p>","null","html-keyboard-response","83","440641","0.0-11.0-2.82","611119b66c980fffcfea9e71","lsdx0m","SH","26","F","{""name"":""Chrome"",""chrome"":true,""version"":""106.0"",""blink"":true,""windows"":true,""osname"":""Windows"",""osversion"":""10"",""a"":true}","9:10:38","1","4","Test_1","74","j","1","425.5","1536 x 864","1347 x 832","true","1","10","","","","",""
"null","<p style=""font-size: 80px;"">+ 10 points</p>","null","html-keyboard-response","84","443943","0.0-11.0-2.83","611119b66c980fffcfea9e71","lsdx0m","SH","26","F","{""name"":""Chrome"",""chrome"":true,""version"":""106.0"",""blink"":true,""windows"":true,""osname"":""Windows"",""osversion"":""10"",""a"":true}","9:10:38","1","4","Test_3","74","j","1","1285.5","1536 x 864","1347 x 832","true","1","10","","","","",""
"null","<p style=""font-size: 80px;"">+ 10 points</p>","null","html-keyboard-response","85","447378","0.0-11.0-2.84","611119b66c980fffcfea9e71","lsdx0m","SH","26","F","{""name"":""Chrome"",""chrome"":true,""version"":""106.0"",""blink"":true,""windows"":true,""osname"":""Windows"",""osversion"":""10"",""a"":true}","9:10:38","1","4","Test_1","74","j","1","1426.3000000715256","1536 x 864","1347 x 832","true","1","10","","","","",""
"null","<p style=""font-size: 80px;"">+ 0 points</p>","null","html-keyboard-response","86","450378","0.0-11.0-2.85","611119b66c980fffcfea9e71","lsdx0m","SH","26","F","{""name"":""Chrome"",""chrome"":true,""version"":""106.0"",""blink"":true,""windows"":true,""osname"":""Windows"",""osversion"":""10"",""a"":true}","9:10:38","1","4","Test_3","70","j","0","985.5","1536 x 864","1347 x 832","true","1","0","","","","",""
"null","<p style=""font-size: 80px;"">+ 0 points</p>","null","html-keyboard-response","87","453148","0.0-11.0-2.86","611119b66c980fffcfea9e71","lsdx0m","SH","26","F","{""name"":""Chrome"",""chrome"":true,""version"":""106.0"",""blink"":true,""windows"":true,""osname"":""Windows"",""osversion"":""10"",""a"":true}","9:10:38","1","4","Test_2","74","f","0","746.2999999523163","1536 x 864","1347 x 832","true","1","0","","","","",""
"null","<p style=""font-size: 80px;"">+ 10 points</p>","null","html-keyboard-response","88","456442","0.0-11.0-2.87","611119b66c980fffcfea9e71","lsdx0m","SH","26","F","{""name"":""Chrome"",""chrome"":true,""version"":""106.0"",""blink"":true,""windows"":true,""osname"":""Windows"",""osversion"":""10"",""a"":true}","9:10:38","1","4","Test_4","70","f","1","1280","1536 x 864","1347 x 832","true","1","10","","","","",""
"null","<p style=""font-size: 80px;"">+ 10 points</p>","null","html-keyboard-response","89","459162","0.0-11.0-2.88","611119b66c980fffcfea9e71","lsdx0m","SH","26","F","{""name"":""Chrome"",""chrome"":true,""version"":""106.0"",""blink"":true,""windows"":true,""osname"":""Windows"",""osversion"":""10"",""a"":true}","9:10:38","1","4","Test_2","70","f","1","717.1999999284744","1536 x 864","1347 x 832","true","1","10","","","","",""
"null","<p style=""font-size: 80px;"">+ 10 points</p>","null","html-keyboard-response","90","461950","0.0-11.0-2.89","611119b66c980fffcfea9e71","lsdx0m","SH","26","F","{""name"":""Chrome"",""chrome"":true,""version"":""106.0"",""blink"":true,""windows"":true,""osname"":""Windows"",""osversion"":""10"",""a"":true}","9:10:38","1","4","Test_4","70","f","1","748.8000000715256","1536 x 864","1347 x 832","true","1","10","","","","",""
"null","<p style=""font-size: 80px;"">+ 10 points</p>","null","html-keyboard-response","91","464859","0.0-11.0-2.90","611119b66c980fffcfea9e71","lsdx0m","SH","26","F","{""name"":""Chrome"",""chrome"":true,""version"":""106.0"",""blink"":true,""windows"":true,""osname"":""Windows"",""osversion"":""10"",""a"":true}","9:10:38","1","4","Test_1","74","j","1","885.6000000238419","1536 x 864","1347 x 832","true","1","10","","","","",""
"null","<p style=""font-size: 80px;"">+ 10 points</p>","null","html-keyboard-response","92","467713","0.0-11.0-2.91","611119b66c980fffcfea9e71","lsdx0m","SH","26","F","{""name"":""Chrome"",""chrome"":true,""version"":""106.0"",""blink"":true,""windows"":true,""osname"":""Windows"",""osversion"":""10"",""a"":true}","9:10:38","1","4","Test_4","70","f","1","821.2000000476837","1536 x 864","1347 x 832","true","1","10","","","","",""
"null","<p style=""font-size: 80px;"">+ 10 points</p>","null","html-keyboard-response","93","471038","0.0-11.0-2.92","611119b66c980fffcfea9e71","lsdx0m","SH","26","F","{""name"":""Chrome"",""chrome"":true,""version"":""106.0"",""blink"":true,""windows"":true,""osname"":""Windows"",""osversion"":""10"",""a"":true}","9:10:38","1","4","Test_2","70","f","1","1305.2999999523163","1536 x 864","1347 x 832","true","1","10","","","","",""
"null","<p style=""font-size: 80px;"">+ 10 points</p>","null","html-keyboard-response","94","474013","0.0-11.0-2.93","611119b66c980fffcfea9e71","lsdx0m","SH","26","F","{""name"":""Chrome"",""chrome"":true,""version"":""106.0"",""blink"":true,""windows"":true,""osname"":""Windows"",""osversion"":""10"",""a"":true}","9:10:38","1","4","Test_1","74","j","1","950.3999999761581","1536 x 864","1347 x 832","true","1","10","","","","",""
"null","<p style=""font-size: 80px;"">+ 10 points</p>","null","html-keyboard-response","95","476818","0.0-11.0-2.94","611119b66c980fffcfea9e71","lsdx0m","SH","26","F","{""name"":""Chrome"",""chrome"":true,""version"":""106.0"",""blink"":true,""windows"":true,""osname"":""Windows"",""osversion"":""10"",""a"":true}","9:10:38","1","4","Test_2","70","f","1","775.6000000238419","1536 x 864","1347 x 832","true","1","10","","","","",""
"null","<p style=""font-size: 80px;"">+ 10 points</p>","null","html-keyboard-response","96","479888","0.0-11.0-2.95","611119b66c980fffcfea9e71","lsdx0m","SH","26","F","{""name"":""Chrome"",""chrome"":true,""version"":""106.0"",""blink"":true,""windows"":true,""osname"":""Windows"",""osversion"":""10"",""a"":true}","9:10:38","1","4","Test_3","74","j","1","1046.3999999761581","1536 x 864","1347 x 832","true","1","10","","","","",""
"null","<p style=""font-size: 80px;"">+ 10 points</p>","null","html-keyboard-response","97","482481","0.0-11.0-2.96","611119b66c980fffcfea9e71","lsdx0m","SH","26","F","{""name"":""Chrome"",""chrome"":true,""version"":""106.0"",""blink"":true,""windows"":true,""osname"":""Windows"",""osversion"":""10"",""a"":true}","9:10:38","1","4","Test_3","74","j","1","573.5999999046326","1536 x 864","1347 x 832","true","1","10","","","","",""
"null","<p style=""font-size: 80px;"">+ 10 points</p>","null","html-keyboard-response","98","485208","0.0-11.0-2.97","611119b66c980fffcfea9e71","lsdx0m","SH","26","F","{""name"":""Chrome"",""chrome"":true,""version"":""106.0"",""blink"":true,""windows"":true,""osname"":""Windows"",""osversion"":""10"",""a"":true}","9:10:38","1","4","Test_4","70","f","1","720.1999999284744","1536 x 864","1347 x 832","true","1","10","","","","",""
"null","<p style=""font-size: 80px;"">+ 0 points</p>","null","html-keyboard-response","99","488371","0.0-11.0-2.98","611119b66c980fffcfea9e71","lsdx0m","SH","26","F","{""name"":""Chrome"",""chrome"":true,""version"":""106.0"",""blink"":true,""windows"":true,""osname"":""Windows"",""osversion"":""10"",""a"":true}","9:10:38","1","3","Test_2","70","j","0","1134.2999999523163","1536 x 864","1347 x 832","true","1","0","","","","",""
"null","<p style=""font-size: 80px;"">+ 0 points</p>","null","html-keyboard-response","100","491066","0.0-11.0-2.99","611119b66c980fffcfea9e71","lsdx0m","SH","26","F","{""name"":""Chrome"",""chrome"":true,""version"":""106.0"",""blink"":true,""windows"":true,""osname"":""Windows"",""osversion"":""10"",""a"":true}","9:10:38","1","3","Test_3","74","f","0","659.7000000476837","1536 x 864","1347 x 832","true","1","0","","","","",""
"null","<p style=""font-size: 80px;"">+ 0 points</p>","null","html-keyboard-response","101","493781","0.0-11.0-2.100","611119b66c980fffcfea9e71","lsdx0m","SH","26","F","{""name"":""Chrome"",""chrome"":true,""version"":""106.0"",""blink"":true,""windows"":true,""osname"":""Windows"",""osversion"":""10"",""a"":true}","9:10:38","1","3","Test_1","74","f","0","698.5","1536 x 864","1347 x 832","true","1","0","","","","",""
"null","<p style=""font-size: 80px;"">+ 10 points</p>","null","html-keyboard-response","102","496577","0.0-11.0-2.101","611119b66c980fffcfea9e71","lsdx0m","SH","26","F","{""name"":""Chrome"",""chrome"":true,""version"":""106.0"",""blink"":true,""windows"":true,""osname"":""Windows"",""osversion"":""10"",""a"":true}","9:10:38","1","3","Test_3","70","f","1","775.6000000238419","1536 x 864","1347 x 832","true","1","10","","","","",""
"null","<p style=""font-size: 80px;"">+ 10 points</p>","null","html-keyboard-response","103","500066","0.0-11.0-2.102","611119b66c980fffcfea9e71","lsdx0m","SH","26","F","{""name"":""Chrome"",""chrome"":true,""version"":""106.0"",""blink"":true,""windows"":true,""osname"":""Windows"",""osversion"":""10"",""a"":true}","9:10:38","1","3","Test_1","70","f","1","1462.6000000238419","1536 x 864","1347 x 832","true","1","10","","","","",""
"null","<p style=""font-size: 80px;"">+ 10 points</p>","null","html-keyboard-response","104","502676","0.0-11.0-2.103","611119b66c980fffcfea9e71","lsdx0m","SH","26","F","{""name"":""Chrome"",""chrome"":true,""version"":""106.0"",""blink"":true,""windows"":true,""osname"":""Windows"",""osversion"":""10"",""a"":true}","9:10:38","1","3","Test_4","74","j","1","598.1999999284744","1536 x 864","1347 x 832","true","1","10","","","","",""
"null","<p style=""font-size: 80px;"">+ 10 points</p>","null","html-keyboard-response","105","505486","0.0-11.0-2.104","611119b66c980fffcfea9e71","lsdx0m","SH","26","F","{""name"":""Chrome"",""chrome"":true,""version"":""106.0"",""blink"":true,""windows"":true,""osname"":""Windows"",""osversion"":""10"",""a"":true}","9:10:38","1","3","Test_4","74","j","1","792.1999999284744","1536 x 864","1347 x 832","true","1","10","","","","",""
"null","<p style=""font-size: 80px;"">+ 10 points</p>","null","html-keyboard-response","106","508706","0.0-11.0-2.105","611119b66c980fffcfea9e71","lsdx0m","SH","26","F","{""name"":""Chrome"",""chrome"":true,""version"":""106.0"",""blink"":true,""windows"":true,""osname"":""Windows"",""osversion"":""10"",""a"":true}","9:10:38","1","3","Test_2","74","j","1","1204.5","1536 x 864","1347 x 832","true","1","10","","","","",""
"null","<p style=""font-size: 80px;"">+ 10 points</p>","null","html-keyboard-response","107","511511","0.0-11.0-2.106","611119b66c980fffcfea9e71","lsdx0m","SH","26","F","{""name"":""Chrome"",""chrome"":true,""version"":""106.0"",""blink"":true,""windows"":true,""osname"":""Windows"",""osversion"":""10"",""a"":true}","9:10:38","1","3","Test_3","70","f","1","791","1536 x 864","1347 x 832","true","1","10","","","","",""
"null","<p style=""font-size: 80px;"">+ 0 points</p>","null","html-keyboard-response","108","514916","0.0-11.0-2.107","611119b66c980fffcfea9e71","lsdx0m","SH","26","F","{""name"":""Chrome"",""chrome"":true,""version"":""106.0"",""blink"":true,""windows"":true,""osname"":""Windows"",""osversion"":""10"",""a"":true}","9:10:38","1","3","Test_3","74","f","0","1382.8999999761581","1536 x 864","1347 x 832","true","1","0","","","","",""
"null","<p style=""font-size: 80px;"">+ 10 points</p>","null","html-keyboard-response","109","517529","0.0-11.0-2.108","611119b66c980fffcfea9e71","lsdx0m","SH","26","F","{""name"":""Chrome"",""chrome"":true,""version"":""106.0"",""blink"":true,""windows"":true,""osname"":""Windows"",""osversion"":""10"",""a"":true}","9:10:38","1","3","Test_3","70","f","1","588.1999999284744","1536 x 864","1347 x 832","true","1","10","","","","",""
"null","<p style=""font-size: 80px;"">+ 0 points</p>","null","html-keyboard-response","110","534810","0.0-11.0-2.109","611119b66c980fffcfea9e71","lsdx0m","SH","26","F","{""name"":""Chrome"",""chrome"":true,""version"":""106.0"",""blink"":true,""windows"":true,""osname"":""Windows"",""osversion"":""10"",""a"":true}","9:10:38","1","3","Test_2","70","j","0","1526.6000000238419","1536 x 864","1347 x 832","true","1","0","","","","",""
"null","<p style=""font-size: 80px;"">+ 10 points</p>","null","html-keyboard-response","111","537331","0.0-11.0-2.110","611119b66c980fffcfea9e71","lsdx0m","SH","26","F","{""name"":""Chrome"",""chrome"":true,""version"":""106.0"",""blink"":true,""windows"":true,""osname"":""Windows"",""osversion"":""10"",""a"":true}","9:10:38","1","3","Test_2","74","j","1","500.39999997615814","1536 x 864","1347 x 832","true","1","10","","","","",""
"null","<p style=""font-size: 80px;"">+ 10 points</p>","null","html-keyboard-response","112","540211","0.0-11.0-2.111","611119b66c980fffcfea9e71","lsdx0m","SH","26","F","{""name"":""Chrome"",""chrome"":true,""version"":""106.0"",""blink"":true,""windows"":true,""osname"":""Windows"",""osversion"":""10"",""a"":true}","9:10:38","1","3","Test_1","70","f","1","854","1536 x 864","1347 x 832","true","1","10","","","","",""
"null","<p style=""font-size: 80px;"">+ 0 points</p>","null","html-keyboard-response","113","544060","0.0-11.0-2.112","611119b66c980fffcfea9e71","lsdx0m","SH","26","F","{""name"":""Chrome"",""chrome"":true,""version"":""106.0"",""blink"":true,""windows"":true,""osname"":""Windows"",""osversion"":""10"",""a"":true}","9:10:38","1","3","Test_1","74","f","0","1826.7000000476837","1536 x 864","1347 x 832","true","1","0","","","","",""
"null","<p style=""font-size: 80px;"">+ 0 points</p>","null","html-keyboard-response","114","546936","0.0-11.0-2.113","611119b66c980fffcfea9e71","lsdx0m","SH","26","F","{""name"":""Chrome"",""chrome"":true,""version"":""106.0"",""blink"":true,""windows"":true,""osname"":""Windows"",""osversion"":""10"",""a"":true}","9:10:38","1","3","Test_4","70","j","0","862.8999999761581","1536 x 864","1347 x 832","true","1","0","","","","",""
"null","<p style=""font-size: 80px;"">+ 10 points</p>","null","html-keyboard-response","115","550226","0.0-11.0-2.114","611119b66c980fffcfea9e71","lsdx0m","SH","26","F","{""name"":""Chrome"",""chrome"":true,""version"":""106.0"",""blink"":true,""windows"":true,""osname"":""Windows"",""osversion"":""10"",""a"":true}","9:10:38","1","3","Test_2","74","j","1","1276.7999999523163","1536 x 864","1347 x 832","true","1","10","","","","",""
"null","<p style=""font-size: 80px;"">+ 10 points</p>","null","html-keyboard-response","116","553457","0.0-11.0-2.115","611119b66c980fffcfea9e71","lsdx0m","SH","26","F","{""name"":""Chrome"",""chrome"":true,""version"":""106.0"",""blink"":true,""windows"":true,""osname"":""Windows"",""osversion"":""10"",""a"":true}","9:10:38","1","3","Test_1","70","f","1","1207.0999999046326","1536 x 864","1347 x 832","true","1","10","","","","",""
"null","<p style=""font-size: 80px;"">+ 0 points</p>","null","html-keyboard-response","117","555926","0.0-11.0-2.116","611119b66c980fffcfea9e71","lsdx0m","SH","26","F","{""name"":""Chrome"",""chrome"":true,""version"":""106.0"",""blink"":true,""windows"":true,""osname"":""Windows"",""osversion"":""10"",""a"":true}","9:10:38","1","4","Test_1","70","j","0","455.60000002384186","1536 x 864","1347 x 832","true","1","0","","","","",""
"null","<p style=""font-size: 80px;"">+ 10 points</p>","null","html-keyboard-response","118","558616","0.0-11.0-2.117","611119b66c980fffcfea9e71","lsdx0m","SH","26","F","{""name"":""Chrome"",""chrome"":true,""version"":""106.0"",""blink"":true,""windows"":true,""osname"":""Windows"",""osversion"":""10"",""a"":true}","9:10:38","1","4","Test_1","74","j","1","673.7000000476837","1536 x 864","1347 x 832","true","1","10","","","","",""
"null","<p style=""font-size: 80px; line-height: 1.4em;"">Too late</br> Speed up!</p>","null","html-keyboard-response","119","567806","0.0-11.0-2.118","611119b66c980fffcfea9e71","lsdx0m","SH","26","F","{""name"":""Chrome"",""chrome"":true,""version"":""106.0"",""blink"":true,""windows"":true,""osname"":""Windows"",""osversion"":""10"",""a"":true}","9:10:38","1","4","Test_1","null","j","0","null","1536 x 864","1347 x 832","false","1","0","","","","",""
"null","<p style=""font-size: 80px; line-height: 1.4em;"">Too late</br> Speed up!</p>","null","html-keyboard-response","120","577796","0.0-11.0-2.119","611119b66c980fffcfea9e71","lsdx0m","SH","26","F","{""name"":""Chrome"",""chrome"":true,""version"":""106.0"",""blink"":true,""windows"":true,""osname"":""Windows"",""osversion"":""10"",""a"":true}","9:10:38","1","4","Test_4","null","f","0","null","1536 x 864","1347 x 832","false","1","0","","","","",""
"null","<p style=""font-size: 80px; line-height: 1.4em;"">Too late</br> Speed up!</p>","null","html-keyboard-response","121","586807","0.0-11.0-2.120","611119b66c980fffcfea9e71","lsdx0m","SH","26","F","{""name"":""Chrome"",""chrome"":true,""version"":""106.0"",""blink"":true,""windows"":true,""osname"":""Windows"",""osversion"":""10"",""a"":true}","9:10:38","1","4","Test_3","null","j","0","null","1536 x 864","1347 x 832","true","1","0","","","","",""
"null","<p style=""font-size: 80px;"">+ 10 points</p>","null","html-keyboard-response","122","589941","0.0-11.0-2.121","611119b66c980fffcfea9e71","lsdx0m","SH","26","F","{""name"":""Chrome"",""chrome"":true,""version"":""106.0"",""blink"":true,""windows"":true,""osname"":""Windows"",""osversion"":""10"",""a"":true}","9:10:38","1","4","Test_2","70","f","1","1117.5","1536 x 864","1347 x 832","true","1","10","","","","",""
"null","<p style=""font-size: 80px;"">+ 10 points</p>","null","html-keyboard-response","123","592637","0.0-11.0-2.122","611119b66c980fffcfea9e71","lsdx0m","SH","26","F","{""name"":""Chrome"",""chrome"":true,""version"":""106.0"",""blink"":true,""windows"":true,""osname"":""Windows"",""osversion"":""10"",""a"":true}","9:10:38","1","4","Test_3","74","j","1","663.9000000953674","1536 x 864","1347 x 832","true","1","10","","","","",""
"null","<p style=""font-size: 80px;"">+ 10 points</p>","null","html-keyboard-response","124","595697","0.0-11.0-2.123","611119b66c980fffcfea9e71","lsdx0m","SH","26","F","{""name"":""Chrome"",""chrome"":true,""version"":""106.0"",""blink"":true,""windows"":true,""osname"":""Windows"",""osversion"":""10"",""a"":true}","9:10:38","1","4","Test_1","74","j","1","1031.6000000238419","1536 x 864","1347 x 832","true","1","10","","","","",""
"null","<p style=""font-size: 80px;"">+ 10 points</p>","null","html-keyboard-response","125","598756","0.0-11.0-2.124","611119b66c980fffcfea9e71","lsdx0m","SH","26","F","{""name"":""Chrome"",""chrome"":true,""version"":""106.0"",""blink"":true,""windows"":true,""osname"":""Windows"",""osversion"":""10"",""a"":true}","9:10:38","1","4","Test_4","70","f","1","1043.6000000238419","1536 x 864","1347 x 832","true","1","10","","","","",""
"null","<p style=""font-size: 80px;"">+ 10 points</p>","null","html-keyboard-response","126","601393","0.0-11.0-2.125","611119b66c980fffcfea9e71","lsdx0m","SH","26","F","{""name"":""Chrome"",""chrome"":true,""version"":""106.0"",""blink"":true,""windows"":true,""osname"":""Windows"",""osversion"":""10"",""a"":true}","9:10:38","1","4","Test_4","70","f","1","613.0999999046326","1536 x 864","1347 x 832","true","1","10","","","","",""
"null","<p style=""font-size: 80px;"">+ 0 points</p>","null","html-keyboard-response","127","604034","0.0-11.0-2.126","611119b66c980fffcfea9e71","lsdx0m","SH","26","F","{""name"":""Chrome"",""chrome"":true,""version"":""106.0"",""blink"":true,""windows"":true,""osname"":""Windows"",""osversion"":""10"",""a"":true}","9:10:38","1","4","Test_2","74","f","0","617.1000000238419","1536 x 864","1347 x 832","true","1","0","","","","",""
"null","<p style=""font-size: 80px;"">+ 10 points</p>","null","html-keyboard-response","128","606517","0.0-11.0-2.127","611119b66c980fffcfea9e71","lsdx0m","SH","26","F","{""name"":""Chrome"",""chrome"":true,""version"":""106.0"",""blink"":true,""windows"":true,""osname"":""Windows"",""osversion"":""10"",""a"":true}","9:10:38","1","4","Test_2","70","f","1","461.7000000476837","1536 x 864","1347 x 832","true","1","10","","","","",""
"null","<p style=""font-size: 80px;"">+ 10 points</p>","null","html-keyboard-response","129","609311","0.0-11.0-2.128","611119b66c980fffcfea9e71","lsdx0m","SH","26","F","{""name"":""Chrome"",""chrome"":true,""version"":""106.0"",""blink"":true,""windows"":true,""osname"":""Windows"",""osversion"":""10"",""a"":true}","9:10:38","1","4","Test_4","70","f","1","778.7999999523163","1536 x 864","1347 x 832","true","1","10","","","","",""
"null","<p style=""font-size: 80px;"">+ 10 points</p>","null","html-keyboard-response","130","611797","0.0-11.0-2.129","611119b66c980fffcfea9e71","lsdx0m","SH","26","F","{""name"":""Chrome"",""chrome"":true,""version"":""106.0"",""blink"":true,""windows"":true,""osname"":""Windows"",""osversion"":""10"",""a"":true}","9:10:38","1","4","Test_3","74","j","1","471.7999999523163","1536 x 864","1347 x 832","true","1","10","","","","",""
"null","<p style=""font-size: 80px;"">+ 10 points</p>","null","html-keyboard-response","131","614286","0.0-11.0-2.130","611119b66c980fffcfea9e71","lsdx0m","SH","26","F","{""name"":""Chrome"",""chrome"":true,""version"":""106.0"",""blink"":true,""windows"":true,""osname"":""Windows"",""osversion"":""10"",""a"":true}","9:10:38","1","4","Test_3","74","j","1","460.7000000476837","1536 x 864","1347 x 832","true","1","10","","","","",""
"null","<p style=""font-size: 80px;"">+ 10 points</p>","null","html-keyboard-response","132","616691","0.0-11.0-2.131","611119b66c980fffcfea9e71","lsdx0m","SH","26","F","{""name"":""Chrome"",""chrome"":true,""version"":""106.0"",""blink"":true,""windows"":true,""osname"":""Windows"",""osversion"":""10"",""a"":true}","9:10:38","1","4","Test_3","74","j","1","383.2999999523163","1536 x 864","1347 x 832","true","1","10","","","","",""
"null","<p style=""font-size: 80px;"">+ 10 points</p>","null","html-keyboard-response","133","619160","0.0-11.0-2.132","611119b66c980fffcfea9e71","lsdx0m","SH","26","F","{""name"":""Chrome"",""chrome"":true,""version"":""106.0"",""blink"":true,""windows"":true,""osname"":""Windows"",""osversion"":""10"",""a"":true}","9:10:38","1","4","Test_3","74","j","1","451.40000009536743","1536 x 864","1347 x 832","true","1","10","","","","",""
"null","<p style=""font-size: 80px;"">+ 10 points</p>","null","html-keyboard-response","134","621783","0.0-11.0-2.133","611119b66c980fffcfea9e71","lsdx0m","SH","26","F","{""name"":""Chrome"",""chrome"":true,""version"":""106.0"",""blink"":true,""windows"":true,""osname"":""Windows"",""osversion"":""10"",""a"":true}","9:10:38","1","4","Test_4","70","f","1","614.1000000238419","1536 x 864","1347 x 832","true","1","10","","","","",""
"null","<p style=""font-size: 80px;"">+ 10 points</p>","null","html-keyboard-response","135","624927","0.0-11.0-2.134","611119b66c980fffcfea9e71","lsdx0m","SH","26","F","{""name"":""Chrome"",""chrome"":true,""version"":""106.0"",""blink"":true,""windows"":true,""osname"":""Windows"",""osversion"":""10"",""a"":true}","9:10:38","1","4","Test_2","70","f","1","1117.6000000238419","1536 x 864","1347 x 832","true","1","10","","","","",""
"null","<p style=""font-size: 80px;"">+ 10 points</p>","null","html-keyboard-response","136","627636","0.0-11.0-2.135","611119b66c980fffcfea9e71","lsdx0m","SH","26","F","{""name"":""Chrome"",""chrome"":true,""version"":""106.0"",""blink"":true,""windows"":true,""osname"":""Windows"",""osversion"":""10"",""a"":true}","9:10:38","1","4","Test_1","74","j","1","683.7000000476837","1536 x 864","1347 x 832","true","1","10","","","","",""
"null","<p style=""font-size: 80px;"">+ 10 points</p>","null","html-keyboard-response","137","630035","0.0-11.0-2.136","611119b66c980fffcfea9e71","lsdx0m","SH","26","F","{""name"":""Chrome"",""chrome"":true,""version"":""106.0"",""blink"":true,""windows"":true,""osname"":""Windows"",""osversion"":""10"",""a"":true}","9:10:38","1","4","Test_2","70","f","1","374.5","1536 x 864","1347 x 832","true","1","10","","","","",""
"null","<p style=""font-size: 80px;"">+ 0 points</p>","null","html-keyboard-response","138","632691","0.0-11.0-2.137","611119b66c980fffcfea9e71","lsdx0m","SH","26","F","{""name"":""Chrome"",""chrome"":true,""version"":""106.0"",""blink"":true,""windows"":true,""osname"":""Windows"",""osversion"":""10"",""a"":true}","9:10:38","1","3","Test_2","70","j","0","628.3999999761581","1536 x 864","1347 x 832","true","1","0","","","","",""
"null","<p style=""font-size: 80px;"">+ 10 points</p>","null","html-keyboard-response","139","635141","0.0-11.0-2.138","611119b66c980fffcfea9e71","lsdx0m","SH","26","F","{""name"":""Chrome"",""chrome"":true,""version"":""106.0"",""blink"":true,""windows"":true,""osname"":""Windows"",""osversion"":""10"",""a"":true}","9:10:38","1","3","Test_2","74","j","1","421.10000002384186","1536 x 864","1347 x 832","true","1","10","","","","",""
"null","<p style=""font-size: 80px;"">+ 10 points</p>","null","html-keyboard-response","140","637847","0.0-11.0-2.139","611119b66c980fffcfea9e71","lsdx0m","SH","26","F","{""name"":""Chrome"",""chrome"":true,""version"":""106.0"",""blink"":true,""windows"":true,""osname"":""Windows"",""osversion"":""10"",""a"":true}","9:10:38","1","3","Test_3","70","f","1","687.8999999761581","1536 x 864","1347 x 832","true","1","10","","","","",""
"null","<p style=""font-size: 80px;"">+ 10 points</p>","null","html-keyboard-response","141","640417","0.0-11.0-2.140","611119b66c980fffcfea9e71","lsdx0m","SH","26","F","{""name"":""Chrome"",""chrome"":true,""version"":""106.0"",""blink"":true,""windows"":true,""osname"":""Windows"",""osversion"":""10"",""a"":true}","9:10:38","1","3","Test_3","70","f","1","532.5","1536 x 864","1347 x 832","true","1","10","","","","",""
"null","<p style=""font-size: 80px;"">+ 10 points</p>","null","html-keyboard-response","142","642816","0.0-11.0-2.141","611119b66c980fffcfea9e71","lsdx0m","SH","26","F","{""name"":""Chrome"",""chrome"":true,""version"":""106.0"",""blink"":true,""windows"":true,""osname"":""Windows"",""osversion"":""10"",""a"":true}","9:10:38","1","3","Test_3","70","f","1","368.59999990463257","1536 x 864","1347 x 832","true","1","10","","","","",""
"null","<p style=""font-size: 80px;"">+ 10 points</p>","null","html-keyboard-response","143","645567","0.0-11.0-2.142","611119b66c980fffcfea9e71","lsdx0m","SH","26","F","{""name"":""Chrome"",""chrome"":true,""version"":""106.0"",""blink"":true,""windows"":true,""osname"":""Windows"",""osversion"":""10"",""a"":true}","9:10:38","1","3","Test_1","70","f","1","732.7999999523163","1536 x 864","1347 x 832","true","1","10","","","","",""
"null","<p style=""font-size: 80px;"">+ 10 points</p>","null","html-keyboard-response","144","648393","0.0-11.0-2.143","611119b66c980fffcfea9e71","lsdx0m","SH","26","F","{""name"":""Chrome"",""chrome"":true,""version"":""106.0"",""blink"":true,""windows"":true,""osname"":""Windows"",""osversion"":""10"",""a"":true}","9:10:38","1","3","Test_4","74","j","1","798.4000000953674","1536 x 864","1347 x 832","true","1","10","","","","",""
"null","<p style=""font-size: 80px;"">+ 10 points</p>","null","html-keyboard-response","145","651265","0.0-11.0-2.144","611119b66c980fffcfea9e71","lsdx0m","SH","26","F","{""name"":""Chrome"",""chrome"":true,""version"":""106.0"",""blink"":true,""windows"":true,""osname"":""Windows"",""osversion"":""10"",""a"":true}","9:10:38","1","3","Test_3","70","f","1","851.1999999284744","1536 x 864","1347 x 832","true","1","10","","","","",""
"null","<p style=""font-size: 80px;"">+ 10 points</p>","null","html-keyboard-response","146","654621","0.0-11.0-2.145","611119b66c980fffcfea9e71","lsdx0m","SH","26","F","{""name"":""Chrome"",""chrome"":true,""version"":""106.0"",""blink"":true,""windows"":true,""osname"":""Windows"",""osversion"":""10"",""a"":true}","9:10:38","1","3","Test_1","70","f","1","1325.7999999523163","1536 x 864","1347 x 832","true","1","10","","","","",""
"null","<p style=""font-size: 80px;"">+ 10 points</p>","null","html-keyboard-response","147","657326","0.0-11.0-2.146","611119b66c980fffcfea9e71","lsdx0m","SH","26","F","{""name"":""Chrome"",""chrome"":true,""version"":""106.0"",""blink"":true,""windows"":true,""osname"":""Windows"",""osversion"":""10"",""a"":true}","9:10:38","1","3","Test_2","74","j","1","681.1000000238419","1536 x 864","1347 x 832","true","1","10","","","","",""
"null","<p style=""font-size: 80px;"">+ 10 points</p>","null","html-keyboard-response","148","659882","0.0-11.0-2.147","611119b66c980fffcfea9e71","lsdx0m","SH","26","F","{""name"":""Chrome"",""chrome"":true,""version"":""106.0"",""blink"":true,""windows"":true,""osname"":""Windows"",""osversion"":""10"",""a"":true}","9:10:38","1","3","Test_2","74","j","1","533","1536 x 864","1347 x 832","true","1","10","","","","",""
"null","<p style=""font-size: 80px;"">+ 0 points</p>","null","html-keyboard-response","149","662766","0.0-11.0-2.148","611119b66c980fffcfea9e71","lsdx0m","SH","26","F","{""name"":""Chrome"",""chrome"":true,""version"":""106.0"",""blink"":true,""windows"":true,""osname"":""Windows"",""osversion"":""10"",""a"":true}","9:10:38","1","3","Test_4","70","j","0","860.8999999761581","1536 x 864","1347 x 832","true","1","0","","","","",""
"null","<p style=""font-size: 80px;"">+ 10 points</p>","null","html-keyboard-response","150","665296","0.0-11.0-2.149","611119b66c980fffcfea9e71","lsdx0m","SH","26","F","{""name"":""Chrome"",""chrome"":true,""version"":""106.0"",""blink"":true,""windows"":true,""osname"":""Windows"",""osversion"":""10"",""a"":true}","9:10:38","1","3","Test_4","74","j","1","490.3000000715256","1536 x 864","1347 x 832","true","1","10","","","","",""
"null","<p style=""font-size: 80px;"">+ 10 points</p>","null","html-keyboard-response","151","668462","0.0-11.0-2.150","611119b66c980fffcfea9e71","lsdx0m","SH","26","F","{""name"":""Chrome"",""chrome"":true,""version"":""106.0"",""blink"":true,""windows"":true,""osname"":""Windows"",""osversion"":""10"",""a"":true}","9:10:38","1","3","Test_4","74","j","1","1128.0999999046326","1536 x 864","1347 x 832","true","1","10","","","","",""
"null","<p style=""font-size: 80px;"">+ 10 points</p>","null","html-keyboard-response","152","671181","0.0-11.0-2.151","611119b66c980fffcfea9e71","lsdx0m","SH","26","F","{""name"":""Chrome"",""chrome"":true,""version"":""106.0"",""blink"":true,""windows"":true,""osname"":""Windows"",""osversion"":""10"",""a"":true}","9:10:38","1","3","Test_3","70","f","1","694.1000000238419","1536 x 864","1347 x 832","true","1","10","","","","",""
"null","<p style=""font-size: 80px;"">+ 10 points</p>","null","html-keyboard-response","153","673856","0.0-11.0-2.152","611119b66c980fffcfea9e71","lsdx0m","SH","26","F","{""name"":""Chrome"",""chrome"":true,""version"":""106.0"",""blink"":true,""windows"":true,""osname"":""Windows"",""osversion"":""10"",""a"":true}","9:10:38","1","3","Test_2","74","j","1","656.6000000238419","1536 x 864","1347 x 832","true","1","10","","","","",""
"null","<p style=""font-size: 80px;"">+ 10 points</p>","null","html-keyboard-response","154","676877","0.0-11.0-2.153","611119b66c980fffcfea9e71","lsdx0m","SH","26","F","{""name"":""Chrome"",""chrome"":true,""version"":""106.0"",""blink"":true,""windows"":true,""osname"":""Windows"",""osversion"":""10"",""a"":true}","9:10:38","1","3","Test_1","70","f","1","1001.8999999761581","1536 x 864","1347 x 832","true","1","10","","","","",""
"null","<p style=""font-size: 80px;"">+ 10 points</p>","null","html-keyboard-response","155","679884","0.0-11.0-2.154","611119b66c980fffcfea9e71","lsdx0m","SH","26","F","{""name"":""Chrome"",""chrome"":true,""version"":""106.0"",""blink"":true,""windows"":true,""osname"":""Windows"",""osversion"":""10"",""a"":true}","9:10:38","1","3","Test_4","74","j","1","971.5","1536 x 864","1347 x 832","true","1","10","","","","",""
"null","<p style=""font-size: 80px;"">+ 10 points</p>","null","html-keyboard-response","156","682867","0.0-11.0-2.155","611119b66c980fffcfea9e71","lsdx0m","SH","26","F","{""name"":""Chrome"",""chrome"":true,""version"":""106.0"",""blink"":true,""windows"":true,""osname"":""Windows"",""osversion"":""10"",""a"":true}","9:10:38","1","3","Test_2","74","j","1","960.8999999761581","1536 x 864","1347 x 832","true","1","10","","","","",""
"null","<p style=""font-size: 80px;"">+ 10 points</p>","null","html-keyboard-response","157","685742","0.0-11.0-2.156","611119b66c980fffcfea9e71","lsdx0m","SH","26","F","{""name"":""Chrome"",""chrome"":true,""version"":""106.0"",""blink"":true,""windows"":true,""osname"":""Windows"",""osversion"":""10"",""a"":true}","9:10:38","1","3","Test_3","70","f","1","856.2000000476837","1536 x 864","1347 x 832","true","1","10","","","","",""
"null","<p style=""font-size: 80px;"">+ 10 points</p>","null","html-keyboard-response","158","688462","0.0-11.0-2.157","611119b66c980fffcfea9e71","lsdx0m","SH","26","F","{""name"":""Chrome"",""chrome"":true,""version"":""106.0"",""blink"":true,""windows"":true,""osname"":""Windows"",""osversion"":""10"",""a"":true}","9:10:38","1","3","Test_4","74","j","1","701.6000000238419","1536 x 864","1347 x 832","true","1","10","","","","",""
"null","<p style=""font-size: 80px;"">+ 10 points</p>","null","html-keyboard-response","159","691142","0.0-11.0-2.158","611119b66c980fffcfea9e71","lsdx0m","SH","26","F","{""name"":""Chrome"",""chrome"":true,""version"":""106.0"",""blink"":true,""windows"":true,""osname"":""Windows"",""osversion"":""10"",""a"":true}","9:10:38","1","3","Test_1","70","f","1","654.3999999761581","1536 x 864","1347 x 832","true","1","10","","","","",""
"null","<p style=""font-size: 80px;"">+ 10 points</p>","null","html-keyboard-response","160","693702","0.0-11.0-2.159","611119b66c980fffcfea9e71","lsdx0m","SH","26","F","{""name"":""Chrome"",""chrome"":true,""version"":""106.0"",""blink"":true,""windows"":true,""osname"":""Windows"",""osversion"":""10"",""a"":true}","9:10:38","1","3","Test_1","70","f","1","534","1536 x 864","1347 x 832","true","1","10","","","","",""
"null","<p style=""font-size: 80px;"">+ 10 points</p>","null","html-keyboard-response","161","696117","0.0-11.0-2.160","611119b66c980fffcfea9e71","lsdx0m","SH","26","F","{""name"":""Chrome"",""chrome"":true,""version"":""106.0"",""blink"":true,""windows"":true,""osname"":""Windows"",""osversion"":""10"",""a"":true}","9:10:38","1","3","Test_1","70","f","1","398.2000000476837","1536 x 864","1347 x 832","true","1","10","","","","",""
"null","<p style=""font-size: 80px;"">+ 0 points</p>","null","html-keyboard-response","162","698977","0.0-11.0-2.161","611119b66c980fffcfea9e71","lsdx0m","SH","26","F","{""name"":""Chrome"",""chrome"":true,""version"":""106.0"",""blink"":true,""windows"":true,""osname"":""Windows"",""osversion"":""10"",""a"":true}","9:10:38","1","4","Test_2","74","f","0","820.5","1536 x 864","1347 x 832","true","1","0","","","","",""
"null","<p style=""font-size: 80px;"">+ 10 points</p>","null","html-keyboard-response","163","701717","0.0-11.0-2.162","611119b66c980fffcfea9e71","lsdx0m","SH","26","F","{""name"":""Chrome"",""chrome"":true,""version"":""106.0"",""blink"":true,""windows"":true,""osname"":""Windows"",""osversion"":""10"",""a"":true}","9:10:38","1","4","Test_4","70","f","1","707.1000000238419","1536 x 864","1347 x 832","true","1","10","","","","",""
"null","<p style=""font-size: 80px;"">+ 10 points</p>","null","html-keyboard-response","164","705072","0.0-11.0-2.163","611119b66c980fffcfea9e71","lsdx0m","SH","26","F","{""name"":""Chrome"",""chrome"":true,""version"":""106.0"",""blink"":true,""windows"":true,""osname"":""Windows"",""osversion"":""10"",""a"":true}","9:10:38","1","4","Test_3","74","j","1","1324.6000000238419","1536 x 864","1347 x 832","true","1","10","","","","",""
"null","<p style=""font-size: 80px;"">+ 10 points</p>","null","html-keyboard-response","165","707902","0.0-11.0-2.164","611119b66c980fffcfea9e71","lsdx0m","SH","26","F","{""name"":""Chrome"",""chrome"":true,""version"":""106.0"",""blink"":true,""windows"":true,""osname"":""Windows"",""osversion"":""10"",""a"":true}","9:10:38","1","4","Test_4","70","f","1","811.2000000476837","1536 x 864","1347 x 832","true","1","10","","","","",""
"null","<p style=""font-size: 80px;"">+ 10 points</p>","null","html-keyboard-response","166","710612","0.0-11.0-2.165","611119b66c980fffcfea9e71","lsdx0m","SH","26","F","{""name"":""Chrome"",""chrome"":true,""version"":""106.0"",""blink"":true,""windows"":true,""osname"":""Windows"",""osversion"":""10"",""a"":true}","9:10:38","1","4","Test_4","70","f","1","685.2000000476837","1536 x 864","1347 x 832","true","1","10","","","","",""
"null","<p style=""font-size: 80px;"">+ 10 points</p>","null","html-keyboard-response","167","713557","0.0-11.0-2.166","611119b66c980fffcfea9e71","lsdx0m","SH","26","F","{""name"":""Chrome"",""chrome"":true,""version"":""106.0"",""blink"":true,""windows"":true,""osname"":""Windows"",""osversion"":""10"",""a"":true}","9:10:38","1","4","Test_2","70","f","1","933","1536 x 864","1347 x 832","true","1","10","","","","",""
"null","<p style=""font-size: 80px;"">+ 10 points</p>","null","html-keyboard-response","168","716296","0.0-11.0-2.167","611119b66c980fffcfea9e71","lsdx0m","SH","26","F","{""name"":""Chrome"",""chrome"":true,""version"":""106.0"",""blink"":true,""windows"":true,""osname"":""Windows"",""osversion"":""10"",""a"":true}","9:10:38","1","4","Test_1","74","j","1","715.2999999523163","1536 x 864","1347 x 832","true","1","10","","","","",""
"null","<p style=""font-size: 80px;"">+ 10 points</p>","null","html-keyboard-response","169","719212","0.0-11.0-2.168","611119b66c980fffcfea9e71","lsdx0m","SH","26","F","{""name"":""Chrome"",""chrome"":true,""version"":""106.0"",""blink"":true,""windows"":true,""osname"":""Windows"",""osversion"":""10"",""a"":true}","9:10:38","1","4","Test_1","74","j","1","898.7999999523163","1536 x 864","1347 x 832","true","1","10","","","","",""
"null","<p style=""font-size: 80px;"">+ 10 points</p>","null","html-keyboard-response","170","721697","0.0-11.0-2.169","611119b66c980fffcfea9e71","lsdx0m","SH","26","F","{""name"":""Chrome"",""chrome"":true,""version"":""106.0"",""blink"":true,""windows"":true,""osname"":""Windows"",""osversion"":""10"",""a"":true}","9:10:38","1","4","Test_2","70","f","1","473.8000000715256","1536 x 864","1347 x 832","true","1","10","","","","",""
"null","<p style=""font-size: 80px;"">+ 10 points</p>","null","html-keyboard-response","171","724393","0.0-11.0-2.170","611119b66c980fffcfea9e71","lsdx0m","SH","26","F","{""name"":""Chrome"",""chrome"":true,""version"":""106.0"",""blink"":true,""windows"":true,""osname"":""Windows"",""osversion"":""10"",""a"":true}","9:10:38","1","4","Test_3","74","j","1","671","1536 x 864","1347 x 832","true","1","10","","","","",""
"null","<p style=""font-size: 80px;"">+ 10 points</p>","null","html-keyboard-response","172","726893","0.0-11.0-2.171","611119b66c980fffcfea9e71","lsdx0m","SH","26","F","{""name"":""Chrome"",""chrome"":true,""version"":""106.0"",""blink"":true,""windows"":true,""osname"":""Windows"",""osversion"":""10"",""a"":true}","9:10:38","1","4","Test_3","74","j","1","486.60000002384186","1536 x 864","1347 x 832","true","1","10","","","","",""
"null","<p style=""font-size: 80px;"">+ 10 points</p>","null","html-keyboard-response","173","729590","0.0-11.0-2.172","611119b66c980fffcfea9e71","lsdx0m","SH","26","F","{""name"":""Chrome"",""chrome"":true,""version"":""106.0"",""blink"":true,""windows"":true,""osname"":""Windows"",""osversion"":""10"",""a"":true}","9:10:38","1","4","Test_1","74","j","1","679.8999999761581","1536 x 864","1347 x 832","true","1","10","","","","",""
"null","<p style=""font-size: 80px;"">+ 10 points</p>","null","html-keyboard-response","174","732081","0.0-11.0-2.173","611119b66c980fffcfea9e71","lsdx0m","SH","26","F","{""name"":""Chrome"",""chrome"":true,""version"":""106.0"",""blink"":true,""windows"":true,""osname"":""Windows"",""osversion"":""10"",""a"":true}","9:10:38","1","4","Test_1","74","j","1","472.39999997615814","1536 x 864","1347 x 832","true","1","10","","","","",""
"null","<p style=""font-size: 80px;"">+ 10 points</p>","null","html-keyboard-response","175","734733","0.0-11.0-2.174","611119b66c980fffcfea9e71","lsdx0m","SH","26","F","{""name"":""Chrome"",""chrome"":true,""version"":""106.0"",""blink"":true,""windows"":true,""osname"":""Windows"",""osversion"":""10"",""a"":true}","9:10:38","1","4","Test_1","74","j","1","636.2000000476837","1536 x 864","1347 x 832","true","1","10","","","","",""
"null","<p style=""font-size: 80px;"">+ 10 points</p>","null","html-keyboard-response","176","737436","0.0-11.0-2.175","611119b66c980fffcfea9e71","lsdx0m","SH","26","F","{""name"":""Chrome"",""chrome"":true,""version"":""106.0"",""blink"":true,""windows"":true,""osname"":""Windows"",""osversion"":""10"",""a"":true}","9:10:38","1","4","Test_2","70","f","1","683.7999999523163","1536 x 864","1347 x 832","true","1","10","","","","",""
"null","<p style=""font-size: 80px;"">+ 10 points</p>","null","html-keyboard-response","177","740742","0.0-11.0-2.176","611119b66c980fffcfea9e71","lsdx0m","SH","26","F","{""name"":""Chrome"",""chrome"":true,""version"":""106.0"",""blink"":true,""windows"":true,""osname"":""Windows"",""osversion"":""10"",""a"":true}","9:10:38","1","4","Test_4","70","f","1","1280.7000000476837","1536 x 864","1347 x 832","true","1","10","","","","",""
"null","<p style=""font-size: 80px;"">+ 10 points</p>","null","html-keyboard-response","178","743875","0.0-11.0-2.177","611119b66c980fffcfea9e71","lsdx0m","SH","26","F","{""name"":""Chrome"",""chrome"":true,""version"":""106.0"",""blink"":true,""windows"":true,""osname"":""Windows"",""osversion"":""10"",""a"":true}","9:10:38","1","4","Test_3","74","j","1","1110.2000000476837","1536 x 864","1347 x 832","true","1","10","","","","",""
"null","<p style=""font-size: 80px;"">+ 0 points</p>","null","html-keyboard-response","179","746356","0.0-11.0-2.178","611119b66c980fffcfea9e71","lsdx0m","SH","26","F","{""name"":""Chrome"",""chrome"":true,""version"":""106.0"",""blink"":true,""windows"":true,""osname"":""Windows"",""osversion"":""10"",""a"":true}","9:10:38","1","3","Test_2","70","j","0","459.6999999284744","1536 x 864","1347 x 832","true","1","0","","","","",""
"null","<p style=""font-size: 80px;"">+ 10 points</p>","null","html-keyboard-response","180","748901","0.0-11.0-2.179","611119b66c980fffcfea9e71","lsdx0m","SH","26","F","{""name"":""Chrome"",""chrome"":true,""version"":""106.0"",""blink"":true,""windows"":true,""osname"":""Windows"",""osversion"":""10"",""a"":true}","9:10:38","1","3","Test_3","70","f","1","521.8999999761581","1536 x 864","1347 x 832","true","1","10","","","","",""
"null","<p style=""font-size: 80px;"">+ 10 points</p>","null","html-keyboard-response","181","751456","0.0-11.0-2.180","611119b66c980fffcfea9e71","lsdx0m","SH","26","F","{""name"":""Chrome"",""chrome"":true,""version"":""106.0"",""blink"":true,""windows"":true,""osname"":""Windows"",""osversion"":""10"",""a"":true}","9:10:38","1","3","Test_3","70","f","1","530.2999999523163","1536 x 864","1347 x 832","true","1","10","","","","",""
"null","<p style=""font-size: 80px;"">+ 10 points</p>","null","html-keyboard-response","182","754206","0.0-11.0-2.181","611119b66c980fffcfea9e71","lsdx0m","SH","26","F","{""name"":""Chrome"",""chrome"":true,""version"":""106.0"",""blink"":true,""windows"":true,""osname"":""Windows"",""osversion"":""10"",""a"":true}","9:10:38","1","3","Test_4","74","j","1","727.6000000238419","1536 x 864","1347 x 832","true","1","10","","","","",""
"null","<p style=""font-size: 80px;"">+ 10 points</p>","null","html-keyboard-response","183","757031","0.0-11.0-2.182","611119b66c980fffcfea9e71","lsdx0m","SH","26","F","{""name"":""Chrome"",""chrome"":true,""version"":""106.0"",""blink"":true,""windows"":true,""osname"":""Windows"",""osversion"":""10"",""a"":true}","9:10:38","1","3","Test_4","74","j","1","812.5","1536 x 864","1347 x 832","true","1","10","","","","",""
"null","<p style=""font-size: 80px;"">+ 0 points</p>","null","html-keyboard-response","184","759856","0.0-11.0-2.183","611119b66c980fffcfea9e71","lsdx0m","SH","26","F","{""name"":""Chrome"",""chrome"":true,""version"":""106.0"",""blink"":true,""windows"":true,""osname"":""Windows"",""osversion"":""10"",""a"":true}","9:10:38","1","3","Test_2","70","j","0","786","1536 x 864","1347 x 832","true","1","0","","","","",""
"null","<p style=""font-size: 80px;"">+ 10 points</p>","null","html-keyboard-response","185","762570","0.0-11.0-2.184","611119b66c980fffcfea9e71","lsdx0m","SH","26","F","{""name"":""Chrome"",""chrome"":true,""version"":""106.0"",""blink"":true,""windows"":true,""osname"":""Windows"",""osversion"":""10"",""a"":true}","9:10:38","1","3","Test_3","70","f","1","692.2000000476837","1536 x 864","1347 x 832","true","1","10","","","","",""
"null","<p style=""font-size: 80px;"">+ 10 points</p>","null","html-keyboard-response","186","765251","0.0-11.0-2.185","611119b66c980fffcfea9e71","lsdx0m","SH","26","F","{""name"":""Chrome"",""chrome"":true,""version"":""106.0"",""blink"":true,""windows"":true,""osname"":""Windows"",""osversion"":""10"",""a"":true}","9:10:38","1","3","Test_3","70","f","1","659.8999999761581","1536 x 864","1347 x 832","true","1","10","","","","",""
"null","<p style=""font-size: 80px;"">+ 10 points</p>","null","html-keyboard-response","187","767856","0.0-11.0-2.186","611119b66c980fffcfea9e71","lsdx0m","SH","26","F","{""name"":""Chrome"",""chrome"":true,""version"":""106.0"",""blink"":true,""windows"":true,""osname"":""Windows"",""osversion"":""10"",""a"":true}","9:10:38","1","3","Test_2","74","j","1","584.6000000238419","1536 x 864","1347 x 832","true","1","10","","","","",""
"null","<p style=""font-size: 80px;"">+ 10 points</p>","null","html-keyboard-response","188","770451","0.0-11.0-2.187","611119b66c980fffcfea9e71","lsdx0m","SH","26","F","{""name"":""Chrome"",""chrome"":true,""version"":""106.0"",""blink"":true,""windows"":true,""osname"":""Windows"",""osversion"":""10"",""a"":true}","9:10:38","1","3","Test_2","74","j","1","561.3000000715256","1536 x 864","1347 x 832","true","1","10","","","","",""
"null","<p style=""font-size: 80px;"">+ 10 points</p>","null","html-keyboard-response","189","773036","0.0-11.0-2.188","611119b66c980fffcfea9e71","lsdx0m","SH","26","F","{""name"":""Chrome"",""chrome"":true,""version"":""106.0"",""blink"":true,""windows"":true,""osname"":""Windows"",""osversion"":""10"",""a"":true}","9:10:38","1","3","Test_2","74","j","1","556.3999999761581","1536 x 864","1347 x 832","true","1","10","","","","",""
