"rt","stimulus","key_press","trial_type","trial_index","time_elapsed","internal_node_id","Prolific_ID","random_ID","initials","age","gender","pc_info","start_time","Phase","Rule","Stimulus","Response","CorrResp","Accuracy","ResponseTime","screen_resolution","window_resolution","focus","relevant","Points","responses","question_order","rev_check","butterfly_check","passed_practice"
"null","<p style=""font-size: 80px;"">+ 0 points</p>","null","html-keyboard-response","1","401994","0.0-7.0-2.0","616481a4ecc956103a021a3d","5rwk01","CL","33","M","{""name"":""Chrome"",""chrome"":true,""version"":""105.0"",""blink"":true,""windows"":true,""osname"":""Windows"",""osversion"":""10"",""a"":true}","9:23:25","0","1","Practice_2","70","j","0","2147.7000000476837","1280 x 720","1920 x 1080","true","1","0","","","","",""
"null","<p style=""font-size: 80px;"">+ 10 points</p>","null","html-keyboard-response","2","405892","0.0-7.0-2.1","616481a4ecc956103a021a3d","5rwk01","CL","33","M","{""name"":""Chrome"",""chrome"":true,""version"":""105.0"",""blink"":true,""windows"":true,""osname"":""Windows"",""osversion"":""10"",""a"":true}","9:23:25","0","1","Practice_2","74","j","1","1879.7999999523163","1280 x 720","1920 x 1080","true","1","10","","","","",""
"null","<p style=""font-size: 80px;"">+ 10 points</p>","null","html-keyboard-response","3","409409","0.0-7.0-2.2","616481a4ecc956103a021a3d","5rwk01","CL","33","M","{""name"":""Chrome"",""chrome"":true,""version"":""105.0"",""blink"":true,""windows"":true,""osname"":""Windows"",""osversion"":""10"",""a"":true}","9:23:25","0","1","Practice_1","70","f","1","1502.8999999761581","1280 x 720","1920 x 1080","true","1","10","","","","",""
"null","<p style=""font-size: 80px;"">+ 10 points</p>","null","html-keyboard-response","4","414262","0.0-7.0-2.3","616481a4ecc956103a021a3d","5rwk01","CL","33","M","{""name"":""Chrome"",""chrome"":true,""version"":""105.0"",""blink"":true,""windows"":true,""osname"":""Windows"",""osversion"":""10"",""a"":true}","9:23:25","0","1","Practice_3","70","f","1","2831","1280 x 720","1920 x 1080","true","1","10","","","","",""
"null","<p style=""font-size: 80px;"">+ 10 points</p>","null","html-keyboard-response","5","417155","0.0-7.0-2.4","616481a4ecc956103a021a3d","5rwk01","CL","33","M","{""name"":""Chrome"",""chrome"":true,""version"":""105.0"",""blink"":true,""windows"":true,""osname"":""Windows"",""osversion"":""10"",""a"":true}","9:23:25","0","1","Practice_1","70","f","1","870.5","1280 x 720","1920 x 1080","true","1","10","","","","",""
"null","<p style=""font-size: 80px;"">+ 10 points</p>","null","html-keyboard-response","6","420019","0.0-7.0-2.5","616481a4ecc956103a021a3d","5rwk01","CL","33","M","{""name"":""Chrome"",""chrome"":true,""version"":""105.0"",""blink"":true,""windows"":true,""osname"":""Windows"",""osversion"":""10"",""a"":true}","9:23:25","0","1","Practice_2","74","j","1","842.5999999046326","1280 x 720","1920 x 1080","true","1","10","","","","",""
"null","<p style=""font-size: 80px;"">+ 10 points</p>","null","html-keyboard-response","7","424123","0.0-7.0-2.6","616481a4ecc956103a021a3d","5rwk01","CL","33","M","{""name"":""Chrome"",""chrome"":true,""version"":""105.0"",""blink"":true,""windows"":true,""osname"":""Windows"",""osversion"":""10"",""a"":true}","9:23:25","0","1","Practice_4","74","j","1","2067.5","1280 x 720","1920 x 1080","true","1","10","","","","",""
"null","<p style=""font-size: 80px;"">+ 0 points</p>","null","html-keyboard-response","8","428830","0.0-7.0-2.7","616481a4ecc956103a021a3d","5rwk01","CL","33","M","{""name"":""Chrome"",""chrome"":true,""version"":""105.0"",""blink"":true,""windows"":true,""osname"":""Windows"",""osversion"":""10"",""a"":true}","9:23:25","0","1","Practice_1","74","f","0","2685.2999999523163","1280 x 720","1920 x 1080","true","1","0","","","","",""
"null","<p style=""font-size: 80px;"">+ 10 points</p>","null","html-keyboard-response","9","431568","0.0-7.0-2.8","616481a4ecc956103a021a3d","5rwk01","CL","33","M","{""name"":""Chrome"",""chrome"":true,""version"":""105.0"",""blink"":true,""windows"":true,""osname"":""Windows"",""osversion"":""10"",""a"":true}","9:23:25","0","1","Practice_4","74","j","1","714.3000000715256","1280 x 720","1920 x 1080","true","1","10","","","","",""
"null","<p style=""font-size: 80px;"">+ 10 points</p>","null","html-keyboard-response","10","434292","0.0-7.0-2.9","616481a4ecc956103a021a3d","5rwk01","CL","33","M","{""name"":""Chrome"",""chrome"":true,""version"":""105.0"",""blink"":true,""windows"":true,""osname"":""Windows"",""osversion"":""10"",""a"":true}","9:23:25","0","1","Practice_3","70","f","1","708.6000000238419","1280 x 720","1920 x 1080","true","1","10","","","","",""
"null","<p style=""font-size: 80px;"">+ 10 points</p>","null","html-keyboard-response","11","436881","0.0-7.0-2.10","616481a4ecc956103a021a3d","5rwk01","CL","33","M","{""name"":""Chrome"",""chrome"":true,""version"":""105.0"",""blink"":true,""windows"":true,""osname"":""Windows"",""osversion"":""10"",""a"":true}","9:23:25","0","1","Practice_3","70","f","1","575.1000000238419","1280 x 720","1920 x 1080","true","1","10","","","","",""
"null","<p style=""font-size: 80px;"">+ 10 points</p>","null","html-keyboard-response","12","439573","0.0-7.0-2.11","616481a4ecc956103a021a3d","5rwk01","CL","33","M","{""name"":""Chrome"",""chrome"":true,""version"":""105.0"",""blink"":true,""windows"":true,""osname"":""Windows"",""osversion"":""10"",""a"":true}","9:23:25","0","1","Practice_1","70","f","1","679","1280 x 720","1920 x 1080","true","1","10","","","","",""
"null","<p style=""font-size: 80px;"">+ 10 points</p>","null","html-keyboard-response","13","442093","0.0-7.0-2.12","616481a4ecc956103a021a3d","5rwk01","CL","33","M","{""name"":""Chrome"",""chrome"":true,""version"":""105.0"",""blink"":true,""windows"":true,""osname"":""Windows"",""osversion"":""10"",""a"":true}","9:23:25","0","1","Practice_2","74","j","1","502.60000002384186","1280 x 720","1920 x 1080","true","1","10","","","","",""
"null","<p style=""font-size: 80px;"">+ 10 points</p>","null","html-keyboard-response","14","444725","0.0-7.0-2.13","616481a4ecc956103a021a3d","5rwk01","CL","33","M","{""name"":""Chrome"",""chrome"":true,""version"":""105.0"",""blink"":true,""windows"":true,""osname"":""Windows"",""osversion"":""10"",""a"":true}","9:23:25","0","1","Practice_1","70","f","1","610.7999999523163","1280 x 720","1920 x 1080","true","1","10","","","","",""
"null","<p style=""font-size: 80px;"">+ 10 points</p>","null","html-keyboard-response","15","447316","0.0-7.0-2.14","616481a4ecc956103a021a3d","5rwk01","CL","33","M","{""name"":""Chrome"",""chrome"":true,""version"":""105.0"",""blink"":true,""windows"":true,""osname"":""Windows"",""osversion"":""10"",""a"":true}","9:23:25","0","1","Practice_4","74","j","1","572.8999999761581","1280 x 720","1920 x 1080","true","1","10","","","","",""
"null","<p style=""font-size: 80px;"">+ 10 points</p>","null","html-keyboard-response","16","449906","0.0-7.0-2.15","616481a4ecc956103a021a3d","5rwk01","CL","33","M","{""name"":""Chrome"",""chrome"":true,""version"":""105.0"",""blink"":true,""windows"":true,""osname"":""Windows"",""osversion"":""10"",""a"":true}","9:23:25","0","1","Practice_3","70","f","1","558.5","1280 x 720","1920 x 1080","true","1","10","","","","",""
"null","<p style=""font-size: 80px;"">+ 10 points</p>","null","html-keyboard-response","17","452459","0.0-7.0-2.16","616481a4ecc956103a021a3d","5rwk01","CL","33","M","{""name"":""Chrome"",""chrome"":true,""version"":""105.0"",""blink"":true,""windows"":true,""osname"":""Windows"",""osversion"":""10"",""a"":true}","9:23:25","0","1","Practice_4","74","j","1","537","1280 x 720","1920 x 1080","true","1","10","","","","",""
"null","<p style=""font-size: 80px;"">+ 10 points</p>","null","html-keyboard-response","18","455194","0.0-7.0-2.17","616481a4ecc956103a021a3d","5rwk01","CL","33","M","{""name"":""Chrome"",""chrome"":true,""version"":""105.0"",""blink"":true,""windows"":true,""osname"":""Windows"",""osversion"":""10"",""a"":true}","9:23:25","0","1","Practice_2","74","j","1","713.2000000476837","1280 x 720","1920 x 1080","true","1","10","","","","",""
"null","<p style=""font-size: 80px;"">+ 10 points</p>","null","html-keyboard-response","19","458105","0.0-7.0-2.18","616481a4ecc956103a021a3d","5rwk01","CL","33","M","{""name"":""Chrome"",""chrome"":true,""version"":""105.0"",""blink"":true,""windows"":true,""osname"":""Windows"",""osversion"":""10"",""a"":true}","9:23:25","0","1","Practice_4","74","j","1","893.2999999523163","1280 x 720","1920 x 1080","true","1","10","","","","",""
"null","<p style=""font-size: 80px;"">+ 10 points</p>","null","html-keyboard-response","20","460766","0.0-7.0-2.19","616481a4ecc956103a021a3d","5rwk01","CL","33","M","{""name"":""Chrome"",""chrome"":true,""version"":""105.0"",""blink"":true,""windows"":true,""osname"":""Windows"",""osversion"":""10"",""a"":true}","9:23:25","0","1","Practice_3","70","f","1","635","1280 x 720","1920 x 1080","true","1","10","","","","",""
"null","<p style=""font-size: 80px;"">+ 0 points</p>","null","html-keyboard-response","21","463689","0.0-7.0-2.20","616481a4ecc956103a021a3d","5rwk01","CL","33","M","{""name"":""Chrome"",""chrome"":true,""version"":""105.0"",""blink"":true,""windows"":true,""osname"":""Windows"",""osversion"":""10"",""a"":true}","9:23:25","0","2","Practice_2","74","f","0","892.8999999761581","1280 x 720","1920 x 1080","true","1","0","","","","",""
"null","<p style=""font-size: 80px;"">+ 0 points</p>","null","html-keyboard-response","22","466723","0.0-7.0-2.21","616481a4ecc956103a021a3d","5rwk01","CL","33","M","{""name"":""Chrome"",""chrome"":true,""version"":""105.0"",""blink"":true,""windows"":true,""osname"":""Windows"",""osversion"":""10"",""a"":true}","9:23:25","0","2","Practice_1","70","j","0","1005.1000000238419","1280 x 720","1920 x 1080","true","1","0","","","","",""
"null","<p style=""font-size: 80px;"">+ 10 points</p>","null","html-keyboard-response","23","469445","0.0-7.0-2.22","616481a4ecc956103a021a3d","5rwk01","CL","33","M","{""name"":""Chrome"",""chrome"":true,""version"":""105.0"",""blink"":true,""windows"":true,""osname"":""Windows"",""osversion"":""10"",""a"":true}","9:23:25","0","2","Practice_2","70","f","1","693.5","1280 x 720","1920 x 1080","true","1","10","","","","",""
"null","<p style=""font-size: 80px;"">+ 10 points</p>","null","html-keyboard-response","24","472071","0.0-7.0-2.23","616481a4ecc956103a021a3d","5rwk01","CL","33","M","{""name"":""Chrome"",""chrome"":true,""version"":""105.0"",""blink"":true,""windows"":true,""osname"":""Windows"",""osversion"":""10"",""a"":true}","9:23:25","0","2","Practice_4","70","f","1","594.6000000238419","1280 x 720","1920 x 1080","true","1","10","","","","",""
"null","<p style=""font-size: 80px;"">+ 10 points</p>","null","html-keyboard-response","25","474893","0.0-7.0-2.24","616481a4ecc956103a021a3d","5rwk01","CL","33","M","{""name"":""Chrome"",""chrome"":true,""version"":""105.0"",""blink"":true,""windows"":true,""osname"":""Windows"",""osversion"":""10"",""a"":true}","9:23:25","0","2","Practice_3","74","j","1","788.8999999761581","1280 x 720","1920 x 1080","true","1","10","","","","",""
"null","<p style=""font-size: 80px;"">+ 10 points</p>","null","html-keyboard-response","26","478205","0.0-7.0-2.25","616481a4ecc956103a021a3d","5rwk01","CL","33","M","{""name"":""Chrome"",""chrome"":true,""version"":""105.0"",""blink"":true,""windows"":true,""osname"":""Windows"",""osversion"":""10"",""a"":true}","9:23:25","0","2","Practice_4","70","f","1","1287.3999999761581","1280 x 720","1920 x 1080","true","1","10","","","","",""
"null","<p style=""font-size: 80px;"">+ 10 points</p>","null","html-keyboard-response","27","481475","0.0-7.0-2.26","616481a4ecc956103a021a3d","5rwk01","CL","33","M","{""name"":""Chrome"",""chrome"":true,""version"":""105.0"",""blink"":true,""windows"":true,""osname"":""Windows"",""osversion"":""10"",""a"":true}","9:23:25","0","2","Practice_1","74","j","1","1258","1280 x 720","1920 x 1080","true","1","10","","","","",""
"null","<p style=""font-size: 80px;"">+ 10 points</p>","null","html-keyboard-response","28","484283","0.0-7.0-2.27","616481a4ecc956103a021a3d","5rwk01","CL","33","M","{""name"":""Chrome"",""chrome"":true,""version"":""105.0"",""blink"":true,""windows"":true,""osname"":""Windows"",""osversion"":""10"",""a"":true}","9:23:25","0","2","Practice_4","70","f","1","794.7000000476837","1280 x 720","1920 x 1080","true","1","10","","","","",""
"null","<p style=""font-size: 80px;"">+ 10 points</p>","null","html-keyboard-response","29","487623","0.0-7.0-2.28","616481a4ecc956103a021a3d","5rwk01","CL","33","M","{""name"":""Chrome"",""chrome"":true,""version"":""105.0"",""blink"":true,""windows"":true,""osname"":""Windows"",""osversion"":""10"",""a"":true}","9:23:25","0","2","Practice_3","74","j","1","1326","1280 x 720","1920 x 1080","true","1","10","","","","",""
"null","<p style=""font-size: 80px;"">+ 10 points</p>","null","html-keyboard-response","30","490378","0.0-7.0-2.29","616481a4ecc956103a021a3d","5rwk01","CL","33","M","{""name"":""Chrome"",""chrome"":true,""version"":""105.0"",""blink"":true,""windows"":true,""osname"":""Windows"",""osversion"":""10"",""a"":true}","9:23:25","0","2","Practice_1","74","j","1","736.5999999046326","1280 x 720","1920 x 1080","true","1","10","","","","",""
"null","<p style=""font-size: 80px;"">+ 10 points</p>","null","html-keyboard-response","31","494056","0.0-7.0-2.30","616481a4ecc956103a021a3d","5rwk01","CL","33","M","{""name"":""Chrome"",""chrome"":true,""version"":""105.0"",""blink"":true,""windows"":true,""osname"":""Windows"",""osversion"":""10"",""a"":true}","9:23:25","0","2","Practice_2","70","f","1","1667.7999999523163","1280 x 720","1920 x 1080","true","1","10","","","","",""
"null","<p style=""font-size: 80px;"">+ 0 points</p>","null","html-keyboard-response","32","497591","0.0-7.0-2.31","616481a4ecc956103a021a3d","5rwk01","CL","33","M","{""name"":""Chrome"",""chrome"":true,""version"":""105.0"",""blink"":true,""windows"":true,""osname"":""Windows"",""osversion"":""10"",""a"":true}","9:23:25","0","2","Practice_3","70","j","0","1515.1000000238419","1280 x 720","1920 x 1080","true","1","0","","","","",""
"null","<p style=""font-size: 80px;"">+ 10 points</p>","null","html-keyboard-response","33","500755","0.0-7.0-2.32","616481a4ecc956103a021a3d","5rwk01","CL","33","M","{""name"":""Chrome"",""chrome"":true,""version"":""105.0"",""blink"":true,""windows"":true,""osname"":""Windows"",""osversion"":""10"",""a"":true}","9:23:25","0","2","Practice_2","70","f","1","1145.2999999523163","1280 x 720","1920 x 1080","true","1","10","","","","",""
"null","<p style=""font-size: 80px;"">+ 0 points</p>","null","html-keyboard-response","34","503814","0.0-7.0-2.33","616481a4ecc956103a021a3d","5rwk01","CL","33","M","{""name"":""Chrome"",""chrome"":true,""version"":""105.0"",""blink"":true,""windows"":true,""osname"":""Windows"",""osversion"":""10"",""a"":true}","9:23:25","0","2","Practice_3","70","j","0","1043.1000000238419","1280 x 720","1920 x 1080","true","1","0","","","","",""
"null","<p style=""font-size: 80px;"">+ 10 points</p>","null","html-keyboard-response","35","506857","0.0-7.0-2.34","616481a4ecc956103a021a3d","5rwk01","CL","33","M","{""name"":""Chrome"",""chrome"":true,""version"":""105.0"",""blink"":true,""windows"":true,""osname"":""Windows"",""osversion"":""10"",""a"":true}","9:23:25","0","2","Practice_4","70","f","1","1017","1280 x 720","1920 x 1080","true","1","10","","","","",""
"null","<p style=""font-size: 80px;"">+ 10 points</p>","null","html-keyboard-response","36","509841","0.0-7.0-2.35","616481a4ecc956103a021a3d","5rwk01","CL","33","M","{""name"":""Chrome"",""chrome"":true,""version"":""105.0"",""blink"":true,""windows"":true,""osname"":""Windows"",""osversion"":""10"",""a"":true}","9:23:25","0","2","Practice_1","74","j","1","974.3000000715256","1280 x 720","1920 x 1080","true","1","10","","","","",""
"null","<p style=""font-size: 80px;"">+ 10 points</p>","null","html-keyboard-response","37","514148","0.0-7.0-2.36","616481a4ecc956103a021a3d","5rwk01","CL","33","M","{""name"":""Chrome"",""chrome"":true,""version"":""105.0"",""blink"":true,""windows"":true,""osname"":""Windows"",""osversion"":""10"",""a"":true}","9:23:25","0","2","Practice_3","74","j","1","2296.5","1280 x 720","1920 x 1080","true","1","10","","","","",""
"null","<p style=""font-size: 80px;"">+ 10 points</p>","null","html-keyboard-response","38","516779","0.0-7.0-2.37","616481a4ecc956103a021a3d","5rwk01","CL","33","M","{""name"":""Chrome"",""chrome"":true,""version"":""105.0"",""blink"":true,""windows"":true,""osname"":""Windows"",""osversion"":""10"",""a"":true}","9:23:25","0","2","Practice_1","74","j","1","601.8000000715256","1280 x 720","1920 x 1080","true","1","10","","","","",""
"null","<p style=""font-size: 80px;"">+ 10 points</p>","null","html-keyboard-response","39","519857","0.0-7.0-2.38","616481a4ecc956103a021a3d","5rwk01","CL","33","M","{""name"":""Chrome"",""chrome"":true,""version"":""105.0"",""blink"":true,""windows"":true,""osname"":""Windows"",""osversion"":""10"",""a"":true}","9:23:25","0","2","Practice_4","70","f","1","1064.3000000715256","1280 x 720","1920 x 1080","true","1","10","","","","",""
"null","<p style=""font-size: 80px;"">+ 10 points</p>","null","html-keyboard-response","40","523026","0.0-7.0-2.39","616481a4ecc956103a021a3d","5rwk01","CL","33","M","{""name"":""Chrome"",""chrome"":true,""version"":""105.0"",""blink"":true,""windows"":true,""osname"":""Windows"",""osversion"":""10"",""a"":true}","9:23:25","0","2","Practice_2","70","f","1","1149.1000000238419","1280 x 720","1920 x 1080","true","1","10","","","","",""
"16976.899999976158","","","survey-multi-choice","127","540013","0.0-8.0","616481a4ecc956103a021a3d","5rwk01","CL","33","M","{""name"":""Chrome"",""chrome"":true,""version"":""105.0"",""blink"":true,""windows"":true,""osname"":""Windows"",""osversion"":""10"",""a"":true}","9:23:25","","","","","","","","","","","1","","{""Q0"":""The red one"",""Q1"":""1""}","[0,1]","1","The red one","2"
"null","<p style=""font-size: 80px;"">+ 0 points</p>","null","html-keyboard-response","1","555592","0.0-11.0-2.0","616481a4ecc956103a021a3d","5rwk01","CL","33","M","{""name"":""Chrome"",""chrome"":true,""version"":""105.0"",""blink"":true,""windows"":true,""osname"":""Windows"",""osversion"":""10"",""a"":true}","9:23:25","1","3","Test_4","70","j","0","1062","1280 x 720","1920 x 1080","true","1","0","","","","",""
"null","<p style=""font-size: 80px;"">+ 10 points</p>","null","html-keyboard-response","2","558403","0.0-11.0-2.1","616481a4ecc956103a021a3d","5rwk01","CL","33","M","{""name"":""Chrome"",""chrome"":true,""version"":""105.0"",""blink"":true,""windows"":true,""osname"":""Windows"",""osversion"":""10"",""a"":true}","9:23:25","1","3","Test_4","74","j","1","781.8999999761581","1280 x 720","1920 x 1080","true","1","10","","","","",""
"null","<p style=""font-size: 80px;"">+ 10 points</p>","null","html-keyboard-response","3","561823","0.0-11.0-2.2","616481a4ecc956103a021a3d","5rwk01","CL","33","M","{""name"":""Chrome"",""chrome"":true,""version"":""105.0"",""blink"":true,""windows"":true,""osname"":""Windows"",""osversion"":""10"",""a"":true}","9:23:25","1","3","Test_4","74","j","1","1387.6000000238419","1280 x 720","1920 x 1080","true","1","10","","","","",""
"null","<p style=""font-size: 80px;"">+ 10 points</p>","null","html-keyboard-response","4","565562","0.0-11.0-2.3","616481a4ecc956103a021a3d","5rwk01","CL","33","M","{""name"":""Chrome"",""chrome"":true,""version"":""105.0"",""blink"":true,""windows"":true,""osname"":""Windows"",""osversion"":""10"",""a"":true}","9:23:25","1","3","Test_2","74","j","1","1709.8999999761581","1280 x 720","1920 x 1080","true","1","10","","","","",""
"null","<p style=""font-size: 80px;"">+ 10 points</p>","null","html-keyboard-response","5","568608","0.0-11.0-2.4","616481a4ecc956103a021a3d","5rwk01","CL","33","M","{""name"":""Chrome"",""chrome"":true,""version"":""105.0"",""blink"":true,""windows"":true,""osname"":""Windows"",""osversion"":""10"",""a"":true}","9:23:25","1","3","Test_3","70","f","1","1017.5","1280 x 720","1920 x 1080","true","1","10","","","","",""
"null","<p style=""font-size: 80px;"">+ 10 points</p>","null","html-keyboard-response","6","572460","0.0-11.0-2.5","616481a4ecc956103a021a3d","5rwk01","CL","33","M","{""name"":""Chrome"",""chrome"":true,""version"":""105.0"",""blink"":true,""windows"":true,""osname"":""Windows"",""osversion"":""10"",""a"":true}","9:23:25","1","3","Test_3","70","f","1","1834.7000000476837","1280 x 720","1920 x 1080","true","1","10","","","","",""
"null","<p style=""font-size: 80px;"">+ 10 points</p>","null","html-keyboard-response","7","575214","0.0-11.0-2.6","616481a4ecc956103a021a3d","5rwk01","CL","33","M","{""name"":""Chrome"",""chrome"":true,""version"":""105.0"",""blink"":true,""windows"":true,""osname"":""Windows"",""osversion"":""10"",""a"":true}","9:23:25","1","3","Test_2","74","j","1","738.8000000715256","1280 x 720","1920 x 1080","true","1","10","","","","",""
"null","<p style=""font-size: 80px;"">+ 10 points</p>","null","html-keyboard-response","8","577985","0.0-11.0-2.7","616481a4ecc956103a021a3d","5rwk01","CL","33","M","{""name"":""Chrome"",""chrome"":true,""version"":""105.0"",""blink"":true,""windows"":true,""osname"":""Windows"",""osversion"":""10"",""a"":true}","9:23:25","1","3","Test_4","74","j","1","764.5999999046326","1280 x 720","1920 x 1080","true","1","10","","","","",""
"null","<p style=""font-size: 80px;"">+ 10 points</p>","null","html-keyboard-response","9","580631","0.0-11.0-2.8","616481a4ecc956103a021a3d","5rwk01","CL","33","M","{""name"":""Chrome"",""chrome"":true,""version"":""105.0"",""blink"":true,""windows"":true,""osname"":""Windows"",""osversion"":""10"",""a"":true}","9:23:25","1","3","Test_3","70","f","1","624.7999999523163","1280 x 720","1920 x 1080","true","1","10","","","","",""
"null","<p style=""font-size: 80px;"">+ 10 points</p>","null","html-keyboard-response","10","583904","0.0-11.0-2.9","616481a4ecc956103a021a3d","5rwk01","CL","33","M","{""name"":""Chrome"",""chrome"":true,""version"":""105.0"",""blink"":true,""windows"":true,""osname"":""Windows"",""osversion"":""10"",""a"":true}","9:23:25","1","3","Test_3","70","f","1","1245","1280 x 720","1920 x 1080","true","1","10","","","","",""
"null","<p style=""font-size: 80px;"">+ 10 points</p>","null","html-keyboard-response","11","586933","0.0-11.0-2.10","616481a4ecc956103a021a3d","5rwk01","CL","33","M","{""name"":""Chrome"",""chrome"":true,""version"":""105.0"",""blink"":true,""windows"":true,""osname"":""Windows"",""osversion"":""10"",""a"":true}","9:23:25","1","3","Test_3","70","f","1","994","1280 x 720","1920 x 1080","true","1","10","","","","",""
"null","<p style=""font-size: 80px;"">+ 10 points</p>","null","html-keyboard-response","12","590294","0.0-11.0-2.11","616481a4ecc956103a021a3d","5rwk01","CL","33","M","{""name"":""Chrome"",""chrome"":true,""version"":""105.0"",""blink"":true,""windows"":true,""osname"":""Windows"",""osversion"":""10"",""a"":true}","9:23:25","1","3","Test_1","70","f","1","1338.7999999523163","1280 x 720","1920 x 1080","true","1","10","","","","",""
"null","<p style=""font-size: 80px;"">+ 10 points</p>","null","html-keyboard-response","13","594382","0.0-11.0-2.12","616481a4ecc956103a021a3d","5rwk01","CL","33","M","{""name"":""Chrome"",""chrome"":true,""version"":""105.0"",""blink"":true,""windows"":true,""osname"":""Windows"",""osversion"":""10"",""a"":true}","9:23:25","1","3","Test_2","74","j","1","2060.7000000476837","1280 x 720","1920 x 1080","true","1","10","","","","",""
"null","<p style=""font-size: 80px;"">+ 10 points</p>","null","html-keyboard-response","14","597491","0.0-11.0-2.13","616481a4ecc956103a021a3d","5rwk01","CL","33","M","{""name"":""Chrome"",""chrome"":true,""version"":""105.0"",""blink"":true,""windows"":true,""osname"":""Windows"",""osversion"":""10"",""a"":true}","9:23:25","1","3","Test_2","74","j","1","1096.1999999284744","1280 x 720","1920 x 1080","true","1","10","","","","",""
"null","<p style=""font-size: 80px;"">+ 10 points</p>","null","html-keyboard-response","15","600358","0.0-11.0-2.14","616481a4ecc956103a021a3d","5rwk01","CL","33","M","{""name"":""Chrome"",""chrome"":true,""version"":""105.0"",""blink"":true,""windows"":true,""osname"":""Windows"",""osversion"":""10"",""a"":true}","9:23:25","1","3","Test_1","70","f","1","854.5","1280 x 720","1920 x 1080","true","1","10","","","","",""
"null","<p style=""font-size: 80px;"">+ 10 points</p>","null","html-keyboard-response","16","602852","0.0-11.0-2.15","616481a4ecc956103a021a3d","5rwk01","CL","33","M","{""name"":""Chrome"",""chrome"":true,""version"":""105.0"",""blink"":true,""windows"":true,""osname"":""Windows"",""osversion"":""10"",""a"":true}","9:23:25","1","3","Test_1","70","f","1","476.5","1280 x 720","1920 x 1080","true","1","10","","","","",""
"null","<p style=""font-size: 80px;"">+ 10 points</p>","null","html-keyboard-response","17","605651","0.0-11.0-2.16","616481a4ecc956103a021a3d","5rwk01","CL","33","M","{""name"":""Chrome"",""chrome"":true,""version"":""105.0"",""blink"":true,""windows"":true,""osname"":""Windows"",""osversion"":""10"",""a"":true}","9:23:25","1","3","Test_4","74","j","1","780.2000000476837","1280 x 720","1920 x 1080","true","1","10","","","","",""
"null","<p style=""font-size: 80px;"">+ 10 points</p>","null","html-keyboard-response","18","608415","0.0-11.0-2.17","616481a4ecc956103a021a3d","5rwk01","CL","33","M","{""name"":""Chrome"",""chrome"":true,""version"":""105.0"",""blink"":true,""windows"":true,""osname"":""Windows"",""osversion"":""10"",""a"":true}","9:23:25","1","3","Test_2","74","j","1","756.3000000715256","1280 x 720","1920 x 1080","true","1","10","","","","",""
"null","<p style=""font-size: 80px;"">+ 0 points</p>","null","html-keyboard-response","19","611593","0.0-11.0-2.18","616481a4ecc956103a021a3d","5rwk01","CL","33","M","{""name"":""Chrome"",""chrome"":true,""version"":""105.0"",""blink"":true,""windows"":true,""osname"":""Windows"",""osversion"":""10"",""a"":true}","9:23:25","1","4","Test_4","74","f","0","1162.7999999523163","1280 x 720","1920 x 1080","true","1","0","","","","",""
"null","<p style=""font-size: 80px;"">+ 10 points</p>","null","html-keyboard-response","20","615142","0.0-11.0-2.19","616481a4ecc956103a021a3d","5rwk01","CL","33","M","{""name"":""Chrome"",""chrome"":true,""version"":""105.0"",""blink"":true,""windows"":true,""osname"":""Windows"",""osversion"":""10"",""a"":true}","9:23:25","1","4","Test_3","74","j","1","1533.1000000238419","1280 x 720","1920 x 1080","true","1","10","","","","",""
"null","<p style=""font-size: 80px;"">+ 10 points</p>","null","html-keyboard-response","21","617728","0.0-11.0-2.20","616481a4ecc956103a021a3d","5rwk01","CL","33","M","{""name"":""Chrome"",""chrome"":true,""version"":""105.0"",""blink"":true,""windows"":true,""osname"":""Windows"",""osversion"":""10"",""a"":true}","9:23:25","1","4","Test_2","70","f","1","550.3000000715256","1280 x 720","1920 x 1080","true","1","10","","","","",""
"null","<p style=""font-size: 80px;"">+ 10 points</p>","null","html-keyboard-response","22","620655","0.0-11.0-2.21","616481a4ecc956103a021a3d","5rwk01","CL","33","M","{""name"":""Chrome"",""chrome"":true,""version"":""105.0"",""blink"":true,""windows"":true,""osname"":""Windows"",""osversion"":""10"",""a"":true}","9:23:25","1","4","Test_4","70","f","1","906.5","1280 x 720","1920 x 1080","true","1","10","","","","",""
"null","<p style=""font-size: 80px;"">+ 10 points</p>","null","html-keyboard-response","23","623205","0.0-11.0-2.22","616481a4ecc956103a021a3d","5rwk01","CL","33","M","{""name"":""Chrome"",""chrome"":true,""version"":""105.0"",""blink"":true,""windows"":true,""osname"":""Windows"",""osversion"":""10"",""a"":true}","9:23:25","1","4","Test_1","74","j","1","523.4000000953674","1280 x 720","1920 x 1080","true","1","10","","","","",""
"null","<p style=""font-size: 80px;"">+ 10 points</p>","null","html-keyboard-response","24","626487","0.0-11.0-2.23","616481a4ecc956103a021a3d","5rwk01","CL","33","M","{""name"":""Chrome"",""chrome"":true,""version"":""105.0"",""blink"":true,""windows"":true,""osname"":""Windows"",""osversion"":""10"",""a"":true}","9:23:25","1","4","Test_1","74","j","1","1260.5","1280 x 720","1920 x 1080","true","1","10","","","","",""
"null","<p style=""font-size: 80px;"">+ 10 points</p>","null","html-keyboard-response","25","629749","0.0-11.0-2.24","616481a4ecc956103a021a3d","5rwk01","CL","33","M","{""name"":""Chrome"",""chrome"":true,""version"":""105.0"",""blink"":true,""windows"":true,""osname"":""Windows"",""osversion"":""10"",""a"":true}","9:23:25","1","4","Test_2","70","f","1","1243.2999999523163","1280 x 720","1920 x 1080","true","1","10","","","","",""
"null","<p style=""font-size: 80px;"">+ 10 points</p>","null","html-keyboard-response","26","632632","0.0-11.0-2.25","616481a4ecc956103a021a3d","5rwk01","CL","33","M","{""name"":""Chrome"",""chrome"":true,""version"":""105.0"",""blink"":true,""windows"":true,""osname"":""Windows"",""osversion"":""10"",""a"":true}","9:23:25","1","4","Test_4","70","f","1","871","1280 x 720","1920 x 1080","true","1","10","","","","",""
"null","<p style=""font-size: 80px;"">+ 10 points</p>","null","html-keyboard-response","27","635547","0.0-11.0-2.26","616481a4ecc956103a021a3d","5rwk01","CL","33","M","{""name"":""Chrome"",""chrome"":true,""version"":""105.0"",""blink"":true,""windows"":true,""osname"":""Windows"",""osversion"":""10"",""a"":true}","9:23:25","1","4","Test_3","74","j","1","904.5","1280 x 720","1920 x 1080","true","1","10","","","","",""
"null","<p style=""font-size: 80px;"">+ 10 points</p>","null","html-keyboard-response","28","638420","0.0-11.0-2.27","616481a4ecc956103a021a3d","5rwk01","CL","33","M","{""name"":""Chrome"",""chrome"":true,""version"":""105.0"",""blink"":true,""windows"":true,""osname"":""Windows"",""osversion"":""10"",""a"":true}","9:23:25","1","4","Test_4","70","f","1","860","1280 x 720","1920 x 1080","true","1","10","","","","",""
"null","<p style=""font-size: 80px;"">+ 10 points</p>","null","html-keyboard-response","29","640945","0.0-11.0-2.28","616481a4ecc956103a021a3d","5rwk01","CL","33","M","{""name"":""Chrome"",""chrome"":true,""version"":""105.0"",""blink"":true,""windows"":true,""osname"":""Windows"",""osversion"":""10"",""a"":true}","9:23:25","1","4","Test_3","74","j","1","511.5","1280 x 720","1920 x 1080","true","1","10","","","","",""
"null","<p style=""font-size: 80px;"">+ 10 points</p>","null","html-keyboard-response","30","643474","0.0-11.0-2.29","616481a4ecc956103a021a3d","5rwk01","CL","33","M","{""name"":""Chrome"",""chrome"":true,""version"":""105.0"",""blink"":true,""windows"":true,""osname"":""Windows"",""osversion"":""10"",""a"":true}","9:23:25","1","4","Test_2","70","f","1","507.7000000476837","1280 x 720","1920 x 1080","true","1","10","","","","",""
"null","<p style=""font-size: 80px;"">+ 10 points</p>","null","html-keyboard-response","31","646263","0.0-11.0-2.30","616481a4ecc956103a021a3d","5rwk01","CL","33","M","{""name"":""Chrome"",""chrome"":true,""version"":""105.0"",""blink"":true,""windows"":true,""osname"":""Windows"",""osversion"":""10"",""a"":true}","9:23:25","1","4","Test_3","74","j","1","768.2999999523163","1280 x 720","1920 x 1080","true","1","10","","","","",""
"null","<p style=""font-size: 80px;"">+ 10 points</p>","null","html-keyboard-response","32","649024","0.0-11.0-2.31","616481a4ecc956103a021a3d","5rwk01","CL","33","M","{""name"":""Chrome"",""chrome"":true,""version"":""105.0"",""blink"":true,""windows"":true,""osname"":""Windows"",""osversion"":""10"",""a"":true}","9:23:25","1","4","Test_1","74","j","1","732.8999999761581","1280 x 720","1920 x 1080","true","1","10","","","","",""
"null","<p style=""font-size: 80px;"">+ 10 points</p>","null","html-keyboard-response","33","651787","0.0-11.0-2.32","616481a4ecc956103a021a3d","5rwk01","CL","33","M","{""name"":""Chrome"",""chrome"":true,""version"":""105.0"",""blink"":true,""windows"":true,""osname"":""Windows"",""osversion"":""10"",""a"":true}","9:23:25","1","4","Test_4","70","f","1","737.8999999761581","1280 x 720","1920 x 1080","true","1","10","","","","",""
"null","<p style=""font-size: 80px;"">+ 10 points</p>","null","html-keyboard-response","34","654407","0.0-11.0-2.33","616481a4ecc956103a021a3d","5rwk01","CL","33","M","{""name"":""Chrome"",""chrome"":true,""version"":""105.0"",""blink"":true,""windows"":true,""osname"":""Windows"",""osversion"":""10"",""a"":true}","9:23:25","1","4","Test_2","70","f","1","604","1280 x 720","1920 x 1080","true","1","10","","","","",""
"null","<p style=""font-size: 80px;"">+ 10 points</p>","null","html-keyboard-response","35","656892","0.0-11.0-2.34","616481a4ecc956103a021a3d","5rwk01","CL","33","M","{""name"":""Chrome"",""chrome"":true,""version"":""105.0"",""blink"":true,""windows"":true,""osname"":""Windows"",""osversion"":""10"",""a"":true}","9:23:25","1","4","Test_2","70","f","1","459.40000009536743","1280 x 720","1920 x 1080","true","1","10","","","","",""
"null","<p style=""font-size: 80px;"">+ 10 points</p>","null","html-keyboard-response","36","659661","0.0-11.0-2.35","616481a4ecc956103a021a3d","5rwk01","CL","33","M","{""name"":""Chrome"",""chrome"":true,""version"":""105.0"",""blink"":true,""windows"":true,""osname"":""Windows"",""osversion"":""10"",""a"":true}","9:23:25","1","4","Test_3","74","j","1","749.3999999761581","1280 x 720","1920 x 1080","true","1","10","","","","",""
"null","<p style=""font-size: 80px;"">+ 10 points</p>","null","html-keyboard-response","37","662612","0.0-11.0-2.36","616481a4ecc956103a021a3d","5rwk01","CL","33","M","{""name"":""Chrome"",""chrome"":true,""version"":""105.0"",""blink"":true,""windows"":true,""osname"":""Windows"",""osversion"":""10"",""a"":true}","9:23:25","1","4","Test_1","74","j","1","926","1280 x 720","1920 x 1080","true","1","10","","","","",""
"null","<p style=""font-size: 80px;"">+ 10 points</p>","null","html-keyboard-response","38","665100","0.0-11.0-2.37","616481a4ecc956103a021a3d","5rwk01","CL","33","M","{""name"":""Chrome"",""chrome"":true,""version"":""105.0"",""blink"":true,""windows"":true,""osname"":""Windows"",""osversion"":""10"",""a"":true}","9:23:25","1","4","Test_1","74","j","1","474.09999990463257","1280 x 720","1920 x 1080","true","1","10","","","","",""
"null","<p style=""font-size: 80px;"">+ 10 points</p>","null","html-keyboard-response","39","668052","0.0-11.0-2.38","616481a4ecc956103a021a3d","5rwk01","CL","33","M","{""name"":""Chrome"",""chrome"":true,""version"":""105.0"",""blink"":true,""windows"":true,""osname"":""Windows"",""osversion"":""10"",""a"":true}","9:23:25","1","4","Test_4","70","f","1","934.1000000238419","1280 x 720","1920 x 1080","true","1","10","","","","",""
"null","<p style=""font-size: 80px;"">+ 10 points</p>","null","html-keyboard-response","40","670593","0.0-11.0-2.39","616481a4ecc956103a021a3d","5rwk01","CL","33","M","{""name"":""Chrome"",""chrome"":true,""version"":""105.0"",""blink"":true,""windows"":true,""osname"":""Windows"",""osversion"":""10"",""a"":true}","9:23:25","1","4","Test_1","74","j","1","524.3999999761581","1280 x 720","1920 x 1080","true","1","10","","","","",""
"null","<p style=""font-size: 80px;"">+ 10 points</p>","null","html-keyboard-response","41","673427","0.0-11.0-2.40","616481a4ecc956103a021a3d","5rwk01","CL","33","M","{""name"":""Chrome"",""chrome"":true,""version"":""105.0"",""blink"":true,""windows"":true,""osname"":""Windows"",""osversion"":""10"",""a"":true}","9:23:25","1","4","Test_2","70","f","1","817","1280 x 720","1920 x 1080","true","1","10","","","","",""
"null","<p style=""font-size: 80px;"">+ 0 points</p>","null","html-keyboard-response","42","676569","0.0-11.0-2.41","616481a4ecc956103a021a3d","5rwk01","CL","33","M","{""name"":""Chrome"",""chrome"":true,""version"":""105.0"",""blink"":true,""windows"":true,""osname"":""Windows"",""osversion"":""10"",""a"":true}","9:23:25","1","3","Test_2","70","j","0","1122.7999999523163","1280 x 720","1920 x 1080","true","1","0","","","","",""
"null","<p style=""font-size: 80px;"">+ 10 points</p>","null","html-keyboard-response","43","679003","0.0-11.0-2.42","616481a4ecc956103a021a3d","5rwk01","CL","33","M","{""name"":""Chrome"",""chrome"":true,""version"":""105.0"",""blink"":true,""windows"":true,""osname"":""Windows"",""osversion"":""10"",""a"":true}","9:23:25","1","3","Test_3","70","f","1","415","1280 x 720","1920 x 1080","true","1","10","","","","",""
"null","<p style=""font-size: 80px;"">+ 0 points</p>","null","html-keyboard-response","44","682428","0.0-11.0-2.43","616481a4ecc956103a021a3d","5rwk01","CL","33","M","{""name"":""Chrome"",""chrome"":true,""version"":""105.0"",""blink"":true,""windows"":true,""osname"":""Windows"",""osversion"":""10"",""a"":true}","9:23:25","1","3","Test_1","74","f","0","1415.3999999761581","1280 x 720","1920 x 1080","true","1","0","","","","",""
"null","<p style=""font-size: 80px;"">+ 10 points</p>","null","html-keyboard-response","45","685188","0.0-11.0-2.44","616481a4ecc956103a021a3d","5rwk01","CL","33","M","{""name"":""Chrome"",""chrome"":true,""version"":""105.0"",""blink"":true,""windows"":true,""osname"":""Windows"",""osversion"":""10"",""a"":true}","9:23:25","1","3","Test_4","74","j","1","736.3999999761581","1280 x 720","1920 x 1080","true","1","10","","","","",""
"null","<p style=""font-size: 80px;"">+ 10 points</p>","null","html-keyboard-response","46","688166","0.0-11.0-2.45","616481a4ecc956103a021a3d","5rwk01","CL","33","M","{""name"":""Chrome"",""chrome"":true,""version"":""105.0"",""blink"":true,""windows"":true,""osname"":""Windows"",""osversion"":""10"",""a"":true}","9:23:25","1","3","Test_2","74","j","1","949.6000000238419","1280 x 720","1920 x 1080","true","1","10","","","","",""
"null","<p style=""font-size: 80px;"">+ 10 points</p>","null","html-keyboard-response","47","690668","0.0-11.0-2.46","616481a4ecc956103a021a3d","5rwk01","CL","33","M","{""name"":""Chrome"",""chrome"":true,""version"":""105.0"",""blink"":true,""windows"":true,""osname"":""Windows"",""osversion"":""10"",""a"":true}","9:23:25","1","3","Test_2","74","j","1","488.8000000715256","1280 x 720","1920 x 1080","true","1","10","","","","",""
"null","<p style=""font-size: 80px;"">+ 10 points</p>","null","html-keyboard-response","48","693359","0.0-11.0-2.47","616481a4ecc956103a021a3d","5rwk01","CL","33","M","{""name"":""Chrome"",""chrome"":true,""version"":""105.0"",""blink"":true,""windows"":true,""osname"":""Windows"",""osversion"":""10"",""a"":true}","9:23:25","1","3","Test_3","70","f","1","678.1999999284744","1280 x 720","1920 x 1080","true","1","10","","","","",""
"null","<p style=""font-size: 80px;"">+ 10 points</p>","null","html-keyboard-response","49","696538","0.0-11.0-2.48","616481a4ecc956103a021a3d","5rwk01","CL","33","M","{""name"":""Chrome"",""chrome"":true,""version"":""105.0"",""blink"":true,""windows"":true,""osname"":""Windows"",""osversion"":""10"",""a"":true}","9:23:25","1","3","Test_4","74","j","1","1164.4000000953674","1280 x 720","1920 x 1080","true","1","10","","","","",""
"null","<p style=""font-size: 80px;"">+ 10 points</p>","null","html-keyboard-response","50","699294","0.0-11.0-2.49","616481a4ecc956103a021a3d","5rwk01","CL","33","M","{""name"":""Chrome"",""chrome"":true,""version"":""105.0"",""blink"":true,""windows"":true,""osname"":""Windows"",""osversion"":""10"",""a"":true}","9:23:25","1","3","Test_4","74","j","1","730.1000000238419","1280 x 720","1920 x 1080","true","1","10","","","","",""
"null","<p style=""font-size: 80px;"">+ 10 points</p>","null","html-keyboard-response","51","701913","0.0-11.0-2.50","616481a4ecc956103a021a3d","5rwk01","CL","33","M","{""name"":""Chrome"",""chrome"":true,""version"":""105.0"",""blink"":true,""windows"":true,""osname"":""Windows"",""osversion"":""10"",""a"":true}","9:23:25","1","3","Test_1","70","f","1","607.5","1280 x 720","1920 x 1080","true","1","10","","","","",""
"null","<p style=""font-size: 80px;"">+ 10 points</p>","null","html-keyboard-response","52","704468","0.0-11.0-2.51","616481a4ecc956103a021a3d","5rwk01","CL","33","M","{""name"":""Chrome"",""chrome"":true,""version"":""105.0"",""blink"":true,""windows"":true,""osname"":""Windows"",""osversion"":""10"",""a"":true}","9:23:25","1","3","Test_3","70","f","1","538","1280 x 720","1920 x 1080","true","1","10","","","","",""
"null","<p style=""font-size: 80px;"">+ 10 points</p>","null","html-keyboard-response","53","706983","0.0-11.0-2.52","616481a4ecc956103a021a3d","5rwk01","CL","33","M","{""name"":""Chrome"",""chrome"":true,""version"":""105.0"",""blink"":true,""windows"":true,""osname"":""Windows"",""osversion"":""10"",""a"":true}","9:23:25","1","3","Test_3","70","f","1","499.2000000476837","1280 x 720","1920 x 1080","true","1","10","","","","",""
"null","<p style=""font-size: 80px;"">+ 10 points</p>","null","html-keyboard-response","54","710367","0.0-11.0-2.53","616481a4ecc956103a021a3d","5rwk01","CL","33","M","{""name"":""Chrome"",""chrome"":true,""version"":""105.0"",""blink"":true,""windows"":true,""osname"":""Windows"",""osversion"":""10"",""a"":true}","9:23:25","1","3","Test_4","74","j","1","1367.2999999523163","1280 x 720","1920 x 1080","true","1","10","","","","",""
"null","<p style=""font-size: 80px;"">+ 10 points</p>","null","html-keyboard-response","55","713186","0.0-11.0-2.54","616481a4ecc956103a021a3d","5rwk01","CL","33","M","{""name"":""Chrome"",""chrome"":true,""version"":""105.0"",""blink"":true,""windows"":true,""osname"":""Windows"",""osversion"":""10"",""a"":true}","9:23:25","1","3","Test_1","70","f","1","811.7999999523163","1280 x 720","1920 x 1080","true","1","10","","","","",""
"null","<p style=""font-size: 80px;"">+ 10 points</p>","null","html-keyboard-response","56","716384","0.0-11.0-2.55","616481a4ecc956103a021a3d","5rwk01","CL","33","M","{""name"":""Chrome"",""chrome"":true,""version"":""105.0"",""blink"":true,""windows"":true,""osname"":""Windows"",""osversion"":""10"",""a"":true}","9:23:25","1","3","Test_3","70","f","1","1182.8999999761581","1280 x 720","1920 x 1080","true","1","10","","","","",""
"null","<p style=""font-size: 80px;"">+ 10 points</p>","null","html-keyboard-response","57","718898","0.0-11.0-2.56","616481a4ecc956103a021a3d","5rwk01","CL","33","M","{""name"":""Chrome"",""chrome"":true,""version"":""105.0"",""blink"":true,""windows"":true,""osname"":""Windows"",""osversion"":""10"",""a"":true}","9:23:25","1","3","Test_2","74","j","1","490.10000002384186","1280 x 720","1920 x 1080","true","1","10","","","","",""
"null","<p style=""font-size: 80px;"">+ 10 points</p>","null","html-keyboard-response","58","721352","0.0-11.0-2.57","616481a4ecc956103a021a3d","5rwk01","CL","33","M","{""name"":""Chrome"",""chrome"":true,""version"":""105.0"",""blink"":true,""windows"":true,""osname"":""Windows"",""osversion"":""10"",""a"":true}","9:23:25","1","3","Test_2","74","j","1","436","1280 x 720","1920 x 1080","true","1","10","","","","",""
"null","<p style=""font-size: 80px;"">+ 10 points</p>","null","html-keyboard-response","59","724824","0.0-11.0-2.58","616481a4ecc956103a021a3d","5rwk01","CL","33","M","{""name"":""Chrome"",""chrome"":true,""version"":""105.0"",""blink"":true,""windows"":true,""osname"":""Windows"",""osversion"":""10"",""a"":true}","9:23:25","1","3","Test_4","74","j","1","1459.6000000238419","1280 x 720","1920 x 1080","true","1","10","","","","",""
"null","<p style=""font-size: 80px;"">+ 10 points</p>","null","html-keyboard-response","60","728447","0.0-11.0-2.59","616481a4ecc956103a021a3d","5rwk01","CL","33","M","{""name"":""Chrome"",""chrome"":true,""version"":""105.0"",""blink"":true,""windows"":true,""osname"":""Windows"",""osversion"":""10"",""a"":true}","9:23:25","1","3","Test_1","70","f","1","1604.7999999523163","1280 x 720","1920 x 1080","true","1","10","","","","",""
"null","<p style=""font-size: 80px;"">+ 0 points</p>","null","html-keyboard-response","61","731450","0.0-11.0-2.60","616481a4ecc956103a021a3d","5rwk01","CL","33","M","{""name"":""Chrome"",""chrome"":true,""version"":""105.0"",""blink"":true,""windows"":true,""osname"":""Windows"",""osversion"":""10"",""a"":true}","9:23:25","1","4","Test_1","70","j","0","976.7000000476837","1280 x 720","1920 x 1080","true","1","0","","","","",""
"null","<p style=""font-size: 80px;"">+ 10 points</p>","null","html-keyboard-response","62","734052","0.0-11.0-2.61","616481a4ecc956103a021a3d","5rwk01","CL","33","M","{""name"":""Chrome"",""chrome"":true,""version"":""105.0"",""blink"":true,""windows"":true,""osname"":""Windows"",""osversion"":""10"",""a"":true}","9:23:25","1","4","Test_4","70","f","1","579.5","1280 x 720","1920 x 1080","true","1","10","","","","",""
"null","<p style=""font-size: 80px;"">+ 10 points</p>","null","html-keyboard-response","63","736886","0.0-11.0-2.62","616481a4ecc956103a021a3d","5rwk01","CL","33","M","{""name"":""Chrome"",""chrome"":true,""version"":""105.0"",""blink"":true,""windows"":true,""osname"":""Windows"",""osversion"":""10"",""a"":true}","9:23:25","1","4","Test_1","74","j","1","816.0999999046326","1280 x 720","1920 x 1080","true","1","10","","","","",""
"null","<p style=""font-size: 80px;"">+ 10 points</p>","null","html-keyboard-response","64","739390","0.0-11.0-2.63","616481a4ecc956103a021a3d","5rwk01","CL","33","M","{""name"":""Chrome"",""chrome"":true,""version"":""105.0"",""blink"":true,""windows"":true,""osname"":""Windows"",""osversion"":""10"",""a"":true}","9:23:25","1","4","Test_2","70","f","1","487.60000002384186","1280 x 720","1920 x 1080","true","1","10","","","","",""
"null","<p style=""font-size: 80px;"">+ 10 points</p>","null","html-keyboard-response","65","742168","0.0-11.0-2.64","616481a4ecc956103a021a3d","5rwk01","CL","33","M","{""name"":""Chrome"",""chrome"":true,""version"":""105.0"",""blink"":true,""windows"":true,""osname"":""Windows"",""osversion"":""10"",""a"":true}","9:23:25","1","4","Test_2","70","f","1","745.7999999523163","1280 x 720","1920 x 1080","true","1","10","","","","",""
"null","<p style=""font-size: 80px;"">+ 10 points</p>","null","html-keyboard-response","66","744714","0.0-11.0-2.65","616481a4ecc956103a021a3d","5rwk01","CL","33","M","{""name"":""Chrome"",""chrome"":true,""version"":""105.0"",""blink"":true,""windows"":true,""osname"":""Windows"",""osversion"":""10"",""a"":true}","9:23:25","1","4","Test_1","74","j","1","519","1280 x 720","1920 x 1080","true","1","10","","","","",""
"null","<p style=""font-size: 80px;"">+ 10 points</p>","null","html-keyboard-response","67","747459","0.0-11.0-2.66","616481a4ecc956103a021a3d","5rwk01","CL","33","M","{""name"":""Chrome"",""chrome"":true,""version"":""105.0"",""blink"":true,""windows"":true,""osname"":""Windows"",""osversion"":""10"",""a"":true}","9:23:25","1","4","Test_3","74","j","1","735.1000000238419","1280 x 720","1920 x 1080","true","1","10","","","","",""
"null","<p style=""font-size: 80px;"">+ 10 points</p>","null","html-keyboard-response","68","750345","0.0-11.0-2.67","616481a4ecc956103a021a3d","5rwk01","CL","33","M","{""name"":""Chrome"",""chrome"":true,""version"":""105.0"",""blink"":true,""windows"":true,""osname"":""Windows"",""osversion"":""10"",""a"":true}","9:23:25","1","4","Test_3","74","j","1","873.8999999761581","1280 x 720","1920 x 1080","true","1","10","","","","",""
"null","<p style=""font-size: 80px;"">+ 10 points</p>","null","html-keyboard-response","69","752842","0.0-11.0-2.68","616481a4ecc956103a021a3d","5rwk01","CL","33","M","{""name"":""Chrome"",""chrome"":true,""version"":""105.0"",""blink"":true,""windows"":true,""osname"":""Windows"",""osversion"":""10"",""a"":true}","9:23:25","1","4","Test_4","70","f","1","481.39999997615814","1280 x 720","1920 x 1080","true","1","10","","","","",""
"null","<p style=""font-size: 80px;"">+ 10 points</p>","null","html-keyboard-response","70","755328","0.0-11.0-2.69","616481a4ecc956103a021a3d","5rwk01","CL","33","M","{""name"":""Chrome"",""chrome"":true,""version"":""105.0"",""blink"":true,""windows"":true,""osname"":""Windows"",""osversion"":""10"",""a"":true}","9:23:25","1","4","Test_3","74","j","1","463.3000000715256","1280 x 720","1920 x 1080","true","1","10","","","","",""
"null","<p style=""font-size: 80px;"">+ 10 points</p>","null","html-keyboard-response","71","757829","0.0-11.0-2.70","616481a4ecc956103a021a3d","5rwk01","CL","33","M","{""name"":""Chrome"",""chrome"":true,""version"":""105.0"",""blink"":true,""windows"":true,""osname"":""Windows"",""osversion"":""10"",""a"":true}","9:23:25","1","4","Test_4","70","f","1","469.2999999523163","1280 x 720","1920 x 1080","true","1","10","","","","",""
"null","<p style=""font-size: 80px;"">+ 10 points</p>","null","html-keyboard-response","72","760576","0.0-11.0-2.71","616481a4ecc956103a021a3d","5rwk01","CL","33","M","{""name"":""Chrome"",""chrome"":true,""version"":""105.0"",""blink"":true,""windows"":true,""osname"":""Windows"",""osversion"":""10"",""a"":true}","9:23:25","1","4","Test_2","70","f","1","721","1280 x 720","1920 x 1080","true","1","10","","","","",""
"null","<p style=""font-size: 80px;"">+ 10 points</p>","null","html-keyboard-response","73","763576","0.0-11.0-2.72","616481a4ecc956103a021a3d","5rwk01","CL","33","M","{""name"":""Chrome"",""chrome"":true,""version"":""105.0"",""blink"":true,""windows"":true,""osname"":""Windows"",""osversion"":""10"",""a"":true}","9:23:25","1","4","Test_2","70","f","1","964.6999999284744","1280 x 720","1920 x 1080","true","1","10","","","","",""
"null","<p style=""font-size: 80px;"">+ 10 points</p>","null","html-keyboard-response","74","766310","0.0-11.0-2.73","616481a4ecc956103a021a3d","5rwk01","CL","33","M","{""name"":""Chrome"",""chrome"":true,""version"":""105.0"",""blink"":true,""windows"":true,""osname"":""Windows"",""osversion"":""10"",""a"":true}","9:23:25","1","4","Test_4","70","f","1","711.3999999761581","1280 x 720","1920 x 1080","true","1","10","","","","",""
"null","<p style=""font-size: 80px;"">+ 10 points</p>","null","html-keyboard-response","75","769713","0.0-11.0-2.74","616481a4ecc956103a021a3d","5rwk01","CL","33","M","{""name"":""Chrome"",""chrome"":true,""version"":""105.0"",""blink"":true,""windows"":true,""osname"":""Windows"",""osversion"":""10"",""a"":true}","9:23:25","1","4","Test_2","70","f","1","1375.7999999523163","1280 x 720","1920 x 1080","true","1","10","","","","",""
"null","<p style=""font-size: 80px;"">+ 10 points</p>","null","html-keyboard-response","76","772184","0.0-11.0-2.75","616481a4ecc956103a021a3d","5rwk01","CL","33","M","{""name"":""Chrome"",""chrome"":true,""version"":""105.0"",""blink"":true,""windows"":true,""osname"":""Windows"",""osversion"":""10"",""a"":true}","9:23:25","1","4","Test_1","74","j","1","460.10000002384186","1280 x 720","1920 x 1080","true","1","10","","","","",""
"null","<p style=""font-size: 80px;"">+ 10 points</p>","null","html-keyboard-response","77","774830","0.0-11.0-2.76","616481a4ecc956103a021a3d","5rwk01","CL","33","M","{""name"":""Chrome"",""chrome"":true,""version"":""105.0"",""blink"":true,""windows"":true,""osname"":""Windows"",""osversion"":""10"",""a"":true}","9:23:25","1","4","Test_4","70","f","1","623.6000000238419","1280 x 720","1920 x 1080","true","1","10","","","","",""
"null","<p style=""font-size: 80px;"">+ 10 points</p>","null","html-keyboard-response","78","777497","0.0-11.0-2.77","616481a4ecc956103a021a3d","5rwk01","CL","33","M","{""name"":""Chrome"",""chrome"":true,""version"":""105.0"",""blink"":true,""windows"":true,""osname"":""Windows"",""osversion"":""10"",""a"":true}","9:23:25","1","4","Test_3","74","j","1","654.6999999284744","1280 x 720","1920 x 1080","true","1","10","","","","",""
"null","<p style=""font-size: 80px;"">+ 10 points</p>","null","html-keyboard-response","79","780184","0.0-11.0-2.78","616481a4ecc956103a021a3d","5rwk01","CL","33","M","{""name"":""Chrome"",""chrome"":true,""version"":""105.0"",""blink"":true,""windows"":true,""osname"":""Windows"",""osversion"":""10"",""a"":true}","9:23:25","1","4","Test_1","74","j","1","660.3999999761581","1280 x 720","1920 x 1080","true","1","10","","","","",""
"null","<p style=""font-size: 80px;"">+ 10 points</p>","null","html-keyboard-response","80","782973","0.0-11.0-2.79","616481a4ecc956103a021a3d","5rwk01","CL","33","M","{""name"":""Chrome"",""chrome"":true,""version"":""105.0"",""blink"":true,""windows"":true,""osname"":""Windows"",""osversion"":""10"",""a"":true}","9:23:25","1","4","Test_3","74","j","1","769.6999999284744","1280 x 720","1920 x 1080","true","1","10","","","","",""
"null","<p style=""font-size: 80px;"">+ 10 points</p>","null","html-keyboard-response","81","786352","0.0-11.0-2.80","616481a4ecc956103a021a3d","5rwk01","CL","33","M","{""name"":""Chrome"",""chrome"":true,""version"":""105.0"",""blink"":true,""windows"":true,""osname"":""Windows"",""osversion"":""10"",""a"":true}","9:23:25","1","4","Test_3","74","j","1","1348.1000000238419","1280 x 720","1920 x 1080","true","1","10","","","","",""
"null","<p style=""font-size: 80px;"">+ 10 points</p>","null","html-keyboard-response","82","788931","0.0-11.0-2.81","616481a4ecc956103a021a3d","5rwk01","CL","33","M","{""name"":""Chrome"",""chrome"":true,""version"":""105.0"",""blink"":true,""windows"":true,""osname"":""Windows"",""osversion"":""10"",""a"":true}","9:23:25","1","4","Test_4","70","f","1","564.2000000476837","1280 x 720","1920 x 1080","true","1","10","","","","",""
"null","<p style=""font-size: 80px;"">+ 10 points</p>","null","html-keyboard-response","83","791529","0.0-11.0-2.82","616481a4ecc956103a021a3d","5rwk01","CL","33","M","{""name"":""Chrome"",""chrome"":true,""version"":""105.0"",""blink"":true,""windows"":true,""osname"":""Windows"",""osversion"":""10"",""a"":true}","9:23:25","1","4","Test_1","74","j","1","582.3000000715256","1280 x 720","1920 x 1080","true","1","10","","","","",""
"null","<p style=""font-size: 80px;"">+ 0 points</p>","null","html-keyboard-response","84","794153","0.0-11.0-2.83","616481a4ecc956103a021a3d","5rwk01","CL","33","M","{""name"":""Chrome"",""chrome"":true,""version"":""105.0"",""blink"":true,""windows"":true,""osname"":""Windows"",""osversion"":""10"",""a"":true}","9:23:25","1","3","Test_1","74","f","0","612.2000000476837","1280 x 720","1920 x 1080","true","1","0","","","","",""
"null","<p style=""font-size: 80px;"">+ 10 points</p>","null","html-keyboard-response","85","797018","0.0-11.0-2.84","616481a4ecc956103a021a3d","5rwk01","CL","33","M","{""name"":""Chrome"",""chrome"":true,""version"":""105.0"",""blink"":true,""windows"":true,""osname"":""Windows"",""osversion"":""10"",""a"":true}","9:23:25","1","3","Test_3","70","f","1","843.3999999761581","1280 x 720","1920 x 1080","true","1","10","","","","",""
"null","<p style=""font-size: 80px;"">+ 10 points</p>","null","html-keyboard-response","86","800310","0.0-11.0-2.85","616481a4ecc956103a021a3d","5rwk01","CL","33","M","{""name"":""Chrome"",""chrome"":true,""version"":""105.0"",""blink"":true,""windows"":true,""osname"":""Windows"",""osversion"":""10"",""a"":true}","9:23:25","1","3","Test_3","70","f","1","1276.5999999046326","1280 x 720","1920 x 1080","true","1","10","","","","",""
"null","<p style=""font-size: 80px;"">+ 10 points</p>","null","html-keyboard-response","87","802758","0.0-11.0-2.86","616481a4ecc956103a021a3d","5rwk01","CL","33","M","{""name"":""Chrome"",""chrome"":true,""version"":""105.0"",""blink"":true,""windows"":true,""osname"":""Windows"",""osversion"":""10"",""a"":true}","9:23:25","1","3","Test_4","74","j","1","427.8000000715256","1280 x 720","1920 x 1080","true","1","10","","","","",""
"null","<p style=""font-size: 80px;"">+ 10 points</p>","null","html-keyboard-response","88","805420","0.0-11.0-2.87","616481a4ecc956103a021a3d","5rwk01","CL","33","M","{""name"":""Chrome"",""chrome"":true,""version"":""105.0"",""blink"":true,""windows"":true,""osname"":""Windows"",""osversion"":""10"",""a"":true}","9:23:25","1","3","Test_1","70","f","1","641.5","1280 x 720","1920 x 1080","true","1","10","","","","",""
"null","<p style=""font-size: 80px;"">+ 10 points</p>","null","html-keyboard-response","89","808060","0.0-11.0-2.88","616481a4ecc956103a021a3d","5rwk01","CL","33","M","{""name"":""Chrome"",""chrome"":true,""version"":""105.0"",""blink"":true,""windows"":true,""osname"":""Windows"",""osversion"":""10"",""a"":true}","9:23:25","1","3","Test_1","70","f","1","622.7999999523163","1280 x 720","1920 x 1080","true","1","10","","","","",""
"null","<p style=""font-size: 80px;"">+ 10 points</p>","null","html-keyboard-response","90","810678","0.0-11.0-2.89","616481a4ecc956103a021a3d","5rwk01","CL","33","M","{""name"":""Chrome"",""chrome"":true,""version"":""105.0"",""blink"":true,""windows"":true,""osname"":""Windows"",""osversion"":""10"",""a"":true}","9:23:25","1","3","Test_4","74","j","1","596.8999999761581","1280 x 720","1920 x 1080","true","1","10","","","","",""
"null","<p style=""font-size: 80px;"">+ 10 points</p>","null","html-keyboard-response","91","813255","0.0-11.0-2.90","616481a4ecc956103a021a3d","5rwk01","CL","33","M","{""name"":""Chrome"",""chrome"":true,""version"":""105.0"",""blink"":true,""windows"":true,""osname"":""Windows"",""osversion"":""10"",""a"":true}","9:23:25","1","3","Test_1","70","f","1","569.3000000715256","1280 x 720","1920 x 1080","true","1","10","","","","",""
"null","<p style=""font-size: 80px;"">+ 10 points</p>","null","html-keyboard-response","92","815848","0.0-11.0-2.91","616481a4ecc956103a021a3d","5rwk01","CL","33","M","{""name"":""Chrome"",""chrome"":true,""version"":""105.0"",""blink"":true,""windows"":true,""osname"":""Windows"",""osversion"":""10"",""a"":true}","9:23:25","1","3","Test_4","74","j","1","583.2999999523163","1280 x 720","1920 x 1080","true","1","10","","","","",""
"null","<p style=""font-size: 80px;"">+ 10 points</p>","null","html-keyboard-response","93","818651","0.0-11.0-2.92","616481a4ecc956103a021a3d","5rwk01","CL","33","M","{""name"":""Chrome"",""chrome"":true,""version"":""105.0"",""blink"":true,""windows"":true,""osname"":""Windows"",""osversion"":""10"",""a"":true}","9:23:25","1","3","Test_3","70","f","1","780.7000000476837","1280 x 720","1920 x 1080","true","1","10","","","","",""
"null","<p style=""font-size: 80px;"">+ 10 points</p>","null","html-keyboard-response","94","821178","0.0-11.0-2.93","616481a4ecc956103a021a3d","5rwk01","CL","33","M","{""name"":""Chrome"",""chrome"":true,""version"":""105.0"",""blink"":true,""windows"":true,""osname"":""Windows"",""osversion"":""10"",""a"":true}","9:23:25","1","3","Test_4","74","j","1","499.2000000476837","1280 x 720","1920 x 1080","true","1","10","","","","",""
"null","<p style=""font-size: 80px;"">+ 10 points</p>","null","html-keyboard-response","95","824450","0.0-11.0-2.94","616481a4ecc956103a021a3d","5rwk01","CL","33","M","{""name"":""Chrome"",""chrome"":true,""version"":""105.0"",""blink"":true,""windows"":true,""osname"":""Windows"",""osversion"":""10"",""a"":true}","9:23:25","1","3","Test_2","74","j","1","1243","1280 x 720","1920 x 1080","true","1","10","","","","",""
"null","<p style=""font-size: 80px;"">+ 10 points</p>","null","html-keyboard-response","96","827413","0.0-11.0-2.95","616481a4ecc956103a021a3d","5rwk01","CL","33","M","{""name"":""Chrome"",""chrome"":true,""version"":""105.0"",""blink"":true,""windows"":true,""osname"":""Windows"",""osversion"":""10"",""a"":true}","9:23:25","1","3","Test_3","70","f","1","942.5","1280 x 720","1920 x 1080","true","1","10","","","","",""
"null","<p style=""font-size: 80px;"">+ 10 points</p>","null","html-keyboard-response","97","830858","0.0-11.0-2.96","616481a4ecc956103a021a3d","5rwk01","CL","33","M","{""name"":""Chrome"",""chrome"":true,""version"":""105.0"",""blink"":true,""windows"":true,""osname"":""Windows"",""osversion"":""10"",""a"":true}","9:23:25","1","3","Test_2","74","j","1","1420.8999999761581","1280 x 720","1920 x 1080","true","1","10","","","","",""
"null","<p style=""font-size: 80px;"">+ 10 points</p>","null","html-keyboard-response","98","833433","0.0-11.0-2.97","616481a4ecc956103a021a3d","5rwk01","CL","33","M","{""name"":""Chrome"",""chrome"":true,""version"":""105.0"",""blink"":true,""windows"":true,""osname"":""Windows"",""osversion"":""10"",""a"":true}","9:23:25","1","3","Test_4","74","j","1","555","1280 x 720","1920 x 1080","true","1","10","","","","",""
"null","<p style=""font-size: 80px;"">+ 10 points</p>","null","html-keyboard-response","99","836201","0.0-11.0-2.98","616481a4ecc956103a021a3d","5rwk01","CL","33","M","{""name"":""Chrome"",""chrome"":true,""version"":""105.0"",""blink"":true,""windows"":true,""osname"":""Windows"",""osversion"":""10"",""a"":true}","9:23:25","1","3","Test_2","74","j","1","742.1000000238419","1280 x 720","1920 x 1080","true","1","10","","","","",""
"null","<p style=""font-size: 80px;"">+ 10 points</p>","null","html-keyboard-response","100","838933","0.0-11.0-2.99","616481a4ecc956103a021a3d","5rwk01","CL","33","M","{""name"":""Chrome"",""chrome"":true,""version"":""105.0"",""blink"":true,""windows"":true,""osname"":""Windows"",""osversion"":""10"",""a"":true}","9:23:25","1","3","Test_2","74","j","1","701.2999999523163","1280 x 720","1920 x 1080","true","1","10","","","","",""
"null","<p style=""font-size: 80px;"">+ 10 points</p>","null","html-keyboard-response","101","841658","0.0-11.0-2.100","616481a4ecc956103a021a3d","5rwk01","CL","33","M","{""name"":""Chrome"",""chrome"":true,""version"":""105.0"",""blink"":true,""windows"":true,""osname"":""Windows"",""osversion"":""10"",""a"":true}","9:23:25","1","3","Test_1","70","f","1","709.1999999284744","1280 x 720","1920 x 1080","true","1","10","","","","",""
"null","<p style=""font-size: 80px;"">+ 10 points</p>","null","html-keyboard-response","102","844304","0.0-11.0-2.101","616481a4ecc956103a021a3d","5rwk01","CL","33","M","{""name"":""Chrome"",""chrome"":true,""version"":""105.0"",""blink"":true,""windows"":true,""osname"":""Windows"",""osversion"":""10"",""a"":true}","9:23:25","1","3","Test_2","74","j","1","632.2999999523163","1280 x 720","1920 x 1080","true","1","10","","","","",""
"null","<p style=""font-size: 80px;"">+ 0 points</p>","null","html-keyboard-response","103","847576","0.0-11.0-2.102","616481a4ecc956103a021a3d","5rwk01","CL","33","M","{""name"":""Chrome"",""chrome"":true,""version"":""105.0"",""blink"":true,""windows"":true,""osname"":""Windows"",""osversion"":""10"",""a"":true}","9:23:25","1","4","Test_3","70","j","0","1260.8999999761581","1280 x 720","1920 x 1080","true","1","0","","","","",""
"null","<p style=""font-size: 80px;"">+ 0 points</p>","null","html-keyboard-response","104","850921","0.0-11.0-2.103","616481a4ecc956103a021a3d","5rwk01","CL","33","M","{""name"":""Chrome"",""chrome"":true,""version"":""105.0"",""blink"":true,""windows"":true,""osname"":""Windows"",""osversion"":""10"",""a"":true}","9:23:25","1","4","Test_1","70","j","0","1312.1000000238419","1280 x 720","1920 x 1080","true","1","0","","","","",""
"null","<p style=""font-size: 80px;"">+ 0 points</p>","null","html-keyboard-response","105","853906","0.0-11.0-2.104","616481a4ecc956103a021a3d","5rwk01","CL","33","M","{""name"":""Chrome"",""chrome"":true,""version"":""105.0"",""blink"":true,""windows"":true,""osname"":""Windows"",""osversion"":""10"",""a"":true}","9:23:25","1","4","Test_3","70","j","0","953.8000000715256","1280 x 720","1920 x 1080","true","1","0","","","","",""
"null","<p style=""font-size: 80px;"">+ 10 points</p>","null","html-keyboard-response","106","856472","0.0-11.0-2.105","616481a4ecc956103a021a3d","5rwk01","CL","33","M","{""name"":""Chrome"",""chrome"":true,""version"":""105.0"",""blink"":true,""windows"":true,""osname"":""Windows"",""osversion"":""10"",""a"":true}","9:23:25","1","4","Test_2","70","f","1","543.6000000238419","1280 x 720","1920 x 1080","true","1","10","","","","",""
"null","<p style=""font-size: 80px;"">+ 10 points</p>","null","html-keyboard-response","107","859174","0.0-11.0-2.106","616481a4ecc956103a021a3d","5rwk01","CL","33","M","{""name"":""Chrome"",""chrome"":true,""version"":""105.0"",""blink"":true,""windows"":true,""osname"":""Windows"",""osversion"":""10"",""a"":true}","9:23:25","1","4","Test_2","70","f","1","683.5999999046326","1280 x 720","1920 x 1080","true","1","10","","","","",""
"null","<p style=""font-size: 80px;"">+ 10 points</p>","null","html-keyboard-response","108","861845","0.0-11.0-2.107","616481a4ecc956103a021a3d","5rwk01","CL","33","M","{""name"":""Chrome"",""chrome"":true,""version"":""105.0"",""blink"":true,""windows"":true,""osname"":""Windows"",""osversion"":""10"",""a"":true}","9:23:25","1","4","Test_2","70","f","1","641.7999999523163","1280 x 720","1920 x 1080","true","1","10","","","","",""
"null","<p style=""font-size: 80px;"">+ 10 points</p>","null","html-keyboard-response","109","864664","0.0-11.0-2.108","616481a4ecc956103a021a3d","5rwk01","CL","33","M","{""name"":""Chrome"",""chrome"":true,""version"":""105.0"",""blink"":true,""windows"":true,""osname"":""Windows"",""osversion"":""10"",""a"":true}","9:23:25","1","4","Test_1","74","j","1","801.1999999284744","1280 x 720","1920 x 1080","true","1","10","","","","",""
"null","<p style=""font-size: 80px;"">+ 0 points</p>","null","html-keyboard-response","110","970465","0.0-11.0-2.109","616481a4ecc956103a021a3d","5rwk01","CL","33","M","{""name"":""Chrome"",""chrome"":true,""version"":""105.0"",""blink"":true,""windows"":true,""osname"":""Windows"",""osversion"":""10"",""a"":true}","9:23:25","1","4","Test_3","70","j","0","643.2000000476837","1280 x 720","1920 x 1080","true","1","0","","","","",""
"null","<p style=""font-size: 80px;"">+ 10 points</p>","null","html-keyboard-response","111","973619","0.0-11.0-2.110","616481a4ecc956103a021a3d","5rwk01","CL","33","M","{""name"":""Chrome"",""chrome"":true,""version"":""105.0"",""blink"":true,""windows"":true,""osname"":""Windows"",""osversion"":""10"",""a"":true}","9:23:25","1","4","Test_1","74","j","1","1130.2000000476837","1280 x 720","1920 x 1080","true","1","10","","","","",""
"null","<p style=""font-size: 80px;"">+ 10 points</p>","null","html-keyboard-response","112","976415","0.0-11.0-2.111","616481a4ecc956103a021a3d","5rwk01","CL","33","M","{""name"":""Chrome"",""chrome"":true,""version"":""105.0"",""blink"":true,""windows"":true,""osname"":""Windows"",""osversion"":""10"",""a"":true}","9:23:25","1","4","Test_1","74","j","1","776.1000000238419","1280 x 720","1920 x 1080","true","1","10","","","","",""
"null","<p style=""font-size: 80px;"">+ 10 points</p>","null","html-keyboard-response","113","979115","0.0-11.0-2.112","616481a4ecc956103a021a3d","5rwk01","CL","33","M","{""name"":""Chrome"",""chrome"":true,""version"":""105.0"",""blink"":true,""windows"":true,""osname"":""Windows"",""osversion"":""10"",""a"":true}","9:23:25","1","4","Test_2","70","f","1","689.6000000238419","1280 x 720","1920 x 1080","true","1","10","","","","",""
"null","<p style=""font-size: 80px;"">+ 0 points</p>","null","html-keyboard-response","114","982302","0.0-11.0-2.113","616481a4ecc956103a021a3d","5rwk01","CL","33","M","{""name"":""Chrome"",""chrome"":true,""version"":""105.0"",""blink"":true,""windows"":true,""osname"":""Windows"",""osversion"":""10"",""a"":true}","9:23:25","1","4","Test_4","74","f","0","1165.2000000476837","1280 x 720","1920 x 1080","true","1","0","","","","",""
"null","<p style=""font-size: 80px;"">+ 10 points</p>","null","html-keyboard-response","115","985018","0.0-11.0-2.114","616481a4ecc956103a021a3d","5rwk01","CL","33","M","{""name"":""Chrome"",""chrome"":true,""version"":""105.0"",""blink"":true,""windows"":true,""osname"":""Windows"",""osversion"":""10"",""a"":true}","9:23:25","1","4","Test_4","70","f","1","696.5","1280 x 720","1920 x 1080","true","1","10","","","","",""
"null","<p style=""font-size: 80px;"">+ 10 points</p>","null","html-keyboard-response","116","987596","0.0-11.0-2.115","616481a4ecc956103a021a3d","5rwk01","CL","33","M","{""name"":""Chrome"",""chrome"":true,""version"":""105.0"",""blink"":true,""windows"":true,""osname"":""Windows"",""osversion"":""10"",""a"":true}","9:23:25","1","4","Test_2","70","f","1","557.5","1280 x 720","1920 x 1080","true","1","10","","","","",""
"null","<p style=""font-size: 80px;"">+ 10 points</p>","null","html-keyboard-response","117","990263","0.0-11.0-2.116","616481a4ecc956103a021a3d","5rwk01","CL","33","M","{""name"":""Chrome"",""chrome"":true,""version"":""105.0"",""blink"":true,""windows"":true,""osname"":""Windows"",""osversion"":""10"",""a"":true}","9:23:25","1","4","Test_3","74","j","1","643.8000000715256","1280 x 720","1920 x 1080","true","1","10","","","","",""
"null","<p style=""font-size: 80px;"">+ 10 points</p>","null","html-keyboard-response","118","992846","0.0-11.0-2.117","616481a4ecc956103a021a3d","5rwk01","CL","33","M","{""name"":""Chrome"",""chrome"":true,""version"":""105.0"",""blink"":true,""windows"":true,""osname"":""Windows"",""osversion"":""10"",""a"":true}","9:23:25","1","4","Test_3","74","j","1","555","1280 x 720","1920 x 1080","true","1","10","","","","",""
"null","<p style=""font-size: 80px;"">+ 10 points</p>","null","html-keyboard-response","119","995450","0.0-11.0-2.118","616481a4ecc956103a021a3d","5rwk01","CL","33","M","{""name"":""Chrome"",""chrome"":true,""version"":""105.0"",""blink"":true,""windows"":true,""osname"":""Windows"",""osversion"":""10"",""a"":true}","9:23:25","1","4","Test_4","70","f","1","567.1000000238419","1280 x 720","1920 x 1080","true","1","10","","","","",""
"null","<p style=""font-size: 80px;"">+ 10 points</p>","null","html-keyboard-response","120","998109","0.0-11.0-2.119","616481a4ecc956103a021a3d","5rwk01","CL","33","M","{""name"":""Chrome"",""chrome"":true,""version"":""105.0"",""blink"":true,""windows"":true,""osname"":""Windows"",""osversion"":""10"",""a"":true}","9:23:25","1","4","Test_4","70","f","1","635.7999999523163","1280 x 720","1920 x 1080","true","1","10","","","","",""
"null","<p style=""font-size: 80px;"">+ 10 points</p>","null","html-keyboard-response","121","1000605","0.0-11.0-2.120","616481a4ecc956103a021a3d","5rwk01","CL","33","M","{""name"":""Chrome"",""chrome"":true,""version"":""105.0"",""blink"":true,""windows"":true,""osname"":""Windows"",""osversion"":""10"",""a"":true}","9:23:25","1","4","Test_2","70","f","1","466.7000000476837","1280 x 720","1920 x 1080","true","1","10","","","","",""
"null","<p style=""font-size: 80px;"">+ 10 points</p>","null","html-keyboard-response","122","1003337","0.0-11.0-2.121","616481a4ecc956103a021a3d","5rwk01","CL","33","M","{""name"":""Chrome"",""chrome"":true,""version"":""105.0"",""blink"":true,""windows"":true,""osname"":""Windows"",""osversion"":""10"",""a"":true}","9:23:25","1","4","Test_4","70","f","1","724.8999999761581","1280 x 720","1920 x 1080","true","1","10","","","","",""
"null","<p style=""font-size: 80px;"">+ 10 points</p>","null","html-keyboard-response","123","1005964","0.0-11.0-2.122","616481a4ecc956103a021a3d","5rwk01","CL","33","M","{""name"":""Chrome"",""chrome"":true,""version"":""105.0"",""blink"":true,""windows"":true,""osname"":""Windows"",""osversion"":""10"",""a"":true}","9:23:25","1","4","Test_3","74","j","1","618.1000000238419","1280 x 720","1920 x 1080","true","1","10","","","","",""
"null","<p style=""font-size: 80px;"">+ 10 points</p>","null","html-keyboard-response","124","1008686","0.0-11.0-2.123","616481a4ecc956103a021a3d","5rwk01","CL","33","M","{""name"":""Chrome"",""chrome"":true,""version"":""105.0"",""blink"":true,""windows"":true,""osname"":""Windows"",""osversion"":""10"",""a"":true}","9:23:25","1","4","Test_1","74","j","1","715.2000000476837","1280 x 720","1920 x 1080","true","1","10","","","","",""
"null","<p style=""font-size: 80px;"">+ 0 points</p>","null","html-keyboard-response","125","1011305","0.0-11.0-2.124","616481a4ecc956103a021a3d","5rwk01","CL","33","M","{""name"":""Chrome"",""chrome"":true,""version"":""105.0"",""blink"":true,""windows"":true,""osname"":""Windows"",""osversion"":""10"",""a"":true}","9:23:25","1","3","Test_1","74","f","0","595.2999999523163","1280 x 720","1920 x 1080","true","1","0","","","","",""
"null","<p style=""font-size: 80px;"">+ 10 points</p>","null","html-keyboard-response","126","1014217","0.0-11.0-2.125","616481a4ecc956103a021a3d","5rwk01","CL","33","M","{""name"":""Chrome"",""chrome"":true,""version"":""105.0"",""blink"":true,""windows"":true,""osname"":""Windows"",""osversion"":""10"",""a"":true}","9:23:25","1","3","Test_3","70","f","1","884.5","1280 x 720","1920 x 1080","true","1","10","","","","",""
"null","<p style=""font-size: 80px;"">+ 10 points</p>","null","html-keyboard-response","127","1016764","0.0-11.0-2.126","616481a4ecc956103a021a3d","5rwk01","CL","33","M","{""name"":""Chrome"",""chrome"":true,""version"":""105.0"",""blink"":true,""windows"":true,""osname"":""Windows"",""osversion"":""10"",""a"":true}","9:23:25","1","3","Test_1","70","f","1","533.6999999284744","1280 x 720","1920 x 1080","true","1","10","","","","",""
"null","<p style=""font-size: 80px;"">+ 10 points</p>","null","html-keyboard-response","128","1019993","0.0-11.0-2.127","616481a4ecc956103a021a3d","5rwk01","CL","33","M","{""name"":""Chrome"",""chrome"":true,""version"":""105.0"",""blink"":true,""windows"":true,""osname"":""Windows"",""osversion"":""10"",""a"":true}","9:23:25","1","3","Test_3","70","f","1","1196.8999999761581","1280 x 720","1920 x 1080","true","1","10","","","","",""
"null","<p style=""font-size: 80px;"">+ 10 points</p>","null","html-keyboard-response","129","1022960","0.0-11.0-2.128","616481a4ecc956103a021a3d","5rwk01","CL","33","M","{""name"":""Chrome"",""chrome"":true,""version"":""105.0"",""blink"":true,""windows"":true,""osname"":""Windows"",""osversion"":""10"",""a"":true}","9:23:25","1","3","Test_2","74","j","1","952.8999999761581","1280 x 720","1920 x 1080","true","1","10","","","","",""
"null","<p style=""font-size: 80px;"">+ 10 points</p>","null","html-keyboard-response","130","1025719","0.0-11.0-2.129","616481a4ecc956103a021a3d","5rwk01","CL","33","M","{""name"":""Chrome"",""chrome"":true,""version"":""105.0"",""blink"":true,""windows"":true,""osname"":""Windows"",""osversion"":""10"",""a"":true}","9:23:25","1","3","Test_4","74","j","1","741.3999999761581","1280 x 720","1920 x 1080","true","1","10","","","","",""
"null","<p style=""font-size: 80px;"">+ 10 points</p>","null","html-keyboard-response","131","1028996","0.0-11.0-2.130","616481a4ecc956103a021a3d","5rwk01","CL","33","M","{""name"":""Chrome"",""chrome"":true,""version"":""105.0"",""blink"":true,""windows"":true,""osname"":""Windows"",""osversion"":""10"",""a"":true}","9:23:25","1","3","Test_4","74","j","1","1271.2000000476837","1280 x 720","1920 x 1080","true","1","10","","","","",""
"null","<p style=""font-size: 80px;"">+ 10 points</p>","null","html-keyboard-response","132","1031671","0.0-11.0-2.131","616481a4ecc956103a021a3d","5rwk01","CL","33","M","{""name"":""Chrome"",""chrome"":true,""version"":""105.0"",""blink"":true,""windows"":true,""osname"":""Windows"",""osversion"":""10"",""a"":true}","9:23:25","1","3","Test_3","70","f","1","666.5","1280 x 720","1920 x 1080","true","1","10","","","","",""
"null","<p style=""font-size: 80px;"">+ 10 points</p>","null","html-keyboard-response","133","1034739","0.0-11.0-2.132","616481a4ecc956103a021a3d","5rwk01","CL","33","M","{""name"":""Chrome"",""chrome"":true,""version"":""105.0"",""blink"":true,""windows"":true,""osname"":""Windows"",""osversion"":""10"",""a"":true}","9:23:25","1","3","Test_3","70","f","1","1042.8999999761581","1280 x 720","1920 x 1080","true","1","10","","","","",""
"null","<p style=""font-size: 80px;"">+ 10 points</p>","null","html-keyboard-response","134","1037501","0.0-11.0-2.133","616481a4ecc956103a021a3d","5rwk01","CL","33","M","{""name"":""Chrome"",""chrome"":true,""version"":""105.0"",""blink"":true,""windows"":true,""osname"":""Windows"",""osversion"":""10"",""a"":true}","9:23:25","1","3","Test_2","74","j","1","741.7000000476837","1280 x 720","1920 x 1080","true","1","10","","","","",""
"null","<p style=""font-size: 80px;"">+ 10 points</p>","null","html-keyboard-response","135","1040129","0.0-11.0-2.134","616481a4ecc956103a021a3d","5rwk01","CL","33","M","{""name"":""Chrome"",""chrome"":true,""version"":""105.0"",""blink"":true,""windows"":true,""osname"":""Windows"",""osversion"":""10"",""a"":true}","9:23:25","1","3","Test_1","70","f","1","601.7999999523163","1280 x 720","1920 x 1080","true","1","10","","","","",""
"null","<p style=""font-size: 80px;"">+ 10 points</p>","null","html-keyboard-response","136","1042916","0.0-11.0-2.135","616481a4ecc956103a021a3d","5rwk01","CL","33","M","{""name"":""Chrome"",""chrome"":true,""version"":""105.0"",""blink"":true,""windows"":true,""osname"":""Windows"",""osversion"":""10"",""a"":true}","9:23:25","1","3","Test_2","74","j","1","767.2000000476837","1280 x 720","1920 x 1080","true","1","10","","","","",""
"null","<p style=""font-size: 80px;"">+ 10 points</p>","null","html-keyboard-response","137","1045395","0.0-11.0-2.136","616481a4ecc956103a021a3d","5rwk01","CL","33","M","{""name"":""Chrome"",""chrome"":true,""version"":""105.0"",""blink"":true,""windows"":true,""osname"":""Windows"",""osversion"":""10"",""a"":true}","9:23:25","1","3","Test_1","70","f","1","460.1999999284744","1280 x 720","1920 x 1080","true","1","10","","","","",""
"null","<p style=""font-size: 80px;"">+ 10 points</p>","null","html-keyboard-response","138","1048061","0.0-11.0-2.137","616481a4ecc956103a021a3d","5rwk01","CL","33","M","{""name"":""Chrome"",""chrome"":true,""version"":""105.0"",""blink"":true,""windows"":true,""osname"":""Windows"",""osversion"":""10"",""a"":true}","9:23:25","1","3","Test_3","70","f","1","635.3000000715256","1280 x 720","1920 x 1080","true","1","10","","","","",""
"null","<p style=""font-size: 80px;"">+ 10 points</p>","null","html-keyboard-response","139","1050645","0.0-11.0-2.138","616481a4ecc956103a021a3d","5rwk01","CL","33","M","{""name"":""Chrome"",""chrome"":true,""version"":""105.0"",""blink"":true,""windows"":true,""osname"":""Windows"",""osversion"":""10"",""a"":true}","9:23:25","1","3","Test_4","74","j","1","555.6000000238419","1280 x 720","1920 x 1080","true","1","10","","","","",""
"null","<p style=""font-size: 80px;"">+ 10 points</p>","null","html-keyboard-response","140","1053134","0.0-11.0-2.139","616481a4ecc956103a021a3d","5rwk01","CL","33","M","{""name"":""Chrome"",""chrome"":true,""version"":""105.0"",""blink"":true,""windows"":true,""osname"":""Windows"",""osversion"":""10"",""a"":true}","9:23:25","1","3","Test_4","74","j","1","465","1280 x 720","1920 x 1080","true","1","10","","","","",""
"null","<p style=""font-size: 80px;"">+ 10 points</p>","null","html-keyboard-response","141","1055665","0.0-11.0-2.140","616481a4ecc956103a021a3d","5rwk01","CL","33","M","{""name"":""Chrome"",""chrome"":true,""version"":""105.0"",""blink"":true,""windows"":true,""osname"":""Windows"",""osversion"":""10"",""a"":true}","9:23:25","1","3","Test_1","70","f","1","503.5","1280 x 720","1920 x 1080","true","1","10","","","","",""
"null","<p style=""font-size: 80px;"">+ 10 points</p>","null","html-keyboard-response","142","1058362","0.0-11.0-2.141","616481a4ecc956103a021a3d","5rwk01","CL","33","M","{""name"":""Chrome"",""chrome"":true,""version"":""105.0"",""blink"":true,""windows"":true,""osname"":""Windows"",""osversion"":""10"",""a"":true}","9:23:25","1","3","Test_4","74","j","1","682.2000000476837","1280 x 720","1920 x 1080","true","1","10","","","","",""
"null","<p style=""font-size: 80px;"">+ 0 points</p>","null","html-keyboard-response","143","1061116","0.0-11.0-2.142","616481a4ecc956103a021a3d","5rwk01","CL","33","M","{""name"":""Chrome"",""chrome"":true,""version"":""105.0"",""blink"":true,""windows"":true,""osname"":""Windows"",""osversion"":""10"",""a"":true}","9:23:25","1","4","Test_2","74","f","0","745.8999999761581","1280 x 720","1920 x 1080","true","1","0","","","","",""
"null","<p style=""font-size: 80px;"">+ 10 points</p>","null","html-keyboard-response","144","1063764","0.0-11.0-2.143","616481a4ecc956103a021a3d","5rwk01","CL","33","M","{""name"":""Chrome"",""chrome"":true,""version"":""105.0"",""blink"":true,""windows"":true,""osname"":""Windows"",""osversion"":""10"",""a"":true}","9:23:25","1","4","Test_4","70","f","1","635.5","1280 x 720","1920 x 1080","true","1","10","","","","",""
"null","<p style=""font-size: 80px;"">+ 10 points</p>","null","html-keyboard-response","145","1066758","0.0-11.0-2.144","616481a4ecc956103a021a3d","5rwk01","CL","33","M","{""name"":""Chrome"",""chrome"":true,""version"":""105.0"",""blink"":true,""windows"":true,""osname"":""Windows"",""osversion"":""10"",""a"":true}","9:23:25","1","4","Test_1","74","j","1","971.6000000238419","1280 x 720","1920 x 1080","true","1","10","","","","",""
"null","<p style=""font-size: 80px;"">+ 10 points</p>","null","html-keyboard-response","146","1069313","0.0-11.0-2.145","616481a4ecc956103a021a3d","5rwk01","CL","33","M","{""name"":""Chrome"",""chrome"":true,""version"":""105.0"",""blink"":true,""windows"":true,""osname"":""Windows"",""osversion"":""10"",""a"":true}","9:23:25","1","4","Test_2","70","f","1","547.8999999761581","1280 x 720","1920 x 1080","true","1","10","","","","",""
"null","<p style=""font-size: 80px;"">+ 10 points</p>","null","html-keyboard-response","147","1071923","0.0-11.0-2.146","616481a4ecc956103a021a3d","5rwk01","CL","33","M","{""name"":""Chrome"",""chrome"":true,""version"":""105.0"",""blink"":true,""windows"":true,""osname"":""Windows"",""osversion"":""10"",""a"":true}","9:23:25","1","4","Test_1","74","j","1","585.8999999761581","1280 x 720","1920 x 1080","true","1","10","","","","",""
"null","<p style=""font-size: 80px;"">+ 10 points</p>","null","html-keyboard-response","148","1074602","0.0-11.0-2.147","616481a4ecc956103a021a3d","5rwk01","CL","33","M","{""name"":""Chrome"",""chrome"":true,""version"":""105.0"",""blink"":true,""windows"":true,""osname"":""Windows"",""osversion"":""10"",""a"":true}","9:23:25","1","4","Test_3","74","j","1","647.8000000715256","1280 x 720","1920 x 1080","true","1","10","","","","",""
"null","<p style=""font-size: 80px;"">+ 10 points</p>","null","html-keyboard-response","149","1077110","0.0-11.0-2.148","616481a4ecc956103a021a3d","5rwk01","CL","33","M","{""name"":""Chrome"",""chrome"":true,""version"":""105.0"",""blink"":true,""windows"":true,""osname"":""Windows"",""osversion"":""10"",""a"":true}","9:23:25","1","4","Test_3","74","j","1","492.2999999523163","1280 x 720","1920 x 1080","true","1","10","","","","",""
"null","<p style=""font-size: 80px;"">+ 10 points</p>","null","html-keyboard-response","150","1079748","0.0-11.0-2.149","616481a4ecc956103a021a3d","5rwk01","CL","33","M","{""name"":""Chrome"",""chrome"":true,""version"":""105.0"",""blink"":true,""windows"":true,""osname"":""Windows"",""osversion"":""10"",""a"":true}","9:23:25","1","4","Test_4","70","f","1","615.8999999761581","1280 x 720","1920 x 1080","true","1","10","","","","",""
"null","<p style=""font-size: 80px;"">+ 10 points</p>","null","html-keyboard-response","151","1082686","0.0-11.0-2.150","616481a4ecc956103a021a3d","5rwk01","CL","33","M","{""name"":""Chrome"",""chrome"":true,""version"":""105.0"",""blink"":true,""windows"":true,""osname"":""Windows"",""osversion"":""10"",""a"":true}","9:23:25","1","4","Test_2","70","f","1","909.6000000238419","1280 x 720","1920 x 1080","true","1","10","","","","",""
"null","<p style=""font-size: 80px;"">+ 10 points</p>","null","html-keyboard-response","152","1085174","0.0-11.0-2.151","616481a4ecc956103a021a3d","5rwk01","CL","33","M","{""name"":""Chrome"",""chrome"":true,""version"":""105.0"",""blink"":true,""windows"":true,""osname"":""Windows"",""osversion"":""10"",""a"":true}","9:23:25","1","4","Test_3","74","j","1","460.5","1280 x 720","1920 x 1080","true","1","10","","","","",""
"null","<p style=""font-size: 80px;"">+ 10 points</p>","null","html-keyboard-response","153","1088038","0.0-11.0-2.152","616481a4ecc956103a021a3d","5rwk01","CL","33","M","{""name"":""Chrome"",""chrome"":true,""version"":""105.0"",""blink"":true,""windows"":true,""osname"":""Windows"",""osversion"":""10"",""a"":true}","9:23:25","1","4","Test_1","74","j","1","853.3999999761581","1280 x 720","1920 x 1080","true","1","10","","","","",""
"null","<p style=""font-size: 80px;"">+ 10 points</p>","null","html-keyboard-response","154","1090721","0.0-11.0-2.153","616481a4ecc956103a021a3d","5rwk01","CL","33","M","{""name"":""Chrome"",""chrome"":true,""version"":""105.0"",""blink"":true,""windows"":true,""osname"":""Windows"",""osversion"":""10"",""a"":true}","9:23:25","1","4","Test_4","70","f","1","661","1280 x 720","1920 x 1080","true","1","10","","","","",""
"null","<p style=""font-size: 80px;"">+ 10 points</p>","null","html-keyboard-response","155","1093358","0.0-11.0-2.154","616481a4ecc956103a021a3d","5rwk01","CL","33","M","{""name"":""Chrome"",""chrome"":true,""version"":""105.0"",""blink"":true,""windows"":true,""osname"":""Windows"",""osversion"":""10"",""a"":true}","9:23:25","1","4","Test_2","70","f","1","615.7999999523163","1280 x 720","1920 x 1080","true","1","10","","","","",""
"null","<p style=""font-size: 80px;"">+ 10 points</p>","null","html-keyboard-response","156","1095884","0.0-11.0-2.155","616481a4ecc956103a021a3d","5rwk01","CL","33","M","{""name"":""Chrome"",""chrome"":true,""version"":""105.0"",""blink"":true,""windows"":true,""osname"":""Windows"",""osversion"":""10"",""a"":true}","9:23:25","1","4","Test_2","70","f","1","511.5","1280 x 720","1920 x 1080","true","1","10","","","","",""
"null","<p style=""font-size: 80px;"">+ 10 points</p>","null","html-keyboard-response","157","1098842","0.0-11.0-2.156","616481a4ecc956103a021a3d","5rwk01","CL","33","M","{""name"":""Chrome"",""chrome"":true,""version"":""105.0"",""blink"":true,""windows"":true,""osname"":""Windows"",""osversion"":""10"",""a"":true}","9:23:25","1","4","Test_2","70","f","1","928.5","1280 x 720","1920 x 1080","true","1","10","","","","",""
"null","<p style=""font-size: 80px;"">+ 10 points</p>","null","html-keyboard-response","158","1101746","0.0-11.0-2.157","616481a4ecc956103a021a3d","5rwk01","CL","33","M","{""name"":""Chrome"",""chrome"":true,""version"":""105.0"",""blink"":true,""windows"":true,""osname"":""Windows"",""osversion"":""10"",""a"":true}","9:23:25","1","4","Test_1","74","j","1","880.1000000238419","1280 x 720","1920 x 1080","true","1","10","","","","",""
"null","<p style=""font-size: 80px;"">+ 10 points</p>","null","html-keyboard-response","159","1105452","0.0-11.0-2.158","616481a4ecc956103a021a3d","5rwk01","CL","33","M","{""name"":""Chrome"",""chrome"":true,""version"":""105.0"",""blink"":true,""windows"":true,""osname"":""Windows"",""osversion"":""10"",""a"":true}","9:23:25","1","4","Test_3","74","j","1","1681.1000000238419","1280 x 720","1920 x 1080","true","1","10","","","","",""
"null","<p style=""font-size: 80px;"">+ 10 points</p>","null","html-keyboard-response","160","1108118","0.0-11.0-2.159","616481a4ecc956103a021a3d","5rwk01","CL","33","M","{""name"":""Chrome"",""chrome"":true,""version"":""105.0"",""blink"":true,""windows"":true,""osname"":""Windows"",""osversion"":""10"",""a"":true}","9:23:25","1","4","Test_3","74","j","1","657.7000000476837","1280 x 720","1920 x 1080","true","1","10","","","","",""
"null","<p style=""font-size: 80px;"">+ 10 points</p>","null","html-keyboard-response","161","1110578","0.0-11.0-2.160","616481a4ecc956103a021a3d","5rwk01","CL","33","M","{""name"":""Chrome"",""chrome"":true,""version"":""105.0"",""blink"":true,""windows"":true,""osname"":""Windows"",""osversion"":""10"",""a"":true}","9:23:25","1","4","Test_3","74","j","1","446.89999997615814","1280 x 720","1920 x 1080","true","1","10","","","","",""
"null","<p style=""font-size: 80px;"">+ 10 points</p>","null","html-keyboard-response","162","1116833","0.0-11.0-2.161","616481a4ecc956103a021a3d","5rwk01","CL","33","M","{""name"":""Chrome"",""chrome"":true,""version"":""105.0"",""blink"":true,""windows"":true,""osname"":""Windows"",""osversion"":""10"",""a"":true}","9:23:25","1","4","Test_1","74","j","1","4227.799999952316","1280 x 720","1920 x 1080","true","1","10","","","","",""
"null","<p style=""font-size: 80px;"">+ 10 points</p>","null","html-keyboard-response","163","1119801","0.0-11.0-2.162","616481a4ecc956103a021a3d","5rwk01","CL","33","M","{""name"":""Chrome"",""chrome"":true,""version"":""105.0"",""blink"":true,""windows"":true,""osname"":""Windows"",""osversion"":""10"",""a"":true}","9:23:25","1","4","Test_4","70","f","1","945.1999999284744","1280 x 720","1920 x 1080","true","1","10","","","","",""
"null","<p style=""font-size: 80px;"">+ 10 points</p>","null","html-keyboard-response","164","1123939","0.0-11.0-2.163","616481a4ecc956103a021a3d","5rwk01","CL","33","M","{""name"":""Chrome"",""chrome"":true,""version"":""105.0"",""blink"":true,""windows"":true,""osname"":""Windows"",""osversion"":""10"",""a"":true}","9:23:25","1","4","Test_1","74","j","1","2125.100000023842","1280 x 720","1920 x 1080","true","1","10","","","","",""
"null","<p style=""font-size: 80px;"">+ 10 points</p>","null","html-keyboard-response","165","1129568","0.0-11.0-2.164","616481a4ecc956103a021a3d","5rwk01","CL","33","M","{""name"":""Chrome"",""chrome"":true,""version"":""105.0"",""blink"":true,""windows"":true,""osname"":""Windows"",""osversion"":""10"",""a"":true}","9:23:25","1","4","Test_4","70","f","1","3616.600000023842","1280 x 720","1920 x 1080","true","1","10","","","","",""
"null","<p style=""font-size: 80px;"">+ 0 points</p>","null","html-keyboard-response","166","1132452","0.0-11.0-2.165","616481a4ecc956103a021a3d","5rwk01","CL","33","M","{""name"":""Chrome"",""chrome"":true,""version"":""105.0"",""blink"":true,""windows"":true,""osname"":""Windows"",""osversion"":""10"",""a"":true}","9:23:25","1","3","Test_2","70","j","0","870","1280 x 720","1920 x 1080","true","1","0","","","","",""
"null","<p style=""font-size: 80px;"">+ 10 points</p>","null","html-keyboard-response","167","1136311","0.0-11.0-2.166","616481a4ecc956103a021a3d","5rwk01","CL","33","M","{""name"":""Chrome"",""chrome"":true,""version"":""105.0"",""blink"":true,""windows"":true,""osname"":""Windows"",""osversion"":""10"",""a"":true}","9:23:25","1","3","Test_4","74","j","1","1824.5","1280 x 720","1920 x 1080","true","1","10","","","","",""
"null","<p style=""font-size: 80px;"">+ 10 points</p>","null","html-keyboard-response","168","1139231","0.0-11.0-2.167","616481a4ecc956103a021a3d","5rwk01","CL","33","M","{""name"":""Chrome"",""chrome"":true,""version"":""105.0"",""blink"":true,""windows"":true,""osname"":""Windows"",""osversion"":""10"",""a"":true}","9:23:25","1","3","Test_3","70","f","1","900.6000000238419","1280 x 720","1920 x 1080","true","1","10","","","","",""
"null","<p style=""font-size: 80px;"">+ 10 points</p>","null","html-keyboard-response","169","1142186","0.0-11.0-2.168","616481a4ecc956103a021a3d","5rwk01","CL","33","M","{""name"":""Chrome"",""chrome"":true,""version"":""105.0"",""blink"":true,""windows"":true,""osname"":""Windows"",""osversion"":""10"",""a"":true}","9:23:25","1","3","Test_2","74","j","1","935","1280 x 720","1920 x 1080","true","1","10","","","","",""
"null","<p style=""font-size: 80px;"">+ 10 points</p>","null","html-keyboard-response","170","1145535","0.0-11.0-2.169","616481a4ecc956103a021a3d","5rwk01","CL","33","M","{""name"":""Chrome"",""chrome"":true,""version"":""105.0"",""blink"":true,""windows"":true,""osname"":""Windows"",""osversion"":""10"",""a"":true}","9:23:25","1","3","Test_4","74","j","1","1320.5","1280 x 720","1920 x 1080","true","1","10","","","","",""
"null","<p style=""font-size: 80px;"">+ 10 points</p>","null","html-keyboard-response","171","1148332","0.0-11.0-2.170","616481a4ecc956103a021a3d","5rwk01","CL","33","M","{""name"":""Chrome"",""chrome"":true,""version"":""105.0"",""blink"":true,""windows"":true,""osname"":""Windows"",""osversion"":""10"",""a"":true}","9:23:25","1","3","Test_3","70","f","1","785.7000000476837","1280 x 720","1920 x 1080","true","1","10","","","","",""
"null","<p style=""font-size: 80px;"">+ 10 points</p>","null","html-keyboard-response","172","1151231","0.0-11.0-2.171","616481a4ecc956103a021a3d","5rwk01","CL","33","M","{""name"":""Chrome"",""chrome"":true,""version"":""105.0"",""blink"":true,""windows"":true,""osname"":""Windows"",""osversion"":""10"",""a"":true}","9:23:25","1","3","Test_2","74","j","1","876.6999999284744","1280 x 720","1920 x 1080","true","1","10","","","","",""
"null","<p style=""font-size: 80px;"">+ 10 points</p>","null","html-keyboard-response","173","1154593","0.0-11.0-2.172","616481a4ecc956103a021a3d","5rwk01","CL","33","M","{""name"":""Chrome"",""chrome"":true,""version"":""105.0"",""blink"":true,""windows"":true,""osname"":""Windows"",""osversion"":""10"",""a"":true}","9:23:25","1","3","Test_1","70","f","1","1341.4000000953674","1280 x 720","1920 x 1080","true","1","10","","","","",""
"null","<p style=""font-size: 80px;"">+ 10 points</p>","null","html-keyboard-response","174","1157505","0.0-11.0-2.173","616481a4ecc956103a021a3d","5rwk01","CL","33","M","{""name"":""Chrome"",""chrome"":true,""version"":""105.0"",""blink"":true,""windows"":true,""osname"":""Windows"",""osversion"":""10"",""a"":true}","9:23:25","1","3","Test_1","70","f","1","888.1999999284744","1280 x 720","1920 x 1080","true","1","10","","","","",""
"null","<p style=""font-size: 80px;"">+ 10 points</p>","null","html-keyboard-response","175","1160468","0.0-11.0-2.174","616481a4ecc956103a021a3d","5rwk01","CL","33","M","{""name"":""Chrome"",""chrome"":true,""version"":""105.0"",""blink"":true,""windows"":true,""osname"":""Windows"",""osversion"":""10"",""a"":true}","9:23:25","1","3","Test_3","70","f","1","943.2000000476837","1280 x 720","1920 x 1080","true","1","10","","","","",""
"null","<p style=""font-size: 80px;"">+ 10 points</p>","null","html-keyboard-response","176","1163323","0.0-11.0-2.175","616481a4ecc956103a021a3d","5rwk01","CL","33","M","{""name"":""Chrome"",""chrome"":true,""version"":""105.0"",""blink"":true,""windows"":true,""osname"":""Windows"",""osversion"":""10"",""a"":true}","9:23:25","1","3","Test_4","74","j","1","843.7000000476837","1280 x 720","1920 x 1080","true","1","10","","","","",""
"null","<p style=""font-size: 80px;"">+ 10 points</p>","null","html-keyboard-response","177","1165905","0.0-11.0-2.176","616481a4ecc956103a021a3d","5rwk01","CL","33","M","{""name"":""Chrome"",""chrome"":true,""version"":""105.0"",""blink"":true,""windows"":true,""osname"":""Windows"",""osversion"":""10"",""a"":true}","9:23:25","1","3","Test_1","70","f","1","562.1999999284744","1280 x 720","1920 x 1080","true","1","10","","","","",""
"null","<p style=""font-size: 80px;"">+ 10 points</p>","null","html-keyboard-response","178","1168504","0.0-11.0-2.177","616481a4ecc956103a021a3d","5rwk01","CL","33","M","{""name"":""Chrome"",""chrome"":true,""version"":""105.0"",""blink"":true,""windows"":true,""osname"":""Windows"",""osversion"":""10"",""a"":true}","9:23:25","1","3","Test_1","70","f","1","590.3999999761581","1280 x 720","1920 x 1080","true","1","10","","","","",""
"null","<p style=""font-size: 80px;"">+ 10 points</p>","null","html-keyboard-response","179","1171222","0.0-11.0-2.178","616481a4ecc956103a021a3d","5rwk01","CL","33","M","{""name"":""Chrome"",""chrome"":true,""version"":""105.0"",""blink"":true,""windows"":true,""osname"":""Windows"",""osversion"":""10"",""a"":true}","9:23:25","1","3","Test_1","70","f","1","704.5","1280 x 720","1920 x 1080","true","1","10","","","","",""
"null","<p style=""font-size: 80px;"">+ 10 points</p>","null","html-keyboard-response","180","1173871","0.0-11.0-2.179","616481a4ecc956103a021a3d","5rwk01","CL","33","M","{""name"":""Chrome"",""chrome"":true,""version"":""105.0"",""blink"":true,""windows"":true,""osname"":""Windows"",""osversion"":""10"",""a"":true}","9:23:25","1","3","Test_2","74","j","1","619.5","1280 x 720","1920 x 1080","true","1","10","","","","",""
"null","<p style=""font-size: 80px;"">+ 10 points</p>","null","html-keyboard-response","181","1176576","0.0-11.0-2.180","616481a4ecc956103a021a3d","5rwk01","CL","33","M","{""name"":""Chrome"",""chrome"":true,""version"":""105.0"",""blink"":true,""windows"":true,""osname"":""Windows"",""osversion"":""10"",""a"":true}","9:23:25","1","3","Test_3","70","f","1","693.1000000238419","1280 x 720","1920 x 1080","true","1","10","","","","",""
"null","<p style=""font-size: 80px;"">+ 10 points</p>","null","html-keyboard-response","182","1179455","0.0-11.0-2.181","616481a4ecc956103a021a3d","5rwk01","CL","33","M","{""name"":""Chrome"",""chrome"":true,""version"":""105.0"",""blink"":true,""windows"":true,""osname"":""Windows"",""osversion"":""10"",""a"":true}","9:23:25","1","3","Test_4","74","j","1","851.3999999761581","1280 x 720","1920 x 1080","true","1","10","","","","",""
"null","<p style=""font-size: 80px;"">+ 0 points</p>","null","html-keyboard-response","183","1182140","0.0-11.0-2.182","616481a4ecc956103a021a3d","5rwk01","CL","33","M","{""name"":""Chrome"",""chrome"":true,""version"":""105.0"",""blink"":true,""windows"":true,""osname"":""Windows"",""osversion"":""10"",""a"":true}","9:23:25","1","4","Test_3","70","j","0","656.7999999523163","1280 x 720","1920 x 1080","true","1","0","","","","",""
"null","<p style=""font-size: 80px;"">+ 10 points</p>","null","html-keyboard-response","184","1184965","0.0-11.0-2.183","616481a4ecc956103a021a3d","5rwk01","CL","33","M","{""name"":""Chrome"",""chrome"":true,""version"":""105.0"",""blink"":true,""windows"":true,""osname"":""Windows"",""osversion"":""10"",""a"":true}","9:23:25","1","4","Test_1","74","j","1","800.5999999046326","1280 x 720","1920 x 1080","true","1","10","","","","",""
"null","<p style=""font-size: 80px;"">+ 10 points</p>","null","html-keyboard-response","185","1187494","0.0-11.0-2.184","616481a4ecc956103a021a3d","5rwk01","CL","33","M","{""name"":""Chrome"",""chrome"":true,""version"":""105.0"",""blink"":true,""windows"":true,""osname"":""Windows"",""osversion"":""10"",""a"":true}","9:23:25","1","4","Test_2","70","f","1","513.3999999761581","1280 x 720","1920 x 1080","true","1","10","","","","",""
"null","<p style=""font-size: 80px;"">+ 10 points</p>","null","html-keyboard-response","186","1190357","0.0-11.0-2.185","616481a4ecc956103a021a3d","5rwk01","CL","33","M","{""name"":""Chrome"",""chrome"":true,""version"":""105.0"",""blink"":true,""windows"":true,""osname"":""Windows"",""osversion"":""10"",""a"":true}","9:23:25","1","4","Test_4","70","f","1","843","1280 x 720","1920 x 1080","true","1","10","","","","",""
"null","<p style=""font-size: 80px;"">+ 10 points</p>","null","html-keyboard-response","187","1193084","0.0-11.0-2.186","616481a4ecc956103a021a3d","5rwk01","CL","33","M","{""name"":""Chrome"",""chrome"":true,""version"":""105.0"",""blink"":true,""windows"":true,""osname"":""Windows"",""osversion"":""10"",""a"":true}","9:23:25","1","4","Test_3","74","j","1","705.8000000715256","1280 x 720","1920 x 1080","true","1","10","","","","",""
"null","<p style=""font-size: 80px;"">+ 10 points</p>","null","html-keyboard-response","188","1196031","0.0-11.0-2.187","616481a4ecc956103a021a3d","5rwk01","CL","33","M","{""name"":""Chrome"",""chrome"":true,""version"":""105.0"",""blink"":true,""windows"":true,""osname"":""Windows"",""osversion"":""10"",""a"":true}","9:23:25","1","4","Test_4","70","f","1","915.8999999761581","1280 x 720","1920 x 1080","true","1","10","","","","",""
"null","<p style=""font-size: 80px;"">+ 10 points</p>","null","html-keyboard-response","189","1199800","0.0-11.0-2.188","616481a4ecc956103a021a3d","5rwk01","CL","33","M","{""name"":""Chrome"",""chrome"":true,""version"":""105.0"",""blink"":true,""windows"":true,""osname"":""Windows"",""osversion"":""10"",""a"":true}","9:23:25","1","4","Test_1","74","j","1","1751.8000000715256","1280 x 720","1920 x 1080","true","1","10","","","","",""