"rt","stimulus","key_press","trial_type","trial_index","time_elapsed","internal_node_id","Prolific_ID","random_ID","initials","age","gender","pc_info","start_time","Phase","Rule","Stimulus","Response","CorrResp","Accuracy","ResponseTime","screen_resolution","window_resolution","focus","relevant","Points","responses","question_order","rev_check","butterfly_check","passed_practice"
"null","<p style=""font-size: 80px;"">+ 10 points</p>","null","html-keyboard-response","1","87586","0.0-7.0-2.0","58ededd652ac63000154a4e6","fzzhp6","DAJ","58","M","{""name"":""Safari"",""safari"":true,""version"":""15.6"",""webkit"":true,""mac"":true,""osname"":""macOS"",""osversion"":""10.15.7"",""a"":true}","9:15:27","0","1","Practice_2","74","j","1","2068","2560 x 1440","2560 x 1440","true","1","10","","","","",""
"null","<p style=""font-size: 80px;"">+ 10 points</p>","null","html-keyboard-response","2","91208","0.0-7.0-2.1","58ededd652ac63000154a4e6","fzzhp6","DAJ","58","M","{""name"":""Safari"",""safari"":true,""version"":""15.6"",""webkit"":true,""mac"":true,""osname"":""macOS"",""osversion"":""10.15.7"",""a"":true}","9:15:27","0","1","Practice_3","70","f","1","1618","2560 x 1440","2560 x 1440","true","1","10","","","","",""
"null","<p style=""font-size: 80px;"">+ 10 points</p>","null","html-keyboard-response","3","95001","0.0-7.0-2.2","58ededd652ac63000154a4e6","fzzhp6","DAJ","58","M","{""name"":""Safari"",""safari"":true,""version"":""15.6"",""webkit"":true,""mac"":true,""osname"":""macOS"",""osversion"":""10.15.7"",""a"":true}","9:15:27","0","1","Practice_1","70","f","1","1789","2560 x 1440","2560 x 1440","true","1","10","","","","",""
"null","<p style=""font-size: 80px;"">+ 10 points</p>","null","html-keyboard-response","4","98171","0.0-7.0-2.3","58ededd652ac63000154a4e6","fzzhp6","DAJ","58","M","{""name"":""Safari"",""safari"":true,""version"":""15.6"",""webkit"":true,""mac"":true,""osname"":""macOS"",""osversion"":""10.15.7"",""a"":true}","9:15:27","0","1","Practice_3","70","f","1","1168","2560 x 1440","2560 x 1440","true","1","10","","","","",""
"null","<p style=""font-size: 80px;"">+ 10 points</p>","null","html-keyboard-response","5","101065","0.0-7.0-2.4","58ededd652ac63000154a4e6","fzzhp6","DAJ","58","M","{""name"":""Safari"",""safari"":true,""version"":""15.6"",""webkit"":true,""mac"":true,""osname"":""macOS"",""osversion"":""10.15.7"",""a"":true}","9:15:27","0","1","Practice_2","74","j","1","890","2560 x 1440","2560 x 1440","true","1","10","","","","",""
"null","<p style=""font-size: 80px;"">+ 10 points</p>","null","html-keyboard-response","6","103898","0.0-7.0-2.5","58ededd652ac63000154a4e6","fzzhp6","DAJ","58","M","{""name"":""Safari"",""safari"":true,""version"":""15.6"",""webkit"":true,""mac"":true,""osname"":""macOS"",""osversion"":""10.15.7"",""a"":true}","9:15:27","0","1","Practice_3","70","f","1","830","2560 x 1440","2560 x 1440","true","1","10","","","","",""
"null","<p style=""font-size: 80px;"">+ 10 points</p>","null","html-keyboard-response","7","107160","0.0-7.0-2.6","58ededd652ac63000154a4e6","fzzhp6","DAJ","58","M","{""name"":""Safari"",""safari"":true,""version"":""15.6"",""webkit"":true,""mac"":true,""osname"":""macOS"",""osversion"":""10.15.7"",""a"":true}","9:15:27","0","1","Practice_4","74","j","1","1259","2560 x 1440","2560 x 1440","true","1","10","","","","",""
"null","<p style=""font-size: 80px;"">+ 10 points</p>","null","html-keyboard-response","8","110166","0.0-7.0-2.7","58ededd652ac63000154a4e6","fzzhp6","DAJ","58","M","{""name"":""Safari"",""safari"":true,""version"":""15.6"",""webkit"":true,""mac"":true,""osname"":""macOS"",""osversion"":""10.15.7"",""a"":true}","9:15:27","0","1","Practice_2","74","j","1","1002.0000000000146","2560 x 1440","2560 x 1440","true","1","10","","","","",""
"null","<p style=""font-size: 80px;"">+ 10 points</p>","null","html-keyboard-response","9","113463","0.0-7.0-2.8","58ededd652ac63000154a4e6","fzzhp6","DAJ","58","M","{""name"":""Safari"",""safari"":true,""version"":""15.6"",""webkit"":true,""mac"":true,""osname"":""macOS"",""osversion"":""10.15.7"",""a"":true}","9:15:27","0","1","Practice_1","70","f","1","1293","2560 x 1440","2560 x 1440","true","1","10","","","","",""
"null","<p style=""font-size: 80px;"">+ 10 points</p>","null","html-keyboard-response","10","117467","0.0-7.0-2.9","58ededd652ac63000154a4e6","fzzhp6","DAJ","58","M","{""name"":""Safari"",""safari"":true,""version"":""15.6"",""webkit"":true,""mac"":true,""osname"":""macOS"",""osversion"":""10.15.7"",""a"":true}","9:15:27","0","1","Practice_1","70","f","1","2001","2560 x 1440","2560 x 1440","true","1","10","","","","",""
"null","<p style=""font-size: 80px;"">+ 10 points</p>","null","html-keyboard-response","11","120300","0.0-7.0-2.10","58ededd652ac63000154a4e6","fzzhp6","DAJ","58","M","{""name"":""Safari"",""safari"":true,""version"":""15.6"",""webkit"":true,""mac"":true,""osname"":""macOS"",""osversion"":""10.15.7"",""a"":true}","9:15:27","0","1","Practice_2","74","j","1","830","2560 x 1440","2560 x 1440","true","1","10","","","","",""
"null","<p style=""font-size: 80px;"">+ 10 points</p>","null","html-keyboard-response","12","123509","0.0-7.0-2.11","58ededd652ac63000154a4e6","fzzhp6","DAJ","58","M","{""name"":""Safari"",""safari"":true,""version"":""15.6"",""webkit"":true,""mac"":true,""osname"":""macOS"",""osversion"":""10.15.7"",""a"":true}","9:15:27","0","1","Practice_4","74","j","1","1205.0000000000146","2560 x 1440","2560 x 1440","true","1","10","","","","",""
"null","<p style=""font-size: 80px;"">+ 10 points</p>","null","html-keyboard-response","13","126196","0.0-7.0-2.12","58ededd652ac63000154a4e6","fzzhp6","DAJ","58","M","{""name"":""Safari"",""safari"":true,""version"":""15.6"",""webkit"":true,""mac"":true,""osname"":""macOS"",""osversion"":""10.15.7"",""a"":true}","9:15:27","0","1","Practice_3","70","f","1","683","2560 x 1440","2560 x 1440","true","1","10","","","","",""
"null","<p style=""font-size: 80px;"">+ 10 points</p>","null","html-keyboard-response","14","129119","0.0-7.0-2.13","58ededd652ac63000154a4e6","fzzhp6","DAJ","58","M","{""name"":""Safari"",""safari"":true,""version"":""15.6"",""webkit"":true,""mac"":true,""osname"":""macOS"",""osversion"":""10.15.7"",""a"":true}","9:15:27","0","1","Practice_1","70","f","1","919","2560 x 1440","2560 x 1440","true","1","10","","","","",""
"null","<p style=""font-size: 80px;"">+ 10 points</p>","null","html-keyboard-response","15","132115","0.0-7.0-2.14","58ededd652ac63000154a4e6","fzzhp6","DAJ","58","M","{""name"":""Safari"",""safari"":true,""version"":""15.6"",""webkit"":true,""mac"":true,""osname"":""macOS"",""osversion"":""10.15.7"",""a"":true}","9:15:27","0","1","Practice_4","74","j","1","989","2560 x 1440","2560 x 1440","true","1","10","","","","",""
"null","<p style=""font-size: 80px;"">+ 0 points</p>","null","html-keyboard-response","16","134904","0.0-7.0-2.15","58ededd652ac63000154a4e6","fzzhp6","DAJ","58","M","{""name"":""Safari"",""safari"":true,""version"":""15.6"",""webkit"":true,""mac"":true,""osname"":""macOS"",""osversion"":""10.15.7"",""a"":true}","9:15:27","0","1","Practice_4","70","j","0","784","2560 x 1440","2560 x 1440","true","1","0","","","","",""
"null","<p style=""font-size: 80px;"">+ 10 points</p>","null","html-keyboard-response","17","138133","0.0-7.0-2.16","58ededd652ac63000154a4e6","fzzhp6","DAJ","58","M","{""name"":""Safari"",""safari"":true,""version"":""15.6"",""webkit"":true,""mac"":true,""osname"":""macOS"",""osversion"":""10.15.7"",""a"":true}","9:15:27","0","1","Practice_1","70","f","1","1226.000000000029","2560 x 1440","2560 x 1440","true","1","10","","","","",""
"null","<p style=""font-size: 80px;"">+ 10 points</p>","null","html-keyboard-response","18","140890","0.0-7.0-2.17","58ededd652ac63000154a4e6","fzzhp6","DAJ","58","M","{""name"":""Safari"",""safari"":true,""version"":""15.6"",""webkit"":true,""mac"":true,""osname"":""macOS"",""osversion"":""10.15.7"",""a"":true}","9:15:27","0","1","Practice_2","74","j","1","752","2560 x 1440","2560 x 1440","true","1","10","","","","",""
"null","<p style=""font-size: 80px;"">+ 10 points</p>","null","html-keyboard-response","19","143837","0.0-7.0-2.18","58ededd652ac63000154a4e6","fzzhp6","DAJ","58","M","{""name"":""Safari"",""safari"":true,""version"":""15.6"",""webkit"":true,""mac"":true,""osname"":""macOS"",""osversion"":""10.15.7"",""a"":true}","9:15:27","0","1","Practice_3","70","f","1","943","2560 x 1440","2560 x 1440","true","1","10","","","","",""
"null","<p style=""font-size: 80px;"">+ 10 points</p>","null","html-keyboard-response","20","146772","0.0-7.0-2.19","58ededd652ac63000154a4e6","fzzhp6","DAJ","58","M","{""name"":""Safari"",""safari"":true,""version"":""15.6"",""webkit"":true,""mac"":true,""osname"":""macOS"",""osversion"":""10.15.7"",""a"":true}","9:15:27","0","1","Practice_4","74","j","1","929.9999999999709","2560 x 1440","2560 x 1440","true","1","10","","","","",""
"null","<p style=""font-size: 80px;"">+ 0 points</p>","null","html-keyboard-response","21","150014","0.0-7.0-2.20","58ededd652ac63000154a4e6","fzzhp6","DAJ","58","M","{""name"":""Safari"",""safari"":true,""version"":""15.6"",""webkit"":true,""mac"":true,""osname"":""macOS"",""osversion"":""10.15.7"",""a"":true}","9:15:27","0","2","Practice_4","74","f","0","1239.000000000029","2560 x 1440","2560 x 1440","true","1","0","","","","",""
"null","<p style=""font-size: 80px;"">+ 10 points</p>","null","html-keyboard-response","22","153095","0.0-7.0-2.21","58ededd652ac63000154a4e6","fzzhp6","DAJ","58","M","{""name"":""Safari"",""safari"":true,""version"":""15.6"",""webkit"":true,""mac"":true,""osname"":""macOS"",""osversion"":""10.15.7"",""a"":true}","9:15:27","0","2","Practice_2","70","f","1","1077","2560 x 1440","2560 x 1440","true","1","10","","","","",""
"null","<p style=""font-size: 80px;"">+ 10 points</p>","null","html-keyboard-response","23","156157","0.0-7.0-2.22","58ededd652ac63000154a4e6","fzzhp6","DAJ","58","M","{""name"":""Safari"",""safari"":true,""version"":""15.6"",""webkit"":true,""mac"":true,""osname"":""macOS"",""osversion"":""10.15.7"",""a"":true}","9:15:27","0","2","Practice_4","70","f","1","1059.000000000029","2560 x 1440","2560 x 1440","true","1","10","","","","",""
"null","<p style=""font-size: 80px;"">+ 0 points</p>","null","html-keyboard-response","24","159327","0.0-7.0-2.23","58ededd652ac63000154a4e6","fzzhp6","DAJ","58","M","{""name"":""Safari"",""safari"":true,""version"":""15.6"",""webkit"":true,""mac"":true,""osname"":""macOS"",""osversion"":""10.15.7"",""a"":true}","9:15:27","0","2","Practice_1","70","j","0","1166","2560 x 1440","2560 x 1440","true","1","0","","","","",""
"null","<p style=""font-size: 80px;"">+ 10 points</p>","null","html-keyboard-response","25","162590","0.0-7.0-2.24","58ededd652ac63000154a4e6","fzzhp6","DAJ","58","M","{""name"":""Safari"",""safari"":true,""version"":""15.6"",""webkit"":true,""mac"":true,""osname"":""macOS"",""osversion"":""10.15.7"",""a"":true}","9:15:27","0","2","Practice_1","74","j","1","1260","2560 x 1440","2560 x 1440","true","1","10","","","","",""
"null","<p style=""font-size: 80px;"">+ 10 points</p>","null","html-keyboard-response","26","166157","0.0-7.0-2.25","58ededd652ac63000154a4e6","fzzhp6","DAJ","58","M","{""name"":""Safari"",""safari"":true,""version"":""15.6"",""webkit"":true,""mac"":true,""osname"":""macOS"",""osversion"":""10.15.7"",""a"":true}","9:15:27","0","2","Practice_4","70","f","1","1564.000000000029","2560 x 1440","2560 x 1440","true","1","10","","","","",""
"null","<p style=""font-size: 80px;"">+ 10 points</p>","null","html-keyboard-response","27","170129","0.0-7.0-2.26","58ededd652ac63000154a4e6","fzzhp6","DAJ","58","M","{""name"":""Safari"",""safari"":true,""version"":""15.6"",""webkit"":true,""mac"":true,""osname"":""macOS"",""osversion"":""10.15.7"",""a"":true}","9:15:27","0","2","Practice_2","70","f","1","1970","2560 x 1440","2560 x 1440","true","1","10","","","","",""
"null","<p style=""font-size: 80px;"">+ 10 points</p>","null","html-keyboard-response","28","173896","0.0-7.0-2.27","58ededd652ac63000154a4e6","fzzhp6","DAJ","58","M","{""name"":""Safari"",""safari"":true,""version"":""15.6"",""webkit"":true,""mac"":true,""osname"":""macOS"",""osversion"":""10.15.7"",""a"":true}","9:15:27","0","2","Practice_2","70","f","1","1763","2560 x 1440","2560 x 1440","true","1","10","","","","",""
"null","<p style=""font-size: 80px;"">+ 10 points</p>","null","html-keyboard-response","29","177529","0.0-7.0-2.28","58ededd652ac63000154a4e6","fzzhp6","DAJ","58","M","{""name"":""Safari"",""safari"":true,""version"":""15.6"",""webkit"":true,""mac"":true,""osname"":""macOS"",""osversion"":""10.15.7"",""a"":true}","9:15:27","0","2","Practice_1","74","j","1","1628.999999999971","2560 x 1440","2560 x 1440","true","1","10","","","","",""
"null","<p style=""font-size: 80px;"">+ 10 points</p>","null","html-keyboard-response","30","180908","0.0-7.0-2.29","58ededd652ac63000154a4e6","fzzhp6","DAJ","58","M","{""name"":""Safari"",""safari"":true,""version"":""15.6"",""webkit"":true,""mac"":true,""osname"":""macOS"",""osversion"":""10.15.7"",""a"":true}","9:15:27","0","2","Practice_3","74","j","1","1375","2560 x 1440","2560 x 1440","true","1","10","","","","",""
"null","<p style=""font-size: 80px;"">+ 10 points</p>","null","html-keyboard-response","31","184787","0.0-7.0-2.30","58ededd652ac63000154a4e6","fzzhp6","DAJ","58","M","{""name"":""Safari"",""safari"":true,""version"":""15.6"",""webkit"":true,""mac"":true,""osname"":""macOS"",""osversion"":""10.15.7"",""a"":true}","9:15:27","0","2","Practice_1","74","j","1","1875","2560 x 1440","2560 x 1440","true","1","10","","","","",""
"null","<p style=""font-size: 80px;"">+ 10 points</p>","null","html-keyboard-response","32","188645","0.0-7.0-2.31","58ededd652ac63000154a4e6","fzzhp6","DAJ","58","M","{""name"":""Safari"",""safari"":true,""version"":""15.6"",""webkit"":true,""mac"":true,""osname"":""macOS"",""osversion"":""10.15.7"",""a"":true}","9:15:27","0","2","Practice_4","70","f","1","1854","2560 x 1440","2560 x 1440","true","1","10","","","","",""
"null","<p style=""font-size: 80px;"">+ 10 points</p>","null","html-keyboard-response","33","192494","0.0-7.0-2.32","58ededd652ac63000154a4e6","fzzhp6","DAJ","58","M","{""name"":""Safari"",""safari"":true,""version"":""15.6"",""webkit"":true,""mac"":true,""osname"":""macOS"",""osversion"":""10.15.7"",""a"":true}","9:15:27","0","2","Practice_2","70","f","1","1846.000000000029","2560 x 1440","2560 x 1440","true","1","10","","","","",""
"null","<p style=""font-size: 80px;"">+ 10 points</p>","null","html-keyboard-response","34","197240","0.0-7.0-2.33","58ededd652ac63000154a4e6","fzzhp6","DAJ","58","M","{""name"":""Safari"",""safari"":true,""version"":""15.6"",""webkit"":true,""mac"":true,""osname"":""macOS"",""osversion"":""10.15.7"",""a"":true}","9:15:27","0","2","Practice_4","70","f","1","2742","2560 x 1440","2560 x 1440","true","1","10","","","","",""
"null","<p style=""font-size: 80px;"">+ 10 points</p>","null","html-keyboard-response","35","200390","0.0-7.0-2.34","58ededd652ac63000154a4e6","fzzhp6","DAJ","58","M","{""name"":""Safari"",""safari"":true,""version"":""15.6"",""webkit"":true,""mac"":true,""osname"":""macOS"",""osversion"":""10.15.7"",""a"":true}","9:15:27","0","2","Practice_3","74","j","1","1145.999999999971","2560 x 1440","2560 x 1440","true","1","10","","","","",""
"null","<p style=""font-size: 80px;"">+ 10 points</p>","null","html-keyboard-response","36","203981","0.0-7.0-2.35","58ededd652ac63000154a4e6","fzzhp6","DAJ","58","M","{""name"":""Safari"",""safari"":true,""version"":""15.6"",""webkit"":true,""mac"":true,""osname"":""macOS"",""osversion"":""10.15.7"",""a"":true}","9:15:27","0","2","Practice_3","74","j","1","1587","2560 x 1440","2560 x 1440","true","1","10","","","","",""
"null","<p style=""font-size: 80px;"">+ 10 points</p>","null","html-keyboard-response","37","207478","0.0-7.0-2.36","58ededd652ac63000154a4e6","fzzhp6","DAJ","58","M","{""name"":""Safari"",""safari"":true,""version"":""15.6"",""webkit"":true,""mac"":true,""osname"":""macOS"",""osversion"":""10.15.7"",""a"":true}","9:15:27","0","2","Practice_1","74","j","1","1494","2560 x 1440","2560 x 1440","true","1","10","","","","",""
"null","<p style=""font-size: 80px;"">+ 10 points</p>","null","html-keyboard-response","38","210574","0.0-7.0-2.37","58ededd652ac63000154a4e6","fzzhp6","DAJ","58","M","{""name"":""Safari"",""safari"":true,""version"":""15.6"",""webkit"":true,""mac"":true,""osname"":""macOS"",""osversion"":""10.15.7"",""a"":true}","9:15:27","0","2","Practice_3","74","j","1","1090.999999999971","2560 x 1440","2560 x 1440","true","1","10","","","","",""
"null","<p style=""font-size: 80px;"">+ 10 points</p>","null","html-keyboard-response","39","214206","0.0-7.0-2.38","58ededd652ac63000154a4e6","fzzhp6","DAJ","58","M","{""name"":""Safari"",""safari"":true,""version"":""15.6"",""webkit"":true,""mac"":true,""osname"":""macOS"",""osversion"":""10.15.7"",""a"":true}","9:15:27","0","2","Practice_2","70","f","1","1628","2560 x 1440","2560 x 1440","true","1","10","","","","",""
"null","<p style=""font-size: 80px;"">+ 10 points</p>","null","html-keyboard-response","40","217727","0.0-7.0-2.39","58ededd652ac63000154a4e6","fzzhp6","DAJ","58","M","{""name"":""Safari"",""safari"":true,""version"":""15.6"",""webkit"":true,""mac"":true,""osname"":""macOS"",""osversion"":""10.15.7"",""a"":true}","9:15:27","0","2","Practice_3","74","j","1","1517","2560 x 1440","2560 x 1440","true","1","10","","","","",""
"15164","","","survey-multi-choice","127","232892","0.0-8.0","58ededd652ac63000154a4e6","fzzhp6","DAJ","58","M","{""name"":""Safari"",""safari"":true,""version"":""15.6"",""webkit"":true,""mac"":true,""osname"":""macOS"",""osversion"":""10.15.7"",""a"":true}","9:15:27","","","","","","","","","","","1","","{""Q0"":""The green one"",""Q1"":""1""}","[0,1]","1","The green one","1"
"null","<p style=""font-size: 80px;"">+ 10 points</p>","null","html-keyboard-response","1","243781","0.0-9.0-1.0-2.0","58ededd652ac63000154a4e6","fzzhp6","DAJ","58","M","{""name"":""Safari"",""safari"":true,""version"":""15.6"",""webkit"":true,""mac"":true,""osname"":""macOS"",""osversion"":""10.15.7"",""a"":true}","9:15:27","0","1","Practice_2","74","j","1","2992","2560 x 1440","2560 x 1440","true","1","10","","","","",""
"null","<p style=""font-size: 80px;"">+ 10 points</p>","null","html-keyboard-response","2","247944","0.0-9.0-1.0-2.1","58ededd652ac63000154a4e6","fzzhp6","DAJ","58","M","{""name"":""Safari"",""safari"":true,""version"":""15.6"",""webkit"":true,""mac"":true,""osname"":""macOS"",""osversion"":""10.15.7"",""a"":true}","9:15:27","0","1","Practice_3","70","f","1","2159.999999999971","2560 x 1440","2560 x 1440","true","1","10","","","","",""
"null","<p style=""font-size: 80px;"">+ 10 points</p>","null","html-keyboard-response","3","253571","0.0-9.0-1.0-2.2","58ededd652ac63000154a4e6","fzzhp6","DAJ","58","M","{""name"":""Safari"",""safari"":true,""version"":""15.6"",""webkit"":true,""mac"":true,""osname"":""macOS"",""osversion"":""10.15.7"",""a"":true}","9:15:27","0","1","Practice_1","70","f","1","3625","2560 x 1440","2560 x 1440","true","1","10","","","","",""
"null","<p style=""font-size: 80px;"">+ 10 points</p>","null","html-keyboard-response","4","257045","0.0-9.0-1.0-2.3","58ededd652ac63000154a4e6","fzzhp6","DAJ","58","M","{""name"":""Safari"",""safari"":true,""version"":""15.6"",""webkit"":true,""mac"":true,""osname"":""macOS"",""osversion"":""10.15.7"",""a"":true}","9:15:27","0","1","Practice_3","70","f","1","1471.000000000029","2560 x 1440","2560 x 1440","true","1","10","","","","",""
"null","<p style=""font-size: 80px;"">+ 10 points</p>","null","html-keyboard-response","5","261095","0.0-9.0-1.0-2.4","58ededd652ac63000154a4e6","fzzhp6","DAJ","58","M","{""name"":""Safari"",""safari"":true,""version"":""15.6"",""webkit"":true,""mac"":true,""osname"":""macOS"",""osversion"":""10.15.7"",""a"":true}","9:15:27","0","1","Practice_2","74","j","1","2047.0000000000582","2560 x 1440","2560 x 1440","true","1","10","","","","",""
"null","<p style=""font-size: 80px;"">+ 10 points</p>","null","html-keyboard-response","6","264527","0.0-9.0-1.0-2.5","58ededd652ac63000154a4e6","fzzhp6","DAJ","58","M","{""name"":""Safari"",""safari"":true,""version"":""15.6"",""webkit"":true,""mac"":true,""osname"":""macOS"",""osversion"":""10.15.7"",""a"":true}","9:15:27","0","1","Practice_3","70","f","1","1428","2560 x 1440","2560 x 1440","true","1","10","","","","",""
"null","<p style=""font-size: 80px;"">+ 10 points</p>","null","html-keyboard-response","7","270129","0.0-9.0-1.0-2.6","58ededd652ac63000154a4e6","fzzhp6","DAJ","58","M","{""name"":""Safari"",""safari"":true,""version"":""15.6"",""webkit"":true,""mac"":true,""osname"":""macOS"",""osversion"":""10.15.7"",""a"":true}","9:15:27","0","1","Practice_4","74","j","1","3598.999999999942","2560 x 1440","2560 x 1440","true","1","10","","","","",""
"null","<p style=""font-size: 80px; line-height: 1.4em;"">Too late</br> Speed up!</p>","null","html-keyboard-response","8","277132","0.0-9.0-1.0-2.7","58ededd652ac63000154a4e6","fzzhp6","DAJ","58","M","{""name"":""Safari"",""safari"":true,""version"":""15.6"",""webkit"":true,""mac"":true,""osname"":""macOS"",""osversion"":""10.15.7"",""a"":true}","9:15:27","0","1","Practice_2","null","j","0","null","2560 x 1440","2560 x 1440","true","1","0","","","","",""
"null","<p style=""font-size: 80px;"">+ 10 points</p>","null","html-keyboard-response","9","280356","0.0-9.0-1.0-2.8","58ededd652ac63000154a4e6","fzzhp6","DAJ","58","M","{""name"":""Safari"",""safari"":true,""version"":""15.6"",""webkit"":true,""mac"":true,""osname"":""macOS"",""osversion"":""10.15.7"",""a"":true}","9:15:27","0","1","Practice_1","70","f","1","1220","2560 x 1440","2560 x 1440","true","1","10","","","","",""
"null","<p style=""font-size: 80px;"">+ 10 points</p>","null","html-keyboard-response","10","283429","0.0-9.0-1.0-2.9","58ededd652ac63000154a4e6","fzzhp6","DAJ","58","M","{""name"":""Safari"",""safari"":true,""version"":""15.6"",""webkit"":true,""mac"":true,""osname"":""macOS"",""osversion"":""10.15.7"",""a"":true}","9:15:27","0","1","Practice_1","70","f","1","1070.0000000000582","2560 x 1440","2560 x 1440","true","1","10","","","","",""
"null","<p style=""font-size: 80px;"">+ 10 points</p>","null","html-keyboard-response","11","286374","0.0-9.0-1.0-2.10","58ededd652ac63000154a4e6","fzzhp6","DAJ","58","M","{""name"":""Safari"",""safari"":true,""version"":""15.6"",""webkit"":true,""mac"":true,""osname"":""macOS"",""osversion"":""10.15.7"",""a"":true}","9:15:27","0","1","Practice_2","74","j","1","942","2560 x 1440","2560 x 1440","true","1","10","","","","",""
"null","<p style=""font-size: 80px;"">+ 10 points</p>","null","html-keyboard-response","12","289549","0.0-9.0-1.0-2.11","58ededd652ac63000154a4e6","fzzhp6","DAJ","58","M","{""name"":""Safari"",""safari"":true,""version"":""15.6"",""webkit"":true,""mac"":true,""osname"":""macOS"",""osversion"":""10.15.7"",""a"":true}","9:15:27","0","1","Practice_4","74","j","1","1172","2560 x 1440","2560 x 1440","true","1","10","","","","",""
"null","<p style=""font-size: 80px;"">+ 10 points</p>","null","html-keyboard-response","13","294126","0.0-9.0-1.0-2.12","58ededd652ac63000154a4e6","fzzhp6","DAJ","58","M","{""name"":""Safari"",""safari"":true,""version"":""15.6"",""webkit"":true,""mac"":true,""osname"":""macOS"",""osversion"":""10.15.7"",""a"":true}","9:15:27","0","1","Practice_3","70","f","1","2573","2560 x 1440","2560 x 1440","true","1","10","","","","",""
"null","<p style=""font-size: 80px;"">+ 10 points</p>","null","html-keyboard-response","14","298168","0.0-9.0-1.0-2.13","58ededd652ac63000154a4e6","fzzhp6","DAJ","58","M","{""name"":""Safari"",""safari"":true,""version"":""15.6"",""webkit"":true,""mac"":true,""osname"":""macOS"",""osversion"":""10.15.7"",""a"":true}","9:15:27","0","1","Practice_1","70","f","1","2037.0000000000582","2560 x 1440","2560 x 1440","true","1","10","","","","",""
"null","<p style=""font-size: 80px;"">+ 10 points</p>","null","html-keyboard-response","15","301619","0.0-9.0-1.0-2.14","58ededd652ac63000154a4e6","fzzhp6","DAJ","58","M","{""name"":""Safari"",""safari"":true,""version"":""15.6"",""webkit"":true,""mac"":true,""osname"":""macOS"",""osversion"":""10.15.7"",""a"":true}","9:15:27","0","1","Practice_4","74","j","1","1446.0000000000582","2560 x 1440","2560 x 1440","true","1","10","","","","",""
"null","<p style=""font-size: 80px;"">+ 10 points</p>","null","html-keyboard-response","16","305344","0.0-9.0-1.0-2.15","58ededd652ac63000154a4e6","fzzhp6","DAJ","58","M","{""name"":""Safari"",""safari"":true,""version"":""15.6"",""webkit"":true,""mac"":true,""osname"":""macOS"",""osversion"":""10.15.7"",""a"":true}","9:15:27","0","1","Practice_4","74","j","1","1722","2560 x 1440","2560 x 1440","true","1","10","","","","",""
"null","<p style=""font-size: 80px;"">+ 10 points</p>","null","html-keyboard-response","17","309133","0.0-9.0-1.0-2.16","58ededd652ac63000154a4e6","fzzhp6","DAJ","58","M","{""name"":""Safari"",""safari"":true,""version"":""15.6"",""webkit"":true,""mac"":true,""osname"":""macOS"",""osversion"":""10.15.7"",""a"":true}","9:15:27","0","1","Practice_1","70","f","1","1785","2560 x 1440","2560 x 1440","true","1","10","","","","",""
"null","<p style=""font-size: 80px;"">+ 10 points</p>","null","html-keyboard-response","18","312103","0.0-9.0-1.0-2.17","58ededd652ac63000154a4e6","fzzhp6","DAJ","58","M","{""name"":""Safari"",""safari"":true,""version"":""15.6"",""webkit"":true,""mac"":true,""osname"":""macOS"",""osversion"":""10.15.7"",""a"":true}","9:15:27","0","1","Practice_2","74","j","1","968","2560 x 1440","2560 x 1440","true","1","10","","","","",""
"null","<p style=""font-size: 80px;"">+ 10 points</p>","null","html-keyboard-response","19","315310","0.0-9.0-1.0-2.18","58ededd652ac63000154a4e6","fzzhp6","DAJ","58","M","{""name"":""Safari"",""safari"":true,""version"":""15.6"",""webkit"":true,""mac"":true,""osname"":""macOS"",""osversion"":""10.15.7"",""a"":true}","9:15:27","0","1","Practice_3","70","f","1","1203","2560 x 1440","2560 x 1440","true","1","10","","","","",""
"null","<p style=""font-size: 80px;"">+ 10 points</p>","null","html-keyboard-response","20","318426","0.0-9.0-1.0-2.19","58ededd652ac63000154a4e6","fzzhp6","DAJ","58","M","{""name"":""Safari"",""safari"":true,""version"":""15.6"",""webkit"":true,""mac"":true,""osname"":""macOS"",""osversion"":""10.15.7"",""a"":true}","9:15:27","0","1","Practice_4","74","j","1","1113","2560 x 1440","2560 x 1440","true","1","10","","","","",""
"null","<p style=""font-size: 80px;"">+ 0 points</p>","null","html-keyboard-response","21","321375","0.0-9.0-1.0-2.20","58ededd652ac63000154a4e6","fzzhp6","DAJ","58","M","{""name"":""Safari"",""safari"":true,""version"":""15.6"",""webkit"":true,""mac"":true,""osname"":""macOS"",""osversion"":""10.15.7"",""a"":true}","9:15:27","0","2","Practice_4","74","f","0","946","2560 x 1440","2560 x 1440","true","1","0","","","","",""
"null","<p style=""font-size: 80px;"">+ 10 points</p>","null","html-keyboard-response","22","324714","0.0-9.0-1.0-2.21","58ededd652ac63000154a4e6","fzzhp6","DAJ","58","M","{""name"":""Safari"",""safari"":true,""version"":""15.6"",""webkit"":true,""mac"":true,""osname"":""macOS"",""osversion"":""10.15.7"",""a"":true}","9:15:27","0","2","Practice_2","70","f","1","1335.9999999999418","2560 x 1440","2560 x 1440","true","1","10","","","","",""
"null","<p style=""font-size: 80px;"">+ 10 points</p>","null","html-keyboard-response","23","328936","0.0-9.0-1.0-2.22","58ededd652ac63000154a4e6","fzzhp6","DAJ","58","M","{""name"":""Safari"",""safari"":true,""version"":""15.6"",""webkit"":true,""mac"":true,""osname"":""macOS"",""osversion"":""10.15.7"",""a"":true}","9:15:27","0","2","Practice_4","70","f","1","2217.999999999942","2560 x 1440","2560 x 1440","true","1","10","","","","",""
"null","<p style=""font-size: 80px;"">+ 10 points</p>","null","html-keyboard-response","24","333074","0.0-9.0-1.0-2.23","58ededd652ac63000154a4e6","fzzhp6","DAJ","58","M","{""name"":""Safari"",""safari"":true,""version"":""15.6"",""webkit"":true,""mac"":true,""osname"":""macOS"",""osversion"":""10.15.7"",""a"":true}","9:15:27","0","2","Practice_1","74","j","1","2133","2560 x 1440","2560 x 1440","true","1","10","","","","",""
"null","<p style=""font-size: 80px;"">+ 10 points</p>","null","html-keyboard-response","25","336608","0.0-9.0-1.0-2.24","58ededd652ac63000154a4e6","fzzhp6","DAJ","58","M","{""name"":""Safari"",""safari"":true,""version"":""15.6"",""webkit"":true,""mac"":true,""osname"":""macOS"",""osversion"":""10.15.7"",""a"":true}","9:15:27","0","2","Practice_1","74","j","1","1530","2560 x 1440","2560 x 1440","true","1","10","","","","",""
"null","<p style=""font-size: 80px;"">+ 10 points</p>","null","html-keyboard-response","26","340735","0.0-9.0-1.0-2.25","58ededd652ac63000154a4e6","fzzhp6","DAJ","58","M","{""name"":""Safari"",""safari"":true,""version"":""15.6"",""webkit"":true,""mac"":true,""osname"":""macOS"",""osversion"":""10.15.7"",""a"":true}","9:15:27","0","2","Practice_4","70","f","1","2125","2560 x 1440","2560 x 1440","true","1","10","","","","",""
"null","<p style=""font-size: 80px;"">+ 10 points</p>","null","html-keyboard-response","27","344360","0.0-9.0-1.0-2.26","58ededd652ac63000154a4e6","fzzhp6","DAJ","58","M","{""name"":""Safari"",""safari"":true,""version"":""15.6"",""webkit"":true,""mac"":true,""osname"":""macOS"",""osversion"":""10.15.7"",""a"":true}","9:15:27","0","2","Practice_2","70","f","1","1619","2560 x 1440","2560 x 1440","true","1","10","","","","",""
"null","<p style=""font-size: 80px;"">+ 10 points</p>","null","html-keyboard-response","28","347721","0.0-9.0-1.0-2.27","58ededd652ac63000154a4e6","fzzhp6","DAJ","58","M","{""name"":""Safari"",""safari"":true,""version"":""15.6"",""webkit"":true,""mac"":true,""osname"":""macOS"",""osversion"":""10.15.7"",""a"":true}","9:15:27","0","2","Practice_2","70","f","1","1358","2560 x 1440","2560 x 1440","true","1","10","","","","",""
"null","<p style=""font-size: 80px;"">+ 10 points</p>","null","html-keyboard-response","29","350882","0.0-9.0-1.0-2.28","58ededd652ac63000154a4e6","fzzhp6","DAJ","58","M","{""name"":""Safari"",""safari"":true,""version"":""15.6"",""webkit"":true,""mac"":true,""osname"":""macOS"",""osversion"":""10.15.7"",""a"":true}","9:15:27","0","2","Practice_1","74","j","1","1157.9999999999418","2560 x 1440","2560 x 1440","true","1","10","","","","",""
"null","<p style=""font-size: 80px;"">+ 10 points</p>","null","html-keyboard-response","30","354620","0.0-9.0-1.0-2.29","58ededd652ac63000154a4e6","fzzhp6","DAJ","58","M","{""name"":""Safari"",""safari"":true,""version"":""15.6"",""webkit"":true,""mac"":true,""osname"":""macOS"",""osversion"":""10.15.7"",""a"":true}","9:15:27","0","2","Practice_3","74","j","1","1734","2560 x 1440","2560 x 1440","true","1","10","","","","",""
"null","<p style=""font-size: 80px;"">+ 10 points</p>","null","html-keyboard-response","31","358994","0.0-9.0-1.0-2.30","58ededd652ac63000154a4e6","fzzhp6","DAJ","58","M","{""name"":""Safari"",""safari"":true,""version"":""15.6"",""webkit"":true,""mac"":true,""osname"":""macOS"",""osversion"":""10.15.7"",""a"":true}","9:15:27","0","2","Practice_1","74","j","1","2370.999999999942","2560 x 1440","2560 x 1440","true","1","10","","","","",""
"null","<p style=""font-size: 80px;"">+ 10 points</p>","null","html-keyboard-response","32","362572","0.0-9.0-1.0-2.31","58ededd652ac63000154a4e6","fzzhp6","DAJ","58","M","{""name"":""Safari"",""safari"":true,""version"":""15.6"",""webkit"":true,""mac"":true,""osname"":""macOS"",""osversion"":""10.15.7"",""a"":true}","9:15:27","0","2","Practice_4","70","f","1","1573","2560 x 1440","2560 x 1440","true","1","10","","","","",""
"null","<p style=""font-size: 80px;"">+ 10 points</p>","null","html-keyboard-response","33","366364","0.0-9.0-1.0-2.32","58ededd652ac63000154a4e6","fzzhp6","DAJ","58","M","{""name"":""Safari"",""safari"":true,""version"":""15.6"",""webkit"":true,""mac"":true,""osname"":""macOS"",""osversion"":""10.15.7"",""a"":true}","9:15:27","0","2","Practice_2","70","f","1","1789","2560 x 1440","2560 x 1440","true","1","10","","","","",""
"null","<p style=""font-size: 80px;"">+ 10 points</p>","null","html-keyboard-response","34","370795","0.0-9.0-1.0-2.33","58ededd652ac63000154a4e6","fzzhp6","DAJ","58","M","{""name"":""Safari"",""safari"":true,""version"":""15.6"",""webkit"":true,""mac"":true,""osname"":""macOS"",""osversion"":""10.15.7"",""a"":true}","9:15:27","0","2","Practice_4","70","f","1","2428","2560 x 1440","2560 x 1440","true","1","10","","","","",""
"null","<p style=""font-size: 80px;"">+ 10 points</p>","null","html-keyboard-response","35","374924","0.0-9.0-1.0-2.34","58ededd652ac63000154a4e6","fzzhp6","DAJ","58","M","{""name"":""Safari"",""safari"":true,""version"":""15.6"",""webkit"":true,""mac"":true,""osname"":""macOS"",""osversion"":""10.15.7"",""a"":true}","9:15:27","0","2","Practice_3","74","j","1","2126","2560 x 1440","2560 x 1440","true","1","10","","","","",""
"null","<p style=""font-size: 80px;"">+ 10 points</p>","null","html-keyboard-response","36","378121","0.0-9.0-1.0-2.35","58ededd652ac63000154a4e6","fzzhp6","DAJ","58","M","{""name"":""Safari"",""safari"":true,""version"":""15.6"",""webkit"":true,""mac"":true,""osname"":""macOS"",""osversion"":""10.15.7"",""a"":true}","9:15:27","0","2","Practice_3","74","j","1","1192","2560 x 1440","2560 x 1440","true","1","10","","","","",""
"null","<p style=""font-size: 80px;"">+ 10 points</p>","null","html-keyboard-response","37","381955","0.0-9.0-1.0-2.36","58ededd652ac63000154a4e6","fzzhp6","DAJ","58","M","{""name"":""Safari"",""safari"":true,""version"":""15.6"",""webkit"":true,""mac"":true,""osname"":""macOS"",""osversion"":""10.15.7"",""a"":true}","9:15:27","0","2","Practice_1","74","j","1","1831","2560 x 1440","2560 x 1440","true","1","10","","","","",""
"null","<p style=""font-size: 80px;"">+ 10 points</p>","null","html-keyboard-response","38","385615","0.0-9.0-1.0-2.37","58ededd652ac63000154a4e6","fzzhp6","DAJ","58","M","{""name"":""Safari"",""safari"":true,""version"":""15.6"",""webkit"":true,""mac"":true,""osname"":""macOS"",""osversion"":""10.15.7"",""a"":true}","9:15:27","0","2","Practice_3","74","j","1","1656","2560 x 1440","2560 x 1440","true","1","10","","","","",""
"null","<p style=""font-size: 80px;"">+ 10 points</p>","null","html-keyboard-response","39","389335","0.0-9.0-1.0-2.38","58ededd652ac63000154a4e6","fzzhp6","DAJ","58","M","{""name"":""Safari"",""safari"":true,""version"":""15.6"",""webkit"":true,""mac"":true,""osname"":""macOS"",""osversion"":""10.15.7"",""a"":true}","9:15:27","0","2","Practice_2","70","f","1","1718.0000000000582","2560 x 1440","2560 x 1440","true","1","10","","","","",""
"null","<p style=""font-size: 80px;"">+ 10 points</p>","null","html-keyboard-response","40","392958","0.0-9.0-1.0-2.39","58ededd652ac63000154a4e6","fzzhp6","DAJ","58","M","{""name"":""Safari"",""safari"":true,""version"":""15.6"",""webkit"":true,""mac"":true,""osname"":""macOS"",""osversion"":""10.15.7"",""a"":true}","9:15:27","0","2","Practice_3","74","j","1","1616","2560 x 1440","2560 x 1440","true","1","10","","","","",""
"7238.999999999942","","","survey-multi-choice","249","400198","0.0-9.0-2.0","58ededd652ac63000154a4e6","fzzhp6","DAJ","58","M","{""name"":""Safari"",""safari"":true,""version"":""15.6"",""webkit"":true,""mac"":true,""osname"":""macOS"",""osversion"":""10.15.7"",""a"":true}","9:15:27","","","","","","","","","","","1","","{""Q0"":""The red one"",""Q1"":""1""}","[0,1]","1","The red one","2"
"null","<p style=""font-size: 80px;"">+ 10 points</p>","null","html-keyboard-response","1","464060","0.0-11.0-2.0","58ededd652ac63000154a4e6","fzzhp6","DAJ","58","M","{""name"":""Safari"",""safari"":true,""version"":""15.6"",""webkit"":true,""mac"":true,""osname"":""macOS"",""osversion"":""10.15.7"",""a"":true}","9:15:27","1","3","Test_2","74","j","1","3519","2560 x 1440","2560 x 1440","true","1","10","","","","",""
"null","<p style=""font-size: 80px;"">+ 10 points</p>","null","html-keyboard-response","2","466997","0.0-11.0-2.1","58ededd652ac63000154a4e6","fzzhp6","DAJ","58","M","{""name"":""Safari"",""safari"":true,""version"":""15.6"",""webkit"":true,""mac"":true,""osname"":""macOS"",""osversion"":""10.15.7"",""a"":true}","9:15:27","1","3","Test_2","74","j","1","932","2560 x 1440","2560 x 1440","true","1","10","","","","",""
"null","<p style=""font-size: 80px;"">+ 10 points</p>","null","html-keyboard-response","3","469897","0.0-11.0-2.2","58ededd652ac63000154a4e6","fzzhp6","DAJ","58","M","{""name"":""Safari"",""safari"":true,""version"":""15.6"",""webkit"":true,""mac"":true,""osname"":""macOS"",""osversion"":""10.15.7"",""a"":true}","9:15:27","1","3","Test_1","70","f","1","897.0000000000582","2560 x 1440","2560 x 1440","true","1","10","","","","",""
"null","<p style=""font-size: 80px;"">+ 10 points</p>","null","html-keyboard-response","4","473149","0.0-11.0-2.3","58ededd652ac63000154a4e6","fzzhp6","DAJ","58","M","{""name"":""Safari"",""safari"":true,""version"":""15.6"",""webkit"":true,""mac"":true,""osname"":""macOS"",""osversion"":""10.15.7"",""a"":true}","9:15:27","1","3","Test_4","74","j","1","1248","2560 x 1440","2560 x 1440","true","1","10","","","","",""
"null","<p style=""font-size: 80px;"">+ 0 points</p>","null","html-keyboard-response","5","477704","0.0-11.0-2.4","58ededd652ac63000154a4e6","fzzhp6","DAJ","58","M","{""name"":""Safari"",""safari"":true,""version"":""15.6"",""webkit"":true,""mac"":true,""osname"":""macOS"",""osversion"":""10.15.7"",""a"":true}","9:15:27","1","3","Test_4","70","j","0","2553","2560 x 1440","2560 x 1440","true","1","0","","","","",""
"null","<p style=""font-size: 80px;"">+ 10 points</p>","null","html-keyboard-response","6","480778","0.0-11.0-2.5","58ededd652ac63000154a4e6","fzzhp6","DAJ","58","M","{""name"":""Safari"",""safari"":true,""version"":""15.6"",""webkit"":true,""mac"":true,""osname"":""macOS"",""osversion"":""10.15.7"",""a"":true}","9:15:27","1","3","Test_1","70","f","1","1070","2560 x 1440","2560 x 1440","true","1","10","","","","",""
"null","<p style=""font-size: 80px;"">+ 10 points</p>","null","html-keyboard-response","7","484252","0.0-11.0-2.6","58ededd652ac63000154a4e6","fzzhp6","DAJ","58","M","{""name"":""Safari"",""safari"":true,""version"":""15.6"",""webkit"":true,""mac"":true,""osname"":""macOS"",""osversion"":""10.15.7"",""a"":true}","9:15:27","1","3","Test_3","70","f","1","1472","2560 x 1440","2560 x 1440","true","1","10","","","","",""
"null","<p style=""font-size: 80px;"">+ 10 points</p>","null","html-keyboard-response","8","487247","0.0-11.0-2.7","58ededd652ac63000154a4e6","fzzhp6","DAJ","58","M","{""name"":""Safari"",""safari"":true,""version"":""15.6"",""webkit"":true,""mac"":true,""osname"":""macOS"",""osversion"":""10.15.7"",""a"":true}","9:15:27","1","3","Test_3","70","f","1","991","2560 x 1440","2560 x 1440","true","1","10","","","","",""
"null","<p style=""font-size: 80px;"">+ 10 points</p>","null","html-keyboard-response","9","490114","0.0-11.0-2.8","58ededd652ac63000154a4e6","fzzhp6","DAJ","58","M","{""name"":""Safari"",""safari"":true,""version"":""15.6"",""webkit"":true,""mac"":true,""osname"":""macOS"",""osversion"":""10.15.7"",""a"":true}","9:15:27","1","3","Test_3","70","f","1","862","2560 x 1440","2560 x 1440","true","1","10","","","","",""
"null","<p style=""font-size: 80px;"">+ 10 points</p>","null","html-keyboard-response","10","493185","0.0-11.0-2.9","58ededd652ac63000154a4e6","fzzhp6","DAJ","58","M","{""name"":""Safari"",""safari"":true,""version"":""15.6"",""webkit"":true,""mac"":true,""osname"":""macOS"",""osversion"":""10.15.7"",""a"":true}","9:15:27","1","3","Test_2","74","j","1","1067.9999999999418","2560 x 1440","2560 x 1440","true","1","10","","","","",""
"null","<p style=""font-size: 80px;"">+ 10 points</p>","null","html-keyboard-response","11","496494","0.0-11.0-2.10","58ededd652ac63000154a4e6","fzzhp6","DAJ","58","M","{""name"":""Safari"",""safari"":true,""version"":""15.6"",""webkit"":true,""mac"":true,""osname"":""macOS"",""osversion"":""10.15.7"",""a"":true}","9:15:27","1","3","Test_4","74","j","1","1306","2560 x 1440","2560 x 1440","true","1","10","","","","",""
"null","<p style=""font-size: 80px;"">+ 10 points</p>","null","html-keyboard-response","12","500093","0.0-11.0-2.11","58ededd652ac63000154a4e6","fzzhp6","DAJ","58","M","{""name"":""Safari"",""safari"":true,""version"":""15.6"",""webkit"":true,""mac"":true,""osname"":""macOS"",""osversion"":""10.15.7"",""a"":true}","9:15:27","1","3","Test_1","70","f","1","1594.9999999999418","2560 x 1440","2560 x 1440","true","1","10","","","","",""
"null","<p style=""font-size: 80px;"">+ 10 points</p>","null","html-keyboard-response","13","503055","0.0-11.0-2.12","58ededd652ac63000154a4e6","fzzhp6","DAJ","58","M","{""name"":""Safari"",""safari"":true,""version"":""15.6"",""webkit"":true,""mac"":true,""osname"":""macOS"",""osversion"":""10.15.7"",""a"":true}","9:15:27","1","3","Test_1","70","f","1","955.9999999999418","2560 x 1440","2560 x 1440","true","1","10","","","","",""
"null","<p style=""font-size: 80px;"">+ 10 points</p>","null","html-keyboard-response","14","505910","0.0-11.0-2.13","58ededd652ac63000154a4e6","fzzhp6","DAJ","58","M","{""name"":""Safari"",""safari"":true,""version"":""15.6"",""webkit"":true,""mac"":true,""osname"":""macOS"",""osversion"":""10.15.7"",""a"":true}","9:15:27","1","3","Test_1","70","f","1","851","2560 x 1440","2560 x 1440","true","1","10","","","","",""
"null","<p style=""font-size: 80px;"">+ 10 points</p>","null","html-keyboard-response","15","508905","0.0-11.0-2.14","58ededd652ac63000154a4e6","fzzhp6","DAJ","58","M","{""name"":""Safari"",""safari"":true,""version"":""15.6"",""webkit"":true,""mac"":true,""osname"":""macOS"",""osversion"":""10.15.7"",""a"":true}","9:15:27","1","3","Test_3","70","f","1","990","2560 x 1440","2560 x 1440","true","1","10","","","","",""
"null","<p style=""font-size: 80px;"">+ 0 points</p>","null","html-keyboard-response","16","511984","0.0-11.0-2.15","58ededd652ac63000154a4e6","fzzhp6","DAJ","58","M","{""name"":""Safari"",""safari"":true,""version"":""15.6"",""webkit"":true,""mac"":true,""osname"":""macOS"",""osversion"":""10.15.7"",""a"":true}","9:15:27","1","3","Test_4","70","j","0","1076","2560 x 1440","2560 x 1440","true","1","0","","","","",""
"null","<p style=""font-size: 80px;"">+ 10 points</p>","null","html-keyboard-response","17","514842","0.0-11.0-2.16","58ededd652ac63000154a4e6","fzzhp6","DAJ","58","M","{""name"":""Safari"",""safari"":true,""version"":""15.6"",""webkit"":true,""mac"":true,""osname"":""macOS"",""osversion"":""10.15.7"",""a"":true}","9:15:27","1","3","Test_4","74","j","1","854.0000000000582","2560 x 1440","2560 x 1440","true","1","10","","","","",""
"null","<p style=""font-size: 80px;"">+ 10 points</p>","null","html-keyboard-response","18","517925","0.0-11.0-2.17","58ededd652ac63000154a4e6","fzzhp6","DAJ","58","M","{""name"":""Safari"",""safari"":true,""version"":""15.6"",""webkit"":true,""mac"":true,""osname"":""macOS"",""osversion"":""10.15.7"",""a"":true}","9:15:27","1","3","Test_2","74","j","1","1080.0000000000582","2560 x 1440","2560 x 1440","true","1","10","","","","",""
"null","<p style=""font-size: 80px;"">+ 10 points</p>","null","html-keyboard-response","19","520781","0.0-11.0-2.18","58ededd652ac63000154a4e6","fzzhp6","DAJ","58","M","{""name"":""Safari"",""safari"":true,""version"":""15.6"",""webkit"":true,""mac"":true,""osname"":""macOS"",""osversion"":""10.15.7"",""a"":true}","9:15:27","1","3","Test_2","74","j","1","853","2560 x 1440","2560 x 1440","true","1","10","","","","",""
"null","<p style=""font-size: 80px;"">+ 0 points</p>","null","html-keyboard-response","20","525048","0.0-11.0-2.19","58ededd652ac63000154a4e6","fzzhp6","DAJ","58","M","{""name"":""Safari"",""safari"":true,""version"":""15.6"",""webkit"":true,""mac"":true,""osname"":""macOS"",""osversion"":""10.15.7"",""a"":true}","9:15:27","1","4","Test_4","74","f","0","2261","2560 x 1440","2560 x 1440","true","1","0","","","","",""
"null","<p style=""font-size: 80px;"">+ 10 points</p>","null","html-keyboard-response","21","528150","0.0-11.0-2.20","58ededd652ac63000154a4e6","fzzhp6","DAJ","58","M","{""name"":""Safari"",""safari"":true,""version"":""15.6"",""webkit"":true,""mac"":true,""osname"":""macOS"",""osversion"":""10.15.7"",""a"":true}","9:15:27","1","4","Test_4","70","f","1","1099","2560 x 1440","2560 x 1440","true","1","10","","","","",""
"null","<p style=""font-size: 80px;"">+ 10 points</p>","null","html-keyboard-response","22","531336","0.0-11.0-2.21","58ededd652ac63000154a4e6","fzzhp6","DAJ","58","M","{""name"":""Safari"",""safari"":true,""version"":""15.6"",""webkit"":true,""mac"":true,""osname"":""macOS"",""osversion"":""10.15.7"",""a"":true}","9:15:27","1","4","Test_2","70","f","1","1182.0000000001164","2560 x 1440","2560 x 1440","true","1","10","","","","",""
"null","<p style=""font-size: 80px;"">+ 10 points</p>","null","html-keyboard-response","23","534980","0.0-11.0-2.22","58ededd652ac63000154a4e6","fzzhp6","DAJ","58","M","{""name"":""Safari"",""safari"":true,""version"":""15.6"",""webkit"":true,""mac"":true,""osname"":""macOS"",""osversion"":""10.15.7"",""a"":true}","9:15:27","1","4","Test_3","74","j","1","1639","2560 x 1440","2560 x 1440","true","1","10","","","","",""
"null","<p style=""font-size: 80px;"">+ 10 points</p>","null","html-keyboard-response","24","539380","0.0-11.0-2.23","58ededd652ac63000154a4e6","fzzhp6","DAJ","58","M","{""name"":""Safari"",""safari"":true,""version"":""15.6"",""webkit"":true,""mac"":true,""osname"":""macOS"",""osversion"":""10.15.7"",""a"":true}","9:15:27","1","4","Test_1","74","j","1","2395.9999999998836","2560 x 1440","2560 x 1440","true","1","10","","","","",""
"null","<p style=""font-size: 80px;"">+ 10 points</p>","null","html-keyboard-response","25","542737","0.0-11.0-2.24","58ededd652ac63000154a4e6","fzzhp6","DAJ","58","M","{""name"":""Safari"",""safari"":true,""version"":""15.6"",""webkit"":true,""mac"":true,""osname"":""macOS"",""osversion"":""10.15.7"",""a"":true}","9:15:27","1","4","Test_1","74","j","1","1353.9999999998836","2560 x 1440","2560 x 1440","true","1","10","","","","",""
"null","<p style=""font-size: 80px;"">+ 10 points</p>","null","html-keyboard-response","26","546614","0.0-11.0-2.25","58ededd652ac63000154a4e6","fzzhp6","DAJ","58","M","{""name"":""Safari"",""safari"":true,""version"":""15.6"",""webkit"":true,""mac"":true,""osname"":""macOS"",""osversion"":""10.15.7"",""a"":true}","9:15:27","1","4","Test_3","74","j","1","1873","2560 x 1440","2560 x 1440","true","1","10","","","","",""
"null","<p style=""font-size: 80px;"">+ 10 points</p>","null","html-keyboard-response","27","549537","0.0-11.0-2.26","58ededd652ac63000154a4e6","fzzhp6","DAJ","58","M","{""name"":""Safari"",""safari"":true,""version"":""15.6"",""webkit"":true,""mac"":true,""osname"":""macOS"",""osversion"":""10.15.7"",""a"":true}","9:15:27","1","4","Test_3","74","j","1","920.0000000001164","2560 x 1440","2560 x 1440","true","1","10","","","","",""
"null","<p style=""font-size: 80px;"">+ 10 points</p>","null","html-keyboard-response","28","553522","0.0-11.0-2.27","58ededd652ac63000154a4e6","fzzhp6","DAJ","58","M","{""name"":""Safari"",""safari"":true,""version"":""15.6"",""webkit"":true,""mac"":true,""osname"":""macOS"",""osversion"":""10.15.7"",""a"":true}","9:15:27","1","4","Test_1","74","j","1","1979","2560 x 1440","2560 x 1440","true","1","10","","","","",""
"null","<p style=""font-size: 80px;"">+ 10 points</p>","null","html-keyboard-response","29","556726","0.0-11.0-2.28","58ededd652ac63000154a4e6","fzzhp6","DAJ","58","M","{""name"":""Safari"",""safari"":true,""version"":""15.6"",""webkit"":true,""mac"":true,""osname"":""macOS"",""osversion"":""10.15.7"",""a"":true}","9:15:27","1","4","Test_3","74","j","1","1200","2560 x 1440","2560 x 1440","true","1","10","","","","",""
"null","<p style=""font-size: 80px;"">+ 10 points</p>","null","html-keyboard-response","30","560113","0.0-11.0-2.29","58ededd652ac63000154a4e6","fzzhp6","DAJ","58","M","{""name"":""Safari"",""safari"":true,""version"":""15.6"",""webkit"":true,""mac"":true,""osname"":""macOS"",""osversion"":""10.15.7"",""a"":true}","9:15:27","1","4","Test_4","70","f","1","1382","2560 x 1440","2560 x 1440","true","1","10","","","","",""
"null","<p style=""font-size: 80px;"">+ 10 points</p>","null","html-keyboard-response","31","563095","0.0-11.0-2.30","58ededd652ac63000154a4e6","fzzhp6","DAJ","58","M","{""name"":""Safari"",""safari"":true,""version"":""15.6"",""webkit"":true,""mac"":true,""osname"":""macOS"",""osversion"":""10.15.7"",""a"":true}","9:15:27","1","4","Test_2","70","f","1","978","2560 x 1440","2560 x 1440","true","1","10","","","","",""
"null","<p style=""font-size: 80px;"">+ 10 points</p>","null","html-keyboard-response","32","566345","0.0-11.0-2.31","58ededd652ac63000154a4e6","fzzhp6","DAJ","58","M","{""name"":""Safari"",""safari"":true,""version"":""15.6"",""webkit"":true,""mac"":true,""osname"":""macOS"",""osversion"":""10.15.7"",""a"":true}","9:15:27","1","4","Test_3","74","j","1","1246","2560 x 1440","2560 x 1440","true","1","10","","","","",""
"null","<p style=""font-size: 80px;"">+ 10 points</p>","null","html-keyboard-response","33","570428","0.0-11.0-2.32","58ededd652ac63000154a4e6","fzzhp6","DAJ","58","M","{""name"":""Safari"",""safari"":true,""version"":""15.6"",""webkit"":true,""mac"":true,""osname"":""macOS"",""osversion"":""10.15.7"",""a"":true}","9:15:27","1","4","Test_2","70","f","1","2080","2560 x 1440","2560 x 1440","true","1","10","","","","",""
"null","<p style=""font-size: 80px;"">+ 10 points</p>","null","html-keyboard-response","34","574390","0.0-11.0-2.33","58ededd652ac63000154a4e6","fzzhp6","DAJ","58","M","{""name"":""Safari"",""safari"":true,""version"":""15.6"",""webkit"":true,""mac"":true,""osname"":""macOS"",""osversion"":""10.15.7"",""a"":true}","9:15:27","1","4","Test_4","70","f","1","1959","2560 x 1440","2560 x 1440","true","1","10","","","","",""
"null","<p style=""font-size: 80px;"">+ 10 points</p>","null","html-keyboard-response","35","577449","0.0-11.0-2.34","58ededd652ac63000154a4e6","fzzhp6","DAJ","58","M","{""name"":""Safari"",""safari"":true,""version"":""15.6"",""webkit"":true,""mac"":true,""osname"":""macOS"",""osversion"":""10.15.7"",""a"":true}","9:15:27","1","4","Test_4","70","f","1","1054","2560 x 1440","2560 x 1440","true","1","10","","","","",""
"null","<p style=""font-size: 80px;"">+ 0 points</p>","null","html-keyboard-response","36","581904","0.0-11.0-2.35","58ededd652ac63000154a4e6","fzzhp6","DAJ","58","M","{""name"":""Safari"",""safari"":true,""version"":""15.6"",""webkit"":true,""mac"":true,""osname"":""macOS"",""osversion"":""10.15.7"",""a"":true}","9:15:27","1","4","Test_2","74","f","0","2449.9999999998836","2560 x 1440","2560 x 1440","true","1","0","","","","",""
"null","<p style=""font-size: 80px;"">+ 10 points</p>","null","html-keyboard-response","37","585036","0.0-11.0-2.36","58ededd652ac63000154a4e6","fzzhp6","DAJ","58","M","{""name"":""Safari"",""safari"":true,""version"":""15.6"",""webkit"":true,""mac"":true,""osname"":""macOS"",""osversion"":""10.15.7"",""a"":true}","9:15:27","1","4","Test_2","70","f","1","1129","2560 x 1440","2560 x 1440","true","1","10","","","","",""
"null","<p style=""font-size: 80px;"">+ 10 points</p>","null","html-keyboard-response","38","588711","0.0-11.0-2.37","58ededd652ac63000154a4e6","fzzhp6","DAJ","58","M","{""name"":""Safari"",""safari"":true,""version"":""15.6"",""webkit"":true,""mac"":true,""osname"":""macOS"",""osversion"":""10.15.7"",""a"":true}","9:15:27","1","4","Test_1","74","j","1","1670","2560 x 1440","2560 x 1440","true","1","10","","","","",""
"null","<p style=""font-size: 80px;"">+ 10 points</p>","null","html-keyboard-response","39","592118","0.0-11.0-2.38","58ededd652ac63000154a4e6","fzzhp6","DAJ","58","M","{""name"":""Safari"",""safari"":true,""version"":""15.6"",""webkit"":true,""mac"":true,""osname"":""macOS"",""osversion"":""10.15.7"",""a"":true}","9:15:27","1","4","Test_4","70","f","1","1403","2560 x 1440","2560 x 1440","true","1","10","","","","",""
"null","<p style=""font-size: 80px;"">+ 10 points</p>","null","html-keyboard-response","40","596911","0.0-11.0-2.39","58ededd652ac63000154a4e6","fzzhp6","DAJ","58","M","{""name"":""Safari"",""safari"":true,""version"":""15.6"",""webkit"":true,""mac"":true,""osname"":""macOS"",""osversion"":""10.15.7"",""a"":true}","9:15:27","1","4","Test_3","74","j","1","2790","2560 x 1440","2560 x 1440","true","1","10","","","","",""
"null","<p style=""font-size: 80px;"">+ 10 points</p>","null","html-keyboard-response","41","600793","0.0-11.0-2.40","58ededd652ac63000154a4e6","fzzhp6","DAJ","58","M","{""name"":""Safari"",""safari"":true,""version"":""15.6"",""webkit"":true,""mac"":true,""osname"":""macOS"",""osversion"":""10.15.7"",""a"":true}","9:15:27","1","4","Test_2","70","f","1","1879","2560 x 1440","2560 x 1440","true","1","10","","","","",""
"null","<p style=""font-size: 80px;"">+ 10 points</p>","null","html-keyboard-response","42","604112","0.0-11.0-2.41","58ededd652ac63000154a4e6","fzzhp6","DAJ","58","M","{""name"":""Safari"",""safari"":true,""version"":""15.6"",""webkit"":true,""mac"":true,""osname"":""macOS"",""osversion"":""10.15.7"",""a"":true}","9:15:27","1","4","Test_1","74","j","1","1315.0000000001164","2560 x 1440","2560 x 1440","true","1","10","","","","",""
"null","<p style=""font-size: 80px;"">+ 10 points</p>","null","html-keyboard-response","43","607207","0.0-11.0-2.42","58ededd652ac63000154a4e6","fzzhp6","DAJ","58","M","{""name"":""Safari"",""safari"":true,""version"":""15.6"",""webkit"":true,""mac"":true,""osname"":""macOS"",""osversion"":""10.15.7"",""a"":true}","9:15:27","1","4","Test_1","74","j","1","1092","2560 x 1440","2560 x 1440","true","1","10","","","","",""
"null","<p style=""font-size: 80px;"">+ 0 points</p>","null","html-keyboard-response","44","610357","0.0-11.0-2.43","58ededd652ac63000154a4e6","fzzhp6","DAJ","58","M","{""name"":""Safari"",""safari"":true,""version"":""15.6"",""webkit"":true,""mac"":true,""osname"":""macOS"",""osversion"":""10.15.7"",""a"":true}","9:15:27","1","3","Test_2","70","j","0","1147","2560 x 1440","2560 x 1440","true","1","0","","","","",""
"null","<p style=""font-size: 80px;"">+ 10 points</p>","null","html-keyboard-response","45","613811","0.0-11.0-2.44","58ededd652ac63000154a4e6","fzzhp6","DAJ","58","M","{""name"":""Safari"",""safari"":true,""version"":""15.6"",""webkit"":true,""mac"":true,""osname"":""macOS"",""osversion"":""10.15.7"",""a"":true}","9:15:27","1","3","Test_3","70","f","1","1451","2560 x 1440","2560 x 1440","true","1","10","","","","",""
"null","<p style=""font-size: 80px;"">+ 10 points</p>","null","html-keyboard-response","46","617938","0.0-11.0-2.45","58ededd652ac63000154a4e6","fzzhp6","DAJ","58","M","{""name"":""Safari"",""safari"":true,""version"":""15.6"",""webkit"":true,""mac"":true,""osname"":""macOS"",""osversion"":""10.15.7"",""a"":true}","9:15:27","1","3","Test_2","74","j","1","2124","2560 x 1440","2560 x 1440","true","1","10","","","","",""
"null","<p style=""font-size: 80px;"">+ 10 points</p>","null","html-keyboard-response","47","620986","0.0-11.0-2.46","58ededd652ac63000154a4e6","fzzhp6","DAJ","58","M","{""name"":""Safari"",""safari"":true,""version"":""15.6"",""webkit"":true,""mac"":true,""osname"":""macOS"",""osversion"":""10.15.7"",""a"":true}","9:15:27","1","3","Test_1","70","f","1","1045.0000000001164","2560 x 1440","2560 x 1440","true","1","10","","","","",""
"null","<p style=""font-size: 80px;"">+ 10 points</p>","null","html-keyboard-response","48","623967","0.0-11.0-2.47","58ededd652ac63000154a4e6","fzzhp6","DAJ","58","M","{""name"":""Safari"",""safari"":true,""version"":""15.6"",""webkit"":true,""mac"":true,""osname"":""macOS"",""osversion"":""10.15.7"",""a"":true}","9:15:27","1","3","Test_4","74","j","1","978","2560 x 1440","2560 x 1440","true","1","10","","","","",""
"null","<p style=""font-size: 80px;"">+ 10 points</p>","null","html-keyboard-response","49","627873","0.0-11.0-2.48","58ededd652ac63000154a4e6","fzzhp6","DAJ","58","M","{""name"":""Safari"",""safari"":true,""version"":""15.6"",""webkit"":true,""mac"":true,""osname"":""macOS"",""osversion"":""10.15.7"",""a"":true}","9:15:27","1","3","Test_2","74","j","1","1903","2560 x 1440","2560 x 1440","true","1","10","","","","",""
"null","<p style=""font-size: 80px;"">+ 10 points</p>","null","html-keyboard-response","50","631257","0.0-11.0-2.49","58ededd652ac63000154a4e6","fzzhp6","DAJ","58","M","{""name"":""Safari"",""safari"":true,""version"":""15.6"",""webkit"":true,""mac"":true,""osname"":""macOS"",""osversion"":""10.15.7"",""a"":true}","9:15:27","1","3","Test_3","70","f","1","1380","2560 x 1440","2560 x 1440","true","1","10","","","","",""
"null","<p style=""font-size: 80px;"">+ 10 points</p>","null","html-keyboard-response","51","634612","0.0-11.0-2.50","58ededd652ac63000154a4e6","fzzhp6","DAJ","58","M","{""name"":""Safari"",""safari"":true,""version"":""15.6"",""webkit"":true,""mac"":true,""osname"":""macOS"",""osversion"":""10.15.7"",""a"":true}","9:15:27","1","3","Test_3","70","f","1","1351","2560 x 1440","2560 x 1440","true","1","10","","","","",""
"null","<p style=""font-size: 80px;"">+ 0 points</p>","null","html-keyboard-response","52","638008","0.0-11.0-2.51","58ededd652ac63000154a4e6","fzzhp6","DAJ","58","M","{""name"":""Safari"",""safari"":true,""version"":""15.6"",""webkit"":true,""mac"":true,""osname"":""macOS"",""osversion"":""10.15.7"",""a"":true}","9:15:27","1","3","Test_1","74","f","0","1392","2560 x 1440","2560 x 1440","true","1","0","","","","",""
"null","<p style=""font-size: 80px;"">+ 10 points</p>","null","html-keyboard-response","53","641485","0.0-11.0-2.52","58ededd652ac63000154a4e6","fzzhp6","DAJ","58","M","{""name"":""Safari"",""safari"":true,""version"":""15.6"",""webkit"":true,""mac"":true,""osname"":""macOS"",""osversion"":""10.15.7"",""a"":true}","9:15:27","1","3","Test_3","70","f","1","1473.0000000001164","2560 x 1440","2560 x 1440","true","1","10","","","","",""
"null","<p style=""font-size: 80px;"">+ 10 points</p>","null","html-keyboard-response","54","644602","0.0-11.0-2.53","58ededd652ac63000154a4e6","fzzhp6","DAJ","58","M","{""name"":""Safari"",""safari"":true,""version"":""15.6"",""webkit"":true,""mac"":true,""osname"":""macOS"",""osversion"":""10.15.7"",""a"":true}","9:15:27","1","3","Test_3","70","f","1","1114","2560 x 1440","2560 x 1440","true","1","10","","","","",""
"null","<p style=""font-size: 80px;"">+ 10 points</p>","null","html-keyboard-response","55","647513","0.0-11.0-2.54","58ededd652ac63000154a4e6","fzzhp6","DAJ","58","M","{""name"":""Safari"",""safari"":true,""version"":""15.6"",""webkit"":true,""mac"":true,""osname"":""macOS"",""osversion"":""10.15.7"",""a"":true}","9:15:27","1","3","Test_4","74","j","1","908","2560 x 1440","2560 x 1440","true","1","10","","","","",""
"null","<p style=""font-size: 80px;"">+ 10 points</p>","null","html-keyboard-response","56","651768","0.0-11.0-2.55","58ededd652ac63000154a4e6","fzzhp6","DAJ","58","M","{""name"":""Safari"",""safari"":true,""version"":""15.6"",""webkit"":true,""mac"":true,""osname"":""macOS"",""osversion"":""10.15.7"",""a"":true}","9:15:27","1","3","Test_2","74","j","1","2251","2560 x 1440","2560 x 1440","true","1","10","","","","",""
"null","<p style=""font-size: 80px;"">+ 10 points</p>","null","html-keyboard-response","57","655187","0.0-11.0-2.56","58ededd652ac63000154a4e6","fzzhp6","DAJ","58","M","{""name"":""Safari"",""safari"":true,""version"":""15.6"",""webkit"":true,""mac"":true,""osname"":""macOS"",""osversion"":""10.15.7"",""a"":true}","9:15:27","1","3","Test_4","74","j","1","1413","2560 x 1440","2560 x 1440","true","1","10","","","","",""
"null","<p style=""font-size: 80px;"">+ 10 points</p>","null","html-keyboard-response","58","658652","0.0-11.0-2.57","58ededd652ac63000154a4e6","fzzhp6","DAJ","58","M","{""name"":""Safari"",""safari"":true,""version"":""15.6"",""webkit"":true,""mac"":true,""osname"":""macOS"",""osversion"":""10.15.7"",""a"":true}","9:15:27","1","3","Test_1","70","f","1","1461","2560 x 1440","2560 x 1440","true","1","10","","","","",""
"null","<p style=""font-size: 80px;"">+ 10 points</p>","null","html-keyboard-response","59","661691","0.0-11.0-2.58","58ededd652ac63000154a4e6","fzzhp6","DAJ","58","M","{""name"":""Safari"",""safari"":true,""version"":""15.6"",""webkit"":true,""mac"":true,""osname"":""macOS"",""osversion"":""10.15.7"",""a"":true}","9:15:27","1","3","Test_2","74","j","1","1033","2560 x 1440","2560 x 1440","true","1","10","","","","",""
"null","<p style=""font-size: 80px;"">+ 10 points</p>","null","html-keyboard-response","60","666450","0.0-11.0-2.59","58ededd652ac63000154a4e6","fzzhp6","DAJ","58","M","{""name"":""Safari"",""safari"":true,""version"":""15.6"",""webkit"":true,""mac"":true,""osname"":""macOS"",""osversion"":""10.15.7"",""a"":true}","9:15:27","1","3","Test_4","74","j","1","2755","2560 x 1440","2560 x 1440","true","1","10","","","","",""
"null","<p style=""font-size: 80px;"">+ 0 points</p>","null","html-keyboard-response","61","670069","0.0-11.0-2.60","58ededd652ac63000154a4e6","fzzhp6","DAJ","58","M","{""name"":""Safari"",""safari"":true,""version"":""15.6"",""webkit"":true,""mac"":true,""osname"":""macOS"",""osversion"":""10.15.7"",""a"":true}","9:15:27","1","4","Test_1","70","j","0","1615","2560 x 1440","2560 x 1440","true","1","0","","","","",""
"null","<p style=""font-size: 80px;"">+ 10 points</p>","null","html-keyboard-response","62","673659","0.0-11.0-2.61","58ededd652ac63000154a4e6","fzzhp6","DAJ","58","M","{""name"":""Safari"",""safari"":true,""version"":""15.6"",""webkit"":true,""mac"":true,""osname"":""macOS"",""osversion"":""10.15.7"",""a"":true}","9:15:27","1","4","Test_3","74","j","1","1587","2560 x 1440","2560 x 1440","true","1","10","","","","",""
"null","<p style=""font-size: 80px;"">+ 10 points</p>","null","html-keyboard-response","63","677149","0.0-11.0-2.62","58ededd652ac63000154a4e6","fzzhp6","DAJ","58","M","{""name"":""Safari"",""safari"":true,""version"":""15.6"",""webkit"":true,""mac"":true,""osname"":""macOS"",""osversion"":""10.15.7"",""a"":true}","9:15:27","1","4","Test_1","74","j","1","1486","2560 x 1440","2560 x 1440","true","1","10","","","","",""
"null","<p style=""font-size: 80px;"">+ 10 points</p>","null","html-keyboard-response","64","680533","0.0-11.0-2.63","58ededd652ac63000154a4e6","fzzhp6","DAJ","58","M","{""name"":""Safari"",""safari"":true,""version"":""15.6"",""webkit"":true,""mac"":true,""osname"":""macOS"",""osversion"":""10.15.7"",""a"":true}","9:15:27","1","4","Test_2","70","f","1","1380","2560 x 1440","2560 x 1440","true","1","10","","","","",""
"null","<p style=""font-size: 80px;"">+ 10 points</p>","null","html-keyboard-response","65","683664","0.0-11.0-2.64","58ededd652ac63000154a4e6","fzzhp6","DAJ","58","M","{""name"":""Safari"",""safari"":true,""version"":""15.6"",""webkit"":true,""mac"":true,""osname"":""macOS"",""osversion"":""10.15.7"",""a"":true}","9:15:27","1","4","Test_2","70","f","1","1125","2560 x 1440","2560 x 1440","true","1","10","","","","",""
"null","<p style=""font-size: 80px;"">+ 0 points</p>","null","html-keyboard-response","66","687171","0.0-11.0-2.65","58ededd652ac63000154a4e6","fzzhp6","DAJ","58","M","{""name"":""Safari"",""safari"":true,""version"":""15.6"",""webkit"":true,""mac"":true,""osname"":""macOS"",""osversion"":""10.15.7"",""a"":true}","9:15:27","1","4","Test_3","70","j","0","1503.0000000001164","2560 x 1440","2560 x 1440","true","1","0","","","","",""
"null","<p style=""font-size: 80px;"">+ 10 points</p>","null","html-keyboard-response","67","690446","0.0-11.0-2.66","58ededd652ac63000154a4e6","fzzhp6","DAJ","58","M","{""name"":""Safari"",""safari"":true,""version"":""15.6"",""webkit"":true,""mac"":true,""osname"":""macOS"",""osversion"":""10.15.7"",""a"":true}","9:15:27","1","4","Test_4","70","f","1","1270.9999999998836","2560 x 1440","2560 x 1440","true","1","10","","","","",""
"null","<p style=""font-size: 80px;"">+ 10 points</p>","null","html-keyboard-response","68","693516","0.0-11.0-2.67","58ededd652ac63000154a4e6","fzzhp6","DAJ","58","M","{""name"":""Safari"",""safari"":true,""version"":""15.6"",""webkit"":true,""mac"":true,""osname"":""macOS"",""osversion"":""10.15.7"",""a"":true}","9:15:27","1","4","Test_4","70","f","1","1068","2560 x 1440","2560 x 1440","true","1","10","","","","",""
"null","<p style=""font-size: 80px;"">+ 10 points</p>","null","html-keyboard-response","69","696375","0.0-11.0-2.68","58ededd652ac63000154a4e6","fzzhp6","DAJ","58","M","{""name"":""Safari"",""safari"":true,""version"":""15.6"",""webkit"":true,""mac"":true,""osname"":""macOS"",""osversion"":""10.15.7"",""a"":true}","9:15:27","1","4","Test_4","70","f","1","856","2560 x 1440","2560 x 1440","true","1","10","","","","",""
"null","<p style=""font-size: 80px;"">+ 10 points</p>","null","html-keyboard-response","70","699388","0.0-11.0-2.69","58ededd652ac63000154a4e6","fzzhp6","DAJ","58","M","{""name"":""Safari"",""safari"":true,""version"":""15.6"",""webkit"":true,""mac"":true,""osname"":""macOS"",""osversion"":""10.15.7"",""a"":true}","9:15:27","1","4","Test_4","70","f","1","1010","2560 x 1440","2560 x 1440","true","1","10","","","","",""
"null","<p style=""font-size: 80px;"">+ 10 points</p>","null","html-keyboard-response","71","702718","0.0-11.0-2.70","58ededd652ac63000154a4e6","fzzhp6","DAJ","58","M","{""name"":""Safari"",""safari"":true,""version"":""15.6"",""webkit"":true,""mac"":true,""osname"":""macOS"",""osversion"":""10.15.7"",""a"":true}","9:15:27","1","4","Test_1","74","j","1","1327","2560 x 1440","2560 x 1440","true","1","10","","","","",""
"null","<p style=""font-size: 80px;"">+ 10 points</p>","null","html-keyboard-response","72","706129","0.0-11.0-2.71","58ededd652ac63000154a4e6","fzzhp6","DAJ","58","M","{""name"":""Safari"",""safari"":true,""version"":""15.6"",""webkit"":true,""mac"":true,""osname"":""macOS"",""osversion"":""10.15.7"",""a"":true}","9:15:27","1","4","Test_2","70","f","1","1404.9999999998836","2560 x 1440","2560 x 1440","true","1","10","","","","",""
"null","<p style=""font-size: 80px;"">+ 10 points</p>","null","html-keyboard-response","73","709288","0.0-11.0-2.72","58ededd652ac63000154a4e6","fzzhp6","DAJ","58","M","{""name"":""Safari"",""safari"":true,""version"":""15.6"",""webkit"":true,""mac"":true,""osname"":""macOS"",""osversion"":""10.15.7"",""a"":true}","9:15:27","1","4","Test_3","74","j","1","1156","2560 x 1440","2560 x 1440","true","1","10","","","","",""
"null","<p style=""font-size: 80px;"">+ 10 points</p>","null","html-keyboard-response","74","712497","0.0-11.0-2.73","58ededd652ac63000154a4e6","fzzhp6","DAJ","58","M","{""name"":""Safari"",""safari"":true,""version"":""15.6"",""webkit"":true,""mac"":true,""osname"":""macOS"",""osversion"":""10.15.7"",""a"":true}","9:15:27","1","4","Test_1","74","j","1","1206.0000000001164","2560 x 1440","2560 x 1440","true","1","10","","","","",""
"null","<p style=""font-size: 80px;"">+ 10 points</p>","null","html-keyboard-response","75","715915","0.0-11.0-2.74","58ededd652ac63000154a4e6","fzzhp6","DAJ","58","M","{""name"":""Safari"",""safari"":true,""version"":""15.6"",""webkit"":true,""mac"":true,""osname"":""macOS"",""osversion"":""10.15.7"",""a"":true}","9:15:27","1","4","Test_3","74","j","1","1412.9999999998836","2560 x 1440","2560 x 1440","true","1","10","","","","",""
"null","<p style=""font-size: 80px;"">+ 0 points</p>","null","html-keyboard-response","76","721100","0.0-11.0-2.75","58ededd652ac63000154a4e6","fzzhp6","DAJ","58","M","{""name"":""Safari"",""safari"":true,""version"":""15.6"",""webkit"":true,""mac"":true,""osname"":""macOS"",""osversion"":""10.15.7"",""a"":true}","9:15:27","1","4","Test_1","70","j","0","3183","2560 x 1440","2560 x 1440","true","1","0","","","","",""
"null","<p style=""font-size: 80px;"">+ 10 points</p>","null","html-keyboard-response","77","725050","0.0-11.0-2.76","58ededd652ac63000154a4e6","fzzhp6","DAJ","58","M","{""name"":""Safari"",""safari"":true,""version"":""15.6"",""webkit"":true,""mac"":true,""osname"":""macOS"",""osversion"":""10.15.7"",""a"":true}","9:15:27","1","4","Test_2","70","f","1","1947","2560 x 1440","2560 x 1440","true","1","10","","","","",""
"null","<p style=""font-size: 80px;"">+ 10 points</p>","null","html-keyboard-response","78","728266","0.0-11.0-2.77","58ededd652ac63000154a4e6","fzzhp6","DAJ","58","M","{""name"":""Safari"",""safari"":true,""version"":""15.6"",""webkit"":true,""mac"":true,""osname"":""macOS"",""osversion"":""10.15.7"",""a"":true}","9:15:27","1","4","Test_3","74","j","1","1212","2560 x 1440","2560 x 1440","true","1","10","","","","",""
"null","<p style=""font-size: 80px;"">+ 10 points</p>","null","html-keyboard-response","79","731316","0.0-11.0-2.78","58ededd652ac63000154a4e6","fzzhp6","DAJ","58","M","{""name"":""Safari"",""safari"":true,""version"":""15.6"",""webkit"":true,""mac"":true,""osname"":""macOS"",""osversion"":""10.15.7"",""a"":true}","9:15:27","1","4","Test_4","70","f","1","1045.9999999998836","2560 x 1440","2560 x 1440","true","1","10","","","","",""
"null","<p style=""font-size: 80px;"">+ 10 points</p>","null","html-keyboard-response","80","734108","0.0-11.0-2.79","58ededd652ac63000154a4e6","fzzhp6","DAJ","58","M","{""name"":""Safari"",""safari"":true,""version"":""15.6"",""webkit"":true,""mac"":true,""osname"":""macOS"",""osversion"":""10.15.7"",""a"":true}","9:15:27","1","4","Test_4","70","f","1","787","2560 x 1440","2560 x 1440","true","1","10","","","","",""
"null","<p style=""font-size: 80px;"">+ 0 points</p>","null","html-keyboard-response","81","738088","0.0-11.0-2.80","58ededd652ac63000154a4e6","fzzhp6","DAJ","58","M","{""name"":""Safari"",""safari"":true,""version"":""15.6"",""webkit"":true,""mac"":true,""osname"":""macOS"",""osversion"":""10.15.7"",""a"":true}","9:15:27","1","4","Test_1","70","j","0","1976","2560 x 1440","2560 x 1440","true","1","0","","","","",""
"null","<p style=""font-size: 80px;"">+ 10 points</p>","null","html-keyboard-response","82","741409","0.0-11.0-2.81","58ededd652ac63000154a4e6","fzzhp6","DAJ","58","M","{""name"":""Safari"",""safari"":true,""version"":""15.6"",""webkit"":true,""mac"":true,""osname"":""macOS"",""osversion"":""10.15.7"",""a"":true}","9:15:27","1","4","Test_2","70","f","1","1318","2560 x 1440","2560 x 1440","true","1","10","","","","",""
"null","<p style=""font-size: 80px;"">+ 10 points</p>","null","html-keyboard-response","83","745133","0.0-11.0-2.82","58ededd652ac63000154a4e6","fzzhp6","DAJ","58","M","{""name"":""Safari"",""safari"":true,""version"":""15.6"",""webkit"":true,""mac"":true,""osname"":""macOS"",""osversion"":""10.15.7"",""a"":true}","9:15:27","1","4","Test_3","74","j","1","1719","2560 x 1440","2560 x 1440","true","1","10","","","","",""
"null","<p style=""font-size: 80px;"">+ 10 points</p>","null","html-keyboard-response","84","748078","0.0-11.0-2.83","58ededd652ac63000154a4e6","fzzhp6","DAJ","58","M","{""name"":""Safari"",""safari"":true,""version"":""15.6"",""webkit"":true,""mac"":true,""osname"":""macOS"",""osversion"":""10.15.7"",""a"":true}","9:15:27","1","4","Test_2","70","f","1","941","2560 x 1440","2560 x 1440","true","1","10","","","","",""
"null","<p style=""font-size: 80px;"">+ 0 points</p>","null","html-keyboard-response","85","751040","0.0-11.0-2.84","58ededd652ac63000154a4e6","fzzhp6","DAJ","58","M","{""name"":""Safari"",""safari"":true,""version"":""15.6"",""webkit"":true,""mac"":true,""osname"":""macOS"",""osversion"":""10.15.7"",""a"":true}","9:15:27","1","3","Test_1","74","f","0","959","2560 x 1440","2560 x 1440","true","1","0","","","","",""
"null","<p style=""font-size: 80px;"">+ 10 points</p>","null","html-keyboard-response","86","754232","0.0-11.0-2.85","58ededd652ac63000154a4e6","fzzhp6","DAJ","58","M","{""name"":""Safari"",""safari"":true,""version"":""15.6"",""webkit"":true,""mac"":true,""osname"":""macOS"",""osversion"":""10.15.7"",""a"":true}","9:15:27","1","3","Test_1","70","f","1","1188","2560 x 1440","2560 x 1440","true","1","10","","","","",""
"null","<p style=""font-size: 80px;"">+ 10 points</p>","null","html-keyboard-response","87","757227","0.0-11.0-2.86","58ededd652ac63000154a4e6","fzzhp6","DAJ","58","M","{""name"":""Safari"",""safari"":true,""version"":""15.6"",""webkit"":true,""mac"":true,""osname"":""macOS"",""osversion"":""10.15.7"",""a"":true}","9:15:27","1","3","Test_1","70","f","1","990","2560 x 1440","2560 x 1440","true","1","10","","","","",""
"null","<p style=""font-size: 80px;"">+ 10 points</p>","null","html-keyboard-response","88","760724","0.0-11.0-2.87","58ededd652ac63000154a4e6","fzzhp6","DAJ","58","M","{""name"":""Safari"",""safari"":true,""version"":""15.6"",""webkit"":true,""mac"":true,""osname"":""macOS"",""osversion"":""10.15.7"",""a"":true}","9:15:27","1","3","Test_3","70","f","1","1492.9999999998836","2560 x 1440","2560 x 1440","true","1","10","","","","",""
"null","<p style=""font-size: 80px;"">+ 10 points</p>","null","html-keyboard-response","89","763707","0.0-11.0-2.88","58ededd652ac63000154a4e6","fzzhp6","DAJ","58","M","{""name"":""Safari"",""safari"":true,""version"":""15.6"",""webkit"":true,""mac"":true,""osname"":""macOS"",""osversion"":""10.15.7"",""a"":true}","9:15:27","1","3","Test_3","70","f","1","979","2560 x 1440","2560 x 1440","true","1","10","","","","",""
"null","<p style=""font-size: 80px;"">+ 10 points</p>","null","html-keyboard-response","90","766530","0.0-11.0-2.89","58ededd652ac63000154a4e6","fzzhp6","DAJ","58","M","{""name"":""Safari"",""safari"":true,""version"":""15.6"",""webkit"":true,""mac"":true,""osname"":""macOS"",""osversion"":""10.15.7"",""a"":true}","9:15:27","1","3","Test_4","74","j","1","819","2560 x 1440","2560 x 1440","true","1","10","","","","",""
"null","<p style=""font-size: 80px;"">+ 10 points</p>","null","html-keyboard-response","91","770793","0.0-11.0-2.90","58ededd652ac63000154a4e6","fzzhp6","DAJ","58","M","{""name"":""Safari"",""safari"":true,""version"":""15.6"",""webkit"":true,""mac"":true,""osname"":""macOS"",""osversion"":""10.15.7"",""a"":true}","9:15:27","1","3","Test_3","70","f","1","2261","2560 x 1440","2560 x 1440","true","1","10","","","","",""
"null","<p style=""font-size: 80px;"">+ 10 points</p>","null","html-keyboard-response","92","773886","0.0-11.0-2.91","58ededd652ac63000154a4e6","fzzhp6","DAJ","58","M","{""name"":""Safari"",""safari"":true,""version"":""15.6"",""webkit"":true,""mac"":true,""osname"":""macOS"",""osversion"":""10.15.7"",""a"":true}","9:15:27","1","3","Test_2","74","j","1","1088.9999999998836","2560 x 1440","2560 x 1440","true","1","10","","","","",""
"null","<p style=""font-size: 80px;"">+ 10 points</p>","null","html-keyboard-response","93","777232","0.0-11.0-2.92","58ededd652ac63000154a4e6","fzzhp6","DAJ","58","M","{""name"":""Safari"",""safari"":true,""version"":""15.6"",""webkit"":true,""mac"":true,""osname"":""macOS"",""osversion"":""10.15.7"",""a"":true}","9:15:27","1","3","Test_4","74","j","1","1344","2560 x 1440","2560 x 1440","true","1","10","","","","",""
"null","<p style=""font-size: 80px;"">+ 10 points</p>","null","html-keyboard-response","94","780051","0.0-11.0-2.93","58ededd652ac63000154a4e6","fzzhp6","DAJ","58","M","{""name"":""Safari"",""safari"":true,""version"":""15.6"",""webkit"":true,""mac"":true,""osname"":""macOS"",""osversion"":""10.15.7"",""a"":true}","9:15:27","1","3","Test_4","74","j","1","815.0000000001164","2560 x 1440","2560 x 1440","true","1","10","","","","",""
"null","<p style=""font-size: 80px;"">+ 10 points</p>","null","html-keyboard-response","95","783721","0.0-11.0-2.94","58ededd652ac63000154a4e6","fzzhp6","DAJ","58","M","{""name"":""Safari"",""safari"":true,""version"":""15.6"",""webkit"":true,""mac"":true,""osname"":""macOS"",""osversion"":""10.15.7"",""a"":true}","9:15:27","1","3","Test_2","74","j","1","1665","2560 x 1440","2560 x 1440","true","1","10","","","","",""
"null","<p style=""font-size: 80px;"">+ 10 points</p>","null","html-keyboard-response","96","786891","0.0-11.0-2.95","58ededd652ac63000154a4e6","fzzhp6","DAJ","58","M","{""name"":""Safari"",""safari"":true,""version"":""15.6"",""webkit"":true,""mac"":true,""osname"":""macOS"",""osversion"":""10.15.7"",""a"":true}","9:15:27","1","3","Test_4","74","j","1","1166.9999999998836","2560 x 1440","2560 x 1440","true","1","10","","","","",""
"null","<p style=""font-size: 80px;"">+ 10 points</p>","null","html-keyboard-response","97","790122","0.0-11.0-2.96","58ededd652ac63000154a4e6","fzzhp6","DAJ","58","M","{""name"":""Safari"",""safari"":true,""version"":""15.6"",""webkit"":true,""mac"":true,""osname"":""macOS"",""osversion"":""10.15.7"",""a"":true}","9:15:27","1","3","Test_2","74","j","1","1228","2560 x 1440","2560 x 1440","true","1","10","","","","",""
"null","<p style=""font-size: 80px;"">+ 10 points</p>","null","html-keyboard-response","98","793204","0.0-11.0-2.97","58ededd652ac63000154a4e6","fzzhp6","DAJ","58","M","{""name"":""Safari"",""safari"":true,""version"":""15.6"",""webkit"":true,""mac"":true,""osname"":""macOS"",""osversion"":""10.15.7"",""a"":true}","9:15:27","1","3","Test_1","70","f","1","1078","2560 x 1440","2560 x 1440","true","1","10","","","","",""
"null","<p style=""font-size: 80px;"">+ 0 points</p>","null","html-keyboard-response","99","796456","0.0-11.0-2.98","58ededd652ac63000154a4e6","fzzhp6","DAJ","58","M","{""name"":""Safari"",""safari"":true,""version"":""15.6"",""webkit"":true,""mac"":true,""osname"":""macOS"",""osversion"":""10.15.7"",""a"":true}","9:15:27","1","3","Test_4","70","j","0","1248","2560 x 1440","2560 x 1440","true","1","0","","","","",""
"null","<p style=""font-size: 80px;"">+ 10 points</p>","null","html-keyboard-response","100","799480","0.0-11.0-2.99","58ededd652ac63000154a4e6","fzzhp6","DAJ","58","M","{""name"":""Safari"",""safari"":true,""version"":""15.6"",""webkit"":true,""mac"":true,""osname"":""macOS"",""osversion"":""10.15.7"",""a"":true}","9:15:27","1","3","Test_1","70","f","1","1020","2560 x 1440","2560 x 1440","true","1","10","","","","",""
"null","<p style=""font-size: 80px;"">+ 10 points</p>","null","html-keyboard-response","101","802541","0.0-11.0-2.100","58ededd652ac63000154a4e6","fzzhp6","DAJ","58","M","{""name"":""Safari"",""safari"":true,""version"":""15.6"",""webkit"":true,""mac"":true,""osname"":""macOS"",""osversion"":""10.15.7"",""a"":true}","9:15:27","1","3","Test_2","74","j","1","1057.0000000001164","2560 x 1440","2560 x 1440","true","1","10","","","","",""
"null","<p style=""font-size: 80px;"">+ 10 points</p>","null","html-keyboard-response","102","805545","0.0-11.0-2.101","58ededd652ac63000154a4e6","fzzhp6","DAJ","58","M","{""name"":""Safari"",""safari"":true,""version"":""15.6"",""webkit"":true,""mac"":true,""osname"":""macOS"",""osversion"":""10.15.7"",""a"":true}","9:15:27","1","3","Test_3","70","f","1","999","2560 x 1440","2560 x 1440","true","1","10","","","","",""
"null","<p style=""font-size: 80px;"">+ 10 points</p>","null","html-keyboard-response","103","809110","0.0-11.0-2.102","58ededd652ac63000154a4e6","fzzhp6","DAJ","58","M","{""name"":""Safari"",""safari"":true,""version"":""15.6"",""webkit"":true,""mac"":true,""osname"":""macOS"",""osversion"":""10.15.7"",""a"":true}","9:15:27","1","3","Test_2","74","j","1","1562","2560 x 1440","2560 x 1440","true","1","10","","","","",""
"null","<p style=""font-size: 80px;"">+ 0 points</p>","null","html-keyboard-response","104","812093","0.0-11.0-2.103","58ededd652ac63000154a4e6","fzzhp6","DAJ","58","M","{""name"":""Safari"",""safari"":true,""version"":""15.6"",""webkit"":true,""mac"":true,""osname"":""macOS"",""osversion"":""10.15.7"",""a"":true}","9:15:27","1","4","Test_1","70","j","0","979.9999999998836","2560 x 1440","2560 x 1440","true","1","0","","","","",""
"null","<p style=""font-size: 80px;"">+ 10 points</p>","null","html-keyboard-response","105","815366","0.0-11.0-2.104","58ededd652ac63000154a4e6","fzzhp6","DAJ","58","M","{""name"":""Safari"",""safari"":true,""version"":""15.6"",""webkit"":true,""mac"":true,""osname"":""macOS"",""osversion"":""10.15.7"",""a"":true}","9:15:27","1","4","Test_1","74","j","1","1270","2560 x 1440","2560 x 1440","true","1","10","","","","",""
"null","<p style=""font-size: 80px;"">+ 10 points</p>","null","html-keyboard-response","106","818655","0.0-11.0-2.105","58ededd652ac63000154a4e6","fzzhp6","DAJ","58","M","{""name"":""Safari"",""safari"":true,""version"":""15.6"",""webkit"":true,""mac"":true,""osname"":""macOS"",""osversion"":""10.15.7"",""a"":true}","9:15:27","1","4","Test_3","74","j","1","1286","2560 x 1440","2560 x 1440","true","1","10","","","","",""
"null","<p style=""font-size: 80px;"">+ 10 points</p>","null","html-keyboard-response","107","821845","0.0-11.0-2.106","58ededd652ac63000154a4e6","fzzhp6","DAJ","58","M","{""name"":""Safari"",""safari"":true,""version"":""15.6"",""webkit"":true,""mac"":true,""osname"":""macOS"",""osversion"":""10.15.7"",""a"":true}","9:15:27","1","4","Test_4","70","f","1","1186","2560 x 1440","2560 x 1440","true","1","10","","","","",""
"null","<p style=""font-size: 80px;"">+ 10 points</p>","null","html-keyboard-response","108","824729","0.0-11.0-2.107","58ededd652ac63000154a4e6","fzzhp6","DAJ","58","M","{""name"":""Safari"",""safari"":true,""version"":""15.6"",""webkit"":true,""mac"":true,""osname"":""macOS"",""osversion"":""10.15.7"",""a"":true}","9:15:27","1","4","Test_4","70","f","1","879.0000000001164","2560 x 1440","2560 x 1440","true","1","10","","","","",""
"null","<p style=""font-size: 80px;"">+ 10 points</p>","null","html-keyboard-response","109","827662","0.0-11.0-2.108","58ededd652ac63000154a4e6","fzzhp6","DAJ","58","M","{""name"":""Safari"",""safari"":true,""version"":""15.6"",""webkit"":true,""mac"":true,""osname"":""macOS"",""osversion"":""10.15.7"",""a"":true}","9:15:27","1","4","Test_1","74","j","1","929","2560 x 1440","2560 x 1440","true","1","10","","","","",""
"null","<p style=""font-size: 80px; line-height: 1.4em;"">Too late</br> Speed up!</p>","null","html-keyboard-response","110","850178","0.0-11.0-2.109","58ededd652ac63000154a4e6","fzzhp6","DAJ","58","M","{""name"":""Safari"",""safari"":true,""version"":""15.6"",""webkit"":true,""mac"":true,""osname"":""macOS"",""osversion"":""10.15.7"",""a"":true}","9:15:27","1","4","Test_3","null","j","0","null","2560 x 1440","2560 x 1440","true","1","0","","","","",""
"null","<p style=""font-size: 80px;"">+ 10 points</p>","null","html-keyboard-response","111","852874","0.0-11.0-2.110","58ededd652ac63000154a4e6","fzzhp6","DAJ","58","M","{""name"":""Safari"",""safari"":true,""version"":""15.6"",""webkit"":true,""mac"":true,""osname"":""macOS"",""osversion"":""10.15.7"",""a"":true}","9:15:27","1","4","Test_3","74","j","1","693","2560 x 1440","2560 x 1440","true","1","10","","","","",""
"null","<p style=""font-size: 80px;"">+ 10 points</p>","null","html-keyboard-response","112","855778","0.0-11.0-2.111","58ededd652ac63000154a4e6","fzzhp6","DAJ","58","M","{""name"":""Safari"",""safari"":true,""version"":""15.6"",""webkit"":true,""mac"":true,""osname"":""macOS"",""osversion"":""10.15.7"",""a"":true}","9:15:27","1","4","Test_1","74","j","1","900","2560 x 1440","2560 x 1440","true","1","10","","","","",""
"null","<p style=""font-size: 80px;"">+ 10 points</p>","null","html-keyboard-response","113","858662","0.0-11.0-2.112","58ededd652ac63000154a4e6","fzzhp6","DAJ","58","M","{""name"":""Safari"",""safari"":true,""version"":""15.6"",""webkit"":true,""mac"":true,""osname"":""macOS"",""osversion"":""10.15.7"",""a"":true}","9:15:27","1","4","Test_2","70","f","1","880","2560 x 1440","2560 x 1440","true","1","10","","","","",""
"null","<p style=""font-size: 80px;"">+ 10 points</p>","null","html-keyboard-response","114","861536","0.0-11.0-2.113","58ededd652ac63000154a4e6","fzzhp6","DAJ","58","M","{""name"":""Safari"",""safari"":true,""version"":""15.6"",""webkit"":true,""mac"":true,""osname"":""macOS"",""osversion"":""10.15.7"",""a"":true}","9:15:27","1","4","Test_1","74","j","1","871","2560 x 1440","2560 x 1440","true","1","10","","","","",""
"null","<p style=""font-size: 80px;"">+ 10 points</p>","null","html-keyboard-response","115","865138","0.0-11.0-2.114","58ededd652ac63000154a4e6","fzzhp6","DAJ","58","M","{""name"":""Safari"",""safari"":true,""version"":""15.6"",""webkit"":true,""mac"":true,""osname"":""macOS"",""osversion"":""10.15.7"",""a"":true}","9:15:27","1","4","Test_3","74","j","1","1598","2560 x 1440","2560 x 1440","true","1","10","","","","",""
"null","<p style=""font-size: 80px;"">+ 10 points</p>","null","html-keyboard-response","116","869324","0.0-11.0-2.115","58ededd652ac63000154a4e6","fzzhp6","DAJ","58","M","{""name"":""Safari"",""safari"":true,""version"":""15.6"",""webkit"":true,""mac"":true,""osname"":""macOS"",""osversion"":""10.15.7"",""a"":true}","9:15:27","1","4","Test_2","70","f","1","2182","2560 x 1440","2560 x 1440","true","1","10","","","","",""
"null","<p style=""font-size: 80px;"">+ 10 points</p>","null","html-keyboard-response","117","872552","0.0-11.0-2.116","58ededd652ac63000154a4e6","fzzhp6","DAJ","58","M","{""name"":""Safari"",""safari"":true,""version"":""15.6"",""webkit"":true,""mac"":true,""osname"":""macOS"",""osversion"":""10.15.7"",""a"":true}","9:15:27","1","4","Test_4","70","f","1","1224","2560 x 1440","2560 x 1440","true","1","10","","","","",""
"null","<p style=""font-size: 80px;"">+ 10 points</p>","null","html-keyboard-response","118","875485","0.0-11.0-2.117","58ededd652ac63000154a4e6","fzzhp6","DAJ","58","M","{""name"":""Safari"",""safari"":true,""version"":""15.6"",""webkit"":true,""mac"":true,""osname"":""macOS"",""osversion"":""10.15.7"",""a"":true}","9:15:27","1","4","Test_4","70","f","1","930","2560 x 1440","2560 x 1440","true","1","10","","","","",""
"null","<p style=""font-size: 80px;"">+ 10 points</p>","null","html-keyboard-response","119","878954","0.0-11.0-2.118","58ededd652ac63000154a4e6","fzzhp6","DAJ","58","M","{""name"":""Safari"",""safari"":true,""version"":""15.6"",""webkit"":true,""mac"":true,""osname"":""macOS"",""osversion"":""10.15.7"",""a"":true}","9:15:27","1","4","Test_4","70","f","1","1465","2560 x 1440","2560 x 1440","true","1","10","","","","",""
"null","<p style=""font-size: 80px;"">+ 10 points</p>","null","html-keyboard-response","120","883282","0.0-11.0-2.119","58ededd652ac63000154a4e6","fzzhp6","DAJ","58","M","{""name"":""Safari"",""safari"":true,""version"":""15.6"",""webkit"":true,""mac"":true,""osname"":""macOS"",""osversion"":""10.15.7"",""a"":true}","9:15:27","1","4","Test_2","70","f","1","2324","2560 x 1440","2560 x 1440","true","1","10","","","","",""
"null","<p style=""font-size: 80px;"">+ 10 points</p>","null","html-keyboard-response","121","886129","0.0-11.0-2.120","58ededd652ac63000154a4e6","fzzhp6","DAJ","58","M","{""name"":""Safari"",""safari"":true,""version"":""15.6"",""webkit"":true,""mac"":true,""osname"":""macOS"",""osversion"":""10.15.7"",""a"":true}","9:15:27","1","4","Test_3","74","j","1","843","2560 x 1440","2560 x 1440","true","1","10","","","","",""
"null","<p style=""font-size: 80px;"">+ 10 points</p>","null","html-keyboard-response","122","889032","0.0-11.0-2.121","58ededd652ac63000154a4e6","fzzhp6","DAJ","58","M","{""name"":""Safari"",""safari"":true,""version"":""15.6"",""webkit"":true,""mac"":true,""osname"":""macOS"",""osversion"":""10.15.7"",""a"":true}","9:15:27","1","4","Test_2","70","f","1","899","2560 x 1440","2560 x 1440","true","1","10","","","","",""
"null","<p style=""font-size: 80px;"">+ 10 points</p>","null","html-keyboard-response","123","892836","0.0-11.0-2.122","58ededd652ac63000154a4e6","fzzhp6","DAJ","58","M","{""name"":""Safari"",""safari"":true,""version"":""15.6"",""webkit"":true,""mac"":true,""osname"":""macOS"",""osversion"":""10.15.7"",""a"":true}","9:15:27","1","4","Test_2","70","f","1","1800.0000000001164","2560 x 1440","2560 x 1440","true","1","10","","","","",""
"null","<p style=""font-size: 80px;"">+ 10 points</p>","null","html-keyboard-response","124","895736","0.0-11.0-2.123","58ededd652ac63000154a4e6","fzzhp6","DAJ","58","M","{""name"":""Safari"",""safari"":true,""version"":""15.6"",""webkit"":true,""mac"":true,""osname"":""macOS"",""osversion"":""10.15.7"",""a"":true}","9:15:27","1","4","Test_3","74","j","1","897","2560 x 1440","2560 x 1440","true","1","10","","","","",""
"null","<p style=""font-size: 80px;"">+ 10 points</p>","null","html-keyboard-response","125","898955","0.0-11.0-2.124","58ededd652ac63000154a4e6","fzzhp6","DAJ","58","M","{""name"":""Safari"",""safari"":true,""version"":""15.6"",""webkit"":true,""mac"":true,""osname"":""macOS"",""osversion"":""10.15.7"",""a"":true}","9:15:27","1","4","Test_1","74","j","1","1216","2560 x 1440","2560 x 1440","true","1","10","","","","",""
"null","<p style=""font-size: 80px;"">+ 10 points</p>","null","html-keyboard-response","126","902105","0.0-11.0-2.125","58ededd652ac63000154a4e6","fzzhp6","DAJ","58","M","{""name"":""Safari"",""safari"":true,""version"":""15.6"",""webkit"":true,""mac"":true,""osname"":""macOS"",""osversion"":""10.15.7"",""a"":true}","9:15:27","1","4","Test_4","70","f","1","1146","2560 x 1440","2560 x 1440","true","1","10","","","","",""
"null","<p style=""font-size: 80px;"">+ 0 points</p>","null","html-keyboard-response","127","905588","0.0-11.0-2.126","58ededd652ac63000154a4e6","fzzhp6","DAJ","58","M","{""name"":""Safari"",""safari"":true,""version"":""15.6"",""webkit"":true,""mac"":true,""osname"":""macOS"",""osversion"":""10.15.7"",""a"":true}","9:15:27","1","3","Test_1","74","f","0","1478.9999999998836","2560 x 1440","2560 x 1440","true","1","0","","","","",""
"null","<p style=""font-size: 80px;"">+ 0 points</p>","null","html-keyboard-response","128","908820","0.0-11.0-2.127","58ededd652ac63000154a4e6","fzzhp6","DAJ","58","M","{""name"":""Safari"",""safari"":true,""version"":""15.6"",""webkit"":true,""mac"":true,""osname"":""macOS"",""osversion"":""10.15.7"",""a"":true}","9:15:27","1","3","Test_2","70","j","0","1230.0000000001164","2560 x 1440","2560 x 1440","true","1","0","","","","",""
"null","<p style=""font-size: 80px;"">+ 10 points</p>","null","html-keyboard-response","129","911860","0.0-11.0-2.128","58ededd652ac63000154a4e6","fzzhp6","DAJ","58","M","{""name"":""Safari"",""safari"":true,""version"":""15.6"",""webkit"":true,""mac"":true,""osname"":""macOS"",""osversion"":""10.15.7"",""a"":true}","9:15:27","1","3","Test_3","70","f","1","1037","2560 x 1440","2560 x 1440","true","1","10","","","","",""
"null","<p style=""font-size: 80px;"">+ 10 points</p>","null","html-keyboard-response","130","914850","0.0-11.0-2.129","58ededd652ac63000154a4e6","fzzhp6","DAJ","58","M","{""name"":""Safari"",""safari"":true,""version"":""15.6"",""webkit"":true,""mac"":true,""osname"":""macOS"",""osversion"":""10.15.7"",""a"":true}","9:15:27","1","3","Test_2","74","j","1","979","2560 x 1440","2560 x 1440","true","1","10","","","","",""
"null","<p style=""font-size: 80px;"">+ 10 points</p>","null","html-keyboard-response","131","918226","0.0-11.0-2.130","58ededd652ac63000154a4e6","fzzhp6","DAJ","58","M","{""name"":""Safari"",""safari"":true,""version"":""15.6"",""webkit"":true,""mac"":true,""osname"":""macOS"",""osversion"":""10.15.7"",""a"":true}","9:15:27","1","3","Test_1","70","f","1","1371","2560 x 1440","2560 x 1440","true","1","10","","","","",""
"null","<p style=""font-size: 80px;"">+ 10 points</p>","null","html-keyboard-response","132","921218","0.0-11.0-2.131","58ededd652ac63000154a4e6","fzzhp6","DAJ","58","M","{""name"":""Safari"",""safari"":true,""version"":""15.6"",""webkit"":true,""mac"":true,""osname"":""macOS"",""osversion"":""10.15.7"",""a"":true}","9:15:27","1","3","Test_2","74","j","1","989","2560 x 1440","2560 x 1440","true","1","10","","","","",""
"null","<p style=""font-size: 80px;"">+ 10 points</p>","null","html-keyboard-response","133","924016","0.0-11.0-2.132","58ededd652ac63000154a4e6","fzzhp6","DAJ","58","M","{""name"":""Safari"",""safari"":true,""version"":""15.6"",""webkit"":true,""mac"":true,""osname"":""macOS"",""osversion"":""10.15.7"",""a"":true}","9:15:27","1","3","Test_2","74","j","1","792","2560 x 1440","2560 x 1440","true","1","10","","","","",""
"null","<p style=""font-size: 80px;"">+ 10 points</p>","null","html-keyboard-response","134","927090","0.0-11.0-2.133","58ededd652ac63000154a4e6","fzzhp6","DAJ","58","M","{""name"":""Safari"",""safari"":true,""version"":""15.6"",""webkit"":true,""mac"":true,""osname"":""macOS"",""osversion"":""10.15.7"",""a"":true}","9:15:27","1","3","Test_3","70","f","1","1072","2560 x 1440","2560 x 1440","true","1","10","","","","",""
"null","<p style=""font-size: 80px;"">+ 10 points</p>","null","html-keyboard-response","135","929792","0.0-11.0-2.134","58ededd652ac63000154a4e6","fzzhp6","DAJ","58","M","{""name"":""Safari"",""safari"":true,""version"":""15.6"",""webkit"":true,""mac"":true,""osname"":""macOS"",""osversion"":""10.15.7"",""a"":true}","9:15:27","1","3","Test_3","70","f","1","697","2560 x 1440","2560 x 1440","true","1","10","","","","",""
"null","<p style=""font-size: 80px;"">+ 10 points</p>","null","html-keyboard-response","136","933278","0.0-11.0-2.135","58ededd652ac63000154a4e6","fzzhp6","DAJ","58","M","{""name"":""Safari"",""safari"":true,""version"":""15.6"",""webkit"":true,""mac"":true,""osname"":""macOS"",""osversion"":""10.15.7"",""a"":true}","9:15:27","1","3","Test_4","74","j","1","1483","2560 x 1440","2560 x 1440","true","1","10","","","","",""
"null","<p style=""font-size: 80px;"">+ 10 points</p>","null","html-keyboard-response","137","936090","0.0-11.0-2.136","58ededd652ac63000154a4e6","fzzhp6","DAJ","58","M","{""name"":""Safari"",""safari"":true,""version"":""15.6"",""webkit"":true,""mac"":true,""osname"":""macOS"",""osversion"":""10.15.7"",""a"":true}","9:15:27","1","3","Test_1","70","f","1","808","2560 x 1440","2560 x 1440","true","1","10","","","","",""
"null","<p style=""font-size: 80px;"">+ 10 points</p>","null","html-keyboard-response","138","939432","0.0-11.0-2.137","58ededd652ac63000154a4e6","fzzhp6","DAJ","58","M","{""name"":""Safari"",""safari"":true,""version"":""15.6"",""webkit"":true,""mac"":true,""osname"":""macOS"",""osversion"":""10.15.7"",""a"":true}","9:15:27","1","3","Test_2","74","j","1","1337","2560 x 1440","2560 x 1440","true","1","10","","","","",""
"null","<p style=""font-size: 80px;"">+ 10 points</p>","null","html-keyboard-response","139","942430","0.0-11.0-2.138","58ededd652ac63000154a4e6","fzzhp6","DAJ","58","M","{""name"":""Safari"",""safari"":true,""version"":""15.6"",""webkit"":true,""mac"":true,""osname"":""macOS"",""osversion"":""10.15.7"",""a"":true}","9:15:27","1","3","Test_4","74","j","1","994.0000000001164","2560 x 1440","2560 x 1440","true","1","10","","","","",""
"null","<p style=""font-size: 80px;"">+ 0 points</p>","null","html-keyboard-response","140","947566","0.0-11.0-2.139","58ededd652ac63000154a4e6","fzzhp6","DAJ","58","M","{""name"":""Safari"",""safari"":true,""version"":""15.6"",""webkit"":true,""mac"":true,""osname"":""macOS"",""osversion"":""10.15.7"",""a"":true}","9:15:27","1","3","Test_3","74","f","0","3133","2560 x 1440","2560 x 1440","true","1","0","","","","",""
"null","<p style=""font-size: 80px;"">+ 10 points</p>","null","html-keyboard-response","141","950727","0.0-11.0-2.140","58ededd652ac63000154a4e6","fzzhp6","DAJ","58","M","{""name"":""Safari"",""safari"":true,""version"":""15.6"",""webkit"":true,""mac"":true,""osname"":""macOS"",""osversion"":""10.15.7"",""a"":true}","9:15:27","1","3","Test_1","70","f","1","1155","2560 x 1440","2560 x 1440","true","1","10","","","","",""
"null","<p style=""font-size: 80px;"">+ 10 points</p>","null","html-keyboard-response","142","953575","0.0-11.0-2.141","58ededd652ac63000154a4e6","fzzhp6","DAJ","58","M","{""name"":""Safari"",""safari"":true,""version"":""15.6"",""webkit"":true,""mac"":true,""osname"":""macOS"",""osversion"":""10.15.7"",""a"":true}","9:15:27","1","3","Test_3","70","f","1","844","2560 x 1440","2560 x 1440","true","1","10","","","","",""
"null","<p style=""font-size: 80px;"">+ 10 points</p>","null","html-keyboard-response","143","956925","0.0-11.0-2.142","58ededd652ac63000154a4e6","fzzhp6","DAJ","58","M","{""name"":""Safari"",""safari"":true,""version"":""15.6"",""webkit"":true,""mac"":true,""osname"":""macOS"",""osversion"":""10.15.7"",""a"":true}","9:15:27","1","3","Test_4","74","j","1","1347","2560 x 1440","2560 x 1440","true","1","10","","","","",""
"null","<p style=""font-size: 80px;"">+ 10 points</p>","null","html-keyboard-response","144","960087","0.0-11.0-2.143","58ededd652ac63000154a4e6","fzzhp6","DAJ","58","M","{""name"":""Safari"",""safari"":true,""version"":""15.6"",""webkit"":true,""mac"":true,""osname"":""macOS"",""osversion"":""10.15.7"",""a"":true}","9:15:27","1","3","Test_1","70","f","1","1156","2560 x 1440","2560 x 1440","true","1","10","","","","",""
"null","<p style=""font-size: 80px;"">+ 10 points</p>","null","html-keyboard-response","145","963170","0.0-11.0-2.144","58ededd652ac63000154a4e6","fzzhp6","DAJ","58","M","{""name"":""Safari"",""safari"":true,""version"":""15.6"",""webkit"":true,""mac"":true,""osname"":""macOS"",""osversion"":""10.15.7"",""a"":true}","9:15:27","1","3","Test_4","74","j","1","1079.0000000001164","2560 x 1440","2560 x 1440","true","1","10","","","","",""
"null","<p style=""font-size: 80px;"">+ 0 points</p>","null","html-keyboard-response","146","965982","0.0-11.0-2.145","58ededd652ac63000154a4e6","fzzhp6","DAJ","58","M","{""name"":""Safari"",""safari"":true,""version"":""15.6"",""webkit"":true,""mac"":true,""osname"":""macOS"",""osversion"":""10.15.7"",""a"":true}","9:15:27","1","4","Test_3","70","j","0","809","2560 x 1440","2560 x 1440","true","1","0","","","","",""
"null","<p style=""font-size: 80px;"">+ 0 points</p>","null","html-keyboard-response","147","969649","0.0-11.0-2.146","58ededd652ac63000154a4e6","fzzhp6","DAJ","58","M","{""name"":""Safari"",""safari"":true,""version"":""15.6"",""webkit"":true,""mac"":true,""osname"":""macOS"",""osversion"":""10.15.7"",""a"":true}","9:15:27","1","4","Test_2","74","f","0","1662.9999999998836","2560 x 1440","2560 x 1440","true","1","0","","","","",""
"null","<p style=""font-size: 80px;"">+ 10 points</p>","null","html-keyboard-response","148","972485","0.0-11.0-2.147","58ededd652ac63000154a4e6","fzzhp6","DAJ","58","M","{""name"":""Safari"",""safari"":true,""version"":""15.6"",""webkit"":true,""mac"":true,""osname"":""macOS"",""osversion"":""10.15.7"",""a"":true}","9:15:27","1","4","Test_3","74","j","1","834.0000000001164","2560 x 1440","2560 x 1440","true","1","10","","","","",""
"null","<p style=""font-size: 80px;"">+ 10 points</p>","null","html-keyboard-response","149","975522","0.0-11.0-2.148","58ededd652ac63000154a4e6","fzzhp6","DAJ","58","M","{""name"":""Safari"",""safari"":true,""version"":""15.6"",""webkit"":true,""mac"":true,""osname"":""macOS"",""osversion"":""10.15.7"",""a"":true}","9:15:27","1","4","Test_3","74","j","1","1033","2560 x 1440","2560 x 1440","true","1","10","","","","",""
"null","<p style=""font-size: 80px;"">+ 10 points</p>","null","html-keyboard-response","150","978672","0.0-11.0-2.149","58ededd652ac63000154a4e6","fzzhp6","DAJ","58","M","{""name"":""Safari"",""safari"":true,""version"":""15.6"",""webkit"":true,""mac"":true,""osname"":""macOS"",""osversion"":""10.15.7"",""a"":true}","9:15:27","1","4","Test_2","70","f","1","1146","2560 x 1440","2560 x 1440","true","1","10","","","","",""
