"rt","stimulus","key_press","trial_type","trial_index","time_elapsed","internal_node_id","Prolific_ID","random_ID","initials","age","gender","pc_info","start_time","Phase","Rule","Stimulus","Response","CorrResp","Accuracy","ResponseTime","screen_resolution","window_resolution","focus","relevant","Points","responses","question_order","rev_check","butterfly_check","passed_practice"
"null","<p style=""font-size: 80px;"">+ 0 points</p>","null","html-keyboard-response","1","97322","0.0-7.0-2.0","6172e28b7daf23e8e2c744a1","d84u9j","Vss","37","F","{""name"":""Chrome"",""chrome"":true,""version"":""106.0"",""blink"":true,""windows"":true,""osname"":""Windows"",""osversion"":""10"",""a"":true}","9:18:17","0","1","Practice_1","74","f","0","1213.7999999523163","1280 x 720","1280 x 720","true","1","0","","","","",""
"null","<p style=""font-size: 80px;"">+ 0 points</p>","null","html-keyboard-response","2","100887","0.0-7.0-2.1","6172e28b7daf23e8e2c744a1","d84u9j","Vss","37","F","{""name"":""Chrome"",""chrome"":true,""version"":""106.0"",""blink"":true,""windows"":true,""osname"":""Windows"",""osversion"":""10"",""a"":true}","9:18:17","0","1","Practice_3","74","f","0","1527.8999999761581","1280 x 720","1280 x 720","true","1","0","","","","",""
"null","<p style=""font-size: 80px;"">+ 0 points</p>","null","html-keyboard-response","3","104169","0.0-7.0-2.2","6172e28b7daf23e8e2c744a1","d84u9j","Vss","37","F","{""name"":""Chrome"",""chrome"":true,""version"":""106.0"",""blink"":true,""windows"":true,""osname"":""Windows"",""osversion"":""10"",""a"":true}","9:18:17","0","1","Practice_1","74","f","0","1248.5","1280 x 720","1280 x 720","true","1","0","","","","",""
"null","<p style=""font-size: 80px;"">+ 0 points</p>","null","html-keyboard-response","4","107354","0.0-7.0-2.3","6172e28b7daf23e8e2c744a1","d84u9j","Vss","37","F","{""name"":""Chrome"",""chrome"":true,""version"":""106.0"",""blink"":true,""windows"":true,""osname"":""Windows"",""osversion"":""10"",""a"":true}","9:18:17","0","1","Practice_1","74","f","0","1158.2000000476837","1280 x 720","1280 x 720","true","1","0","","","","",""
"null","<p style=""font-size: 80px;"">+ 0 points</p>","null","html-keyboard-response","5","110256","0.0-7.0-2.4","6172e28b7daf23e8e2c744a1","d84u9j","Vss","37","F","{""name"":""Chrome"",""chrome"":true,""version"":""106.0"",""blink"":true,""windows"":true,""osname"":""Windows"",""osversion"":""10"",""a"":true}","9:18:17","0","1","Practice_3","74","f","0","881.6000000238419","1280 x 720","1280 x 720","true","1","0","","","","",""
"null","<p style=""font-size: 80px;"">+ 0 points</p>","null","html-keyboard-response","6","113001","0.0-7.0-2.5","6172e28b7daf23e8e2c744a1","d84u9j","Vss","37","F","{""name"":""Chrome"",""chrome"":true,""version"":""106.0"",""blink"":true,""windows"":true,""osname"":""Windows"",""osversion"":""10"",""a"":true}","9:18:17","0","1","Practice_4","70","j","0","717.3999999761581","1280 x 720","1280 x 720","true","1","0","","","","",""
"null","<p style=""font-size: 80px;"">+ 10 points</p>","null","html-keyboard-response","7","116118","0.0-7.0-2.6","6172e28b7daf23e8e2c744a1","d84u9j","Vss","37","F","{""name"":""Chrome"",""chrome"":true,""version"":""106.0"",""blink"":true,""windows"":true,""osname"":""Windows"",""osversion"":""10"",""a"":true}","9:18:17","0","1","Practice_3","70","f","1","1080.7000000476837","1280 x 720","1280 x 720","true","1","10","","","","",""
"null","<p style=""font-size: 80px;"">+ 10 points</p>","null","html-keyboard-response","8","119794","0.0-7.0-2.7","6172e28b7daf23e8e2c744a1","d84u9j","Vss","37","F","{""name"":""Chrome"",""chrome"":true,""version"":""106.0"",""blink"":true,""windows"":true,""osname"":""Windows"",""osversion"":""10"",""a"":true}","9:18:17","0","1","Practice_4","74","j","1","1647.8999999761581","1280 x 720","1280 x 720","true","1","10","","","","",""
"null","<p style=""font-size: 80px;"">+ 10 points</p>","null","html-keyboard-response","9","123704","0.0-7.0-2.8","6172e28b7daf23e8e2c744a1","d84u9j","Vss","37","F","{""name"":""Chrome"",""chrome"":true,""version"":""106.0"",""blink"":true,""windows"":true,""osname"":""Windows"",""osversion"":""10"",""a"":true}","9:18:17","0","1","Practice_2","74","j","1","1885.3999999761581","1280 x 720","1280 x 720","true","1","10","","","","",""
"null","<p style=""font-size: 80px;"">+ 0 points</p>","null","html-keyboard-response","10","126385","0.0-7.0-2.9","6172e28b7daf23e8e2c744a1","d84u9j","Vss","37","F","{""name"":""Chrome"",""chrome"":true,""version"":""106.0"",""blink"":true,""windows"":true,""osname"":""Windows"",""osversion"":""10"",""a"":true}","9:18:17","0","1","Practice_2","70","j","0","659","1280 x 720","1280 x 720","true","1","0","","","","",""
"null","<p style=""font-size: 80px;"">+ 0 points</p>","null","html-keyboard-response","11","128969","0.0-7.0-2.10","6172e28b7daf23e8e2c744a1","d84u9j","Vss","37","F","{""name"":""Chrome"",""chrome"":true,""version"":""106.0"",""blink"":true,""windows"":true,""osname"":""Windows"",""osversion"":""10"",""a"":true}","9:18:17","0","1","Practice_2","70","j","0","548.1000000238419","1280 x 720","1280 x 720","true","1","0","","","","",""
"null","<p style=""font-size: 80px;"">+ 0 points</p>","null","html-keyboard-response","12","131587","0.0-7.0-2.11","6172e28b7daf23e8e2c744a1","d84u9j","Vss","37","F","{""name"":""Chrome"",""chrome"":true,""version"":""106.0"",""blink"":true,""windows"":true,""osname"":""Windows"",""osversion"":""10"",""a"":true}","9:18:17","0","1","Practice_4","70","j","0","594","1280 x 720","1280 x 720","true","1","0","","","","",""
"null","<p style=""font-size: 80px;"">+ 0 points</p>","null","html-keyboard-response","13","134102","0.0-7.0-2.12","6172e28b7daf23e8e2c744a1","d84u9j","Vss","37","F","{""name"":""Chrome"",""chrome"":true,""version"":""106.0"",""blink"":true,""windows"":true,""osname"":""Windows"",""osversion"":""10"",""a"":true}","9:18:17","0","1","Practice_1","74","f","0","482.5","1280 x 720","1280 x 720","true","1","0","","","","",""
"null","<p style=""font-size: 80px;"">+ 10 points</p>","null","html-keyboard-response","14","136717","0.0-7.0-2.13","6172e28b7daf23e8e2c744a1","d84u9j","Vss","37","F","{""name"":""Chrome"",""chrome"":true,""version"":""106.0"",""blink"":true,""windows"":true,""osname"":""Windows"",""osversion"":""10"",""a"":true}","9:18:17","0","1","Practice_4","74","j","1","581.2999999523163","1280 x 720","1280 x 720","true","1","10","","","","",""
"null","<p style=""font-size: 80px;"">+ 10 points</p>","null","html-keyboard-response","15","139234","0.0-7.0-2.14","6172e28b7daf23e8e2c744a1","d84u9j","Vss","37","F","{""name"":""Chrome"",""chrome"":true,""version"":""106.0"",""blink"":true,""windows"":true,""osname"":""Windows"",""osversion"":""10"",""a"":true}","9:18:17","0","1","Practice_2","74","j","1","478.89999997615814","1280 x 720","1280 x 720","true","1","10","","","","",""
"null","<p style=""font-size: 80px;"">+ 0 points</p>","null","html-keyboard-response","16","141749","0.0-7.0-2.15","6172e28b7daf23e8e2c744a1","d84u9j","Vss","37","F","{""name"":""Chrome"",""chrome"":true,""version"":""106.0"",""blink"":true,""windows"":true,""osname"":""Windows"",""osversion"":""10"",""a"":true}","9:18:17","0","1","Practice_3","74","f","0","489","1280 x 720","1280 x 720","true","1","0","","","","",""
"null","<p style=""font-size: 80px;"">+ 10 points</p>","null","html-keyboard-response","17","144184","0.0-7.0-2.16","6172e28b7daf23e8e2c744a1","d84u9j","Vss","37","F","{""name"":""Chrome"",""chrome"":true,""version"":""106.0"",""blink"":true,""windows"":true,""osname"":""Windows"",""osversion"":""10"",""a"":true}","9:18:17","0","1","Practice_4","74","j","1","411.60000002384186","1280 x 720","1280 x 720","true","1","10","","","","",""
"null","<p style=""font-size: 80px;"">+ 0 points</p>","null","html-keyboard-response","18","148431","0.0-7.0-2.17","6172e28b7daf23e8e2c744a1","d84u9j","Vss","37","F","{""name"":""Chrome"",""chrome"":true,""version"":""106.0"",""blink"":true,""windows"":true,""osname"":""Windows"",""osversion"":""10"",""a"":true}","9:18:17","0","1","Practice_1","74","f","0","2217.100000023842","1280 x 720","1280 x 720","true","1","0","","","","",""
"null","<p style=""font-size: 80px;"">+ 0 points</p>","null","html-keyboard-response","19","152580","0.0-7.0-2.18","6172e28b7daf23e8e2c744a1","d84u9j","Vss","37","F","{""name"":""Chrome"",""chrome"":true,""version"":""106.0"",""blink"":true,""windows"":true,""osname"":""Windows"",""osversion"":""10"",""a"":true}","9:18:17","0","1","Practice_3","74","f","0","2130.5999999046326","1280 x 720","1280 x 720","true","1","0","","","","",""
"null","<p style=""font-size: 80px;"">+ 0 points</p>","null","html-keyboard-response","20","155103","0.0-7.0-2.19","6172e28b7daf23e8e2c744a1","d84u9j","Vss","37","F","{""name"":""Chrome"",""chrome"":true,""version"":""106.0"",""blink"":true,""windows"":true,""osname"":""Windows"",""osversion"":""10"",""a"":true}","9:18:17","0","1","Practice_2","70","j","0","496","1280 x 720","1280 x 720","true","1","0","","","","",""
"null","<p style=""font-size: 80px;"">+ 0 points</p>","null","html-keyboard-response","21","158029","0.0-7.0-2.20","6172e28b7daf23e8e2c744a1","d84u9j","Vss","37","F","{""name"":""Chrome"",""chrome"":true,""version"":""106.0"",""blink"":true,""windows"":true,""osname"":""Windows"",""osversion"":""10"",""a"":true}","9:18:17","0","2","Practice_4","74","f","0","903.5","1280 x 720","1280 x 720","true","1","0","","","","",""
"null","<p style=""font-size: 80px;"">+ 10 points</p>","null","html-keyboard-response","22","160663","0.0-7.0-2.21","6172e28b7daf23e8e2c744a1","d84u9j","Vss","37","F","{""name"":""Chrome"",""chrome"":true,""version"":""106.0"",""blink"":true,""windows"":true,""osname"":""Windows"",""osversion"":""10"",""a"":true}","9:18:17","0","2","Practice_3","74","j","1","614.7999999523163","1280 x 720","1280 x 720","true","1","10","","","","",""
"null","<p style=""font-size: 80px;"">+ 10 points</p>","null","html-keyboard-response","23","163528","0.0-7.0-2.22","6172e28b7daf23e8e2c744a1","d84u9j","Vss","37","F","{""name"":""Chrome"",""chrome"":true,""version"":""106.0"",""blink"":true,""windows"":true,""osname"":""Windows"",""osversion"":""10"",""a"":true}","9:18:17","0","2","Practice_1","74","j","1","839.6000000238419","1280 x 720","1280 x 720","true","1","10","","","","",""
"null","<p style=""font-size: 80px;"">+ 10 points</p>","null","html-keyboard-response","24","166210","0.0-7.0-2.23","6172e28b7daf23e8e2c744a1","d84u9j","Vss","37","F","{""name"":""Chrome"",""chrome"":true,""version"":""106.0"",""blink"":true,""windows"":true,""osname"":""Windows"",""osversion"":""10"",""a"":true}","9:18:17","0","2","Practice_1","74","j","1","649.3000000715256","1280 x 720","1280 x 720","true","1","10","","","","",""
"null","<p style=""font-size: 80px;"">+ 0 points</p>","null","html-keyboard-response","25","168911","0.0-7.0-2.24","6172e28b7daf23e8e2c744a1","d84u9j","Vss","37","F","{""name"":""Chrome"",""chrome"":true,""version"":""106.0"",""blink"":true,""windows"":true,""osname"":""Windows"",""osversion"":""10"",""a"":true}","9:18:17","0","2","Practice_4","74","f","0","664.3999999761581","1280 x 720","1280 x 720","true","1","0","","","","",""
"null","<p style=""font-size: 80px;"">+ 0 points</p>","null","html-keyboard-response","26","172541","0.0-7.0-2.25","6172e28b7daf23e8e2c744a1","d84u9j","Vss","37","F","{""name"":""Chrome"",""chrome"":true,""version"":""106.0"",""blink"":true,""windows"":true,""osname"":""Windows"",""osversion"":""10"",""a"":true}","9:18:17","0","2","Practice_2","74","f","0","1596.5","1280 x 720","1280 x 720","true","1","0","","","","",""
"null","<p style=""font-size: 80px;"">+ 10 points</p>","null","html-keyboard-response","27","175160","0.0-7.0-2.26","6172e28b7daf23e8e2c744a1","d84u9j","Vss","37","F","{""name"":""Chrome"",""chrome"":true,""version"":""106.0"",""blink"":true,""windows"":true,""osname"":""Windows"",""osversion"":""10"",""a"":true}","9:18:17","0","2","Practice_2","70","f","1","598.3999999761581","1280 x 720","1280 x 720","true","1","10","","","","",""
"null","<p style=""font-size: 80px;"">+ 10 points</p>","null","html-keyboard-response","28","177925","0.0-7.0-2.27","6172e28b7daf23e8e2c744a1","d84u9j","Vss","37","F","{""name"":""Chrome"",""chrome"":true,""version"":""106.0"",""blink"":true,""windows"":true,""osname"":""Windows"",""osversion"":""10"",""a"":true}","9:18:17","0","2","Practice_4","70","f","1","747.2000000476837","1280 x 720","1280 x 720","true","1","10","","","","",""
"null","<p style=""font-size: 80px;"">+ 0 points</p>","null","html-keyboard-response","29","180424","0.0-7.0-2.28","6172e28b7daf23e8e2c744a1","d84u9j","Vss","37","F","{""name"":""Chrome"",""chrome"":true,""version"":""106.0"",""blink"":true,""windows"":true,""osname"":""Windows"",""osversion"":""10"",""a"":true}","9:18:17","0","2","Practice_1","70","j","0","472.8000000715256","1280 x 720","1280 x 720","true","1","0","","","","",""
"null","<p style=""font-size: 80px;"">+ 10 points</p>","null","html-keyboard-response","30","182972","0.0-7.0-2.29","6172e28b7daf23e8e2c744a1","d84u9j","Vss","37","F","{""name"":""Chrome"",""chrome"":true,""version"":""106.0"",""blink"":true,""windows"":true,""osname"":""Windows"",""osversion"":""10"",""a"":true}","9:18:17","0","2","Practice_3","74","j","1","521.1000000238419","1280 x 720","1280 x 720","true","1","10","","","","",""
"null","<p style=""font-size: 80px;"">+ 10 points</p>","null","html-keyboard-response","31","185623","0.0-7.0-2.30","6172e28b7daf23e8e2c744a1","d84u9j","Vss","37","F","{""name"":""Chrome"",""chrome"":true,""version"":""106.0"",""blink"":true,""windows"":true,""osname"":""Windows"",""osversion"":""10"",""a"":true}","9:18:17","0","2","Practice_3","74","j","1","614.8999999761581","1280 x 720","1280 x 720","true","1","10","","","","",""
"null","<p style=""font-size: 80px;"">+ 0 points</p>","null","html-keyboard-response","32","188023","0.0-7.0-2.31","6172e28b7daf23e8e2c744a1","d84u9j","Vss","37","F","{""name"":""Chrome"",""chrome"":true,""version"":""106.0"",""blink"":true,""windows"":true,""osname"":""Windows"",""osversion"":""10"",""a"":true}","9:18:17","0","2","Practice_1","70","j","0","381.39999997615814","1280 x 720","1280 x 720","true","1","0","","","","",""
"null","<p style=""font-size: 80px;"">+ 10 points</p>","null","html-keyboard-response","33","190888","0.0-7.0-2.32","6172e28b7daf23e8e2c744a1","d84u9j","Vss","37","F","{""name"":""Chrome"",""chrome"":true,""version"":""106.0"",""blink"":true,""windows"":true,""osname"":""Windows"",""osversion"":""10"",""a"":true}","9:18:17","0","2","Practice_1","74","j","1","837.8999999761581","1280 x 720","1280 x 720","true","1","10","","","","",""
"null","<p style=""font-size: 80px;"">+ 0 points</p>","null","html-keyboard-response","34","193590","0.0-7.0-2.33","6172e28b7daf23e8e2c744a1","d84u9j","Vss","37","F","{""name"":""Chrome"",""chrome"":true,""version"":""106.0"",""blink"":true,""windows"":true,""osname"":""Windows"",""osversion"":""10"",""a"":true}","9:18:17","0","2","Practice_2","74","f","0","677.7999999523163","1280 x 720","1280 x 720","true","1","0","","","","",""
"null","<p style=""font-size: 80px;"">+ 0 points</p>","null","html-keyboard-response","35","196037","0.0-7.0-2.34","6172e28b7daf23e8e2c744a1","d84u9j","Vss","37","F","{""name"":""Chrome"",""chrome"":true,""version"":""106.0"",""blink"":true,""windows"":true,""osname"":""Windows"",""osversion"":""10"",""a"":true}","9:18:17","0","2","Practice_2","74","f","0","416.60000002384186","1280 x 720","1280 x 720","true","1","0","","","","",""
"null","<p style=""font-size: 80px;"">+ 0 points</p>","null","html-keyboard-response","36","198743","0.0-7.0-2.35","6172e28b7daf23e8e2c744a1","d84u9j","Vss","37","F","{""name"":""Chrome"",""chrome"":true,""version"":""106.0"",""blink"":true,""windows"":true,""osname"":""Windows"",""osversion"":""10"",""a"":true}","9:18:17","0","2","Practice_4","74","f","0","679.6000000238419","1280 x 720","1280 x 720","true","1","0","","","","",""
"null","<p style=""font-size: 80px;"">+ 10 points</p>","null","html-keyboard-response","37","201220","0.0-7.0-2.36","6172e28b7daf23e8e2c744a1","d84u9j","Vss","37","F","{""name"":""Chrome"",""chrome"":true,""version"":""106.0"",""blink"":true,""windows"":true,""osname"":""Windows"",""osversion"":""10"",""a"":true}","9:18:17","0","2","Practice_4","70","f","1","456","1280 x 720","1280 x 720","true","1","10","","","","",""
"null","<p style=""font-size: 80px;"">+ 0 points</p>","null","html-keyboard-response","38","204162","0.0-7.0-2.37","6172e28b7daf23e8e2c744a1","d84u9j","Vss","37","F","{""name"":""Chrome"",""chrome"":true,""version"":""106.0"",""blink"":true,""windows"":true,""osname"":""Windows"",""osversion"":""10"",""a"":true}","9:18:17","0","2","Practice_3","70","j","0","922","1280 x 720","1280 x 720","true","1","0","","","","",""
"null","<p style=""font-size: 80px;"">+ 0 points</p>","null","html-keyboard-response","39","210146","0.0-7.0-2.38","6172e28b7daf23e8e2c744a1","d84u9j","Vss","37","F","{""name"":""Chrome"",""chrome"":true,""version"":""106.0"",""blink"":true,""windows"":true,""osname"":""Windows"",""osversion"":""10"",""a"":true}","9:18:17","0","2","Practice_3","70","j","0","3953.5999999046326","1280 x 720","1280 x 720","true","1","0","","","","",""
"null","<p style=""font-size: 80px;"">+ 0 points</p>","null","html-keyboard-response","40","212886","0.0-7.0-2.39","6172e28b7daf23e8e2c744a1","d84u9j","Vss","37","F","{""name"":""Chrome"",""chrome"":true,""version"":""106.0"",""blink"":true,""windows"":true,""osname"":""Windows"",""osversion"":""10"",""a"":true}","9:18:17","0","2","Practice_2","74","f","0","726.8999999761581","1280 x 720","1280 x 720","true","1","0","","","","",""
"20518","","","survey-multi-choice","127","233411","0.0-8.0","6172e28b7daf23e8e2c744a1","d84u9j","Vss","37","F","{""name"":""Chrome"",""chrome"":true,""version"":""106.0"",""blink"":true,""windows"":true,""osname"":""Windows"",""osversion"":""10"",""a"":true}","9:18:17","","","","","","","","","","","1","","{""Q0"":""The green one"",""Q1"":""1""}","[0,1]","1","The green one","1"
"null","<p style=""font-size: 80px;"">+ 0 points</p>","null","html-keyboard-response","1","254176","0.0-9.0-1.0-2.0","6172e28b7daf23e8e2c744a1","d84u9j","Vss","37","F","{""name"":""Chrome"",""chrome"":true,""version"":""106.0"",""blink"":true,""windows"":true,""osname"":""Windows"",""osversion"":""10"",""a"":true}","9:18:17","0","1","Practice_1","74","f","0","3789.7999999523163","1280 x 720","1280 x 720","true","1","0","","","","",""
"null","<p style=""font-size: 80px;"">+ 10 points</p>","null","html-keyboard-response","2","258345","0.0-9.0-1.0-2.1","6172e28b7daf23e8e2c744a1","d84u9j","Vss","37","F","{""name"":""Chrome"",""chrome"":true,""version"":""106.0"",""blink"":true,""windows"":true,""osname"":""Windows"",""osversion"":""10"",""a"":true}","9:18:17","0","1","Practice_3","70","f","1","2141.6999999284744","1280 x 720","1280 x 720","true","1","10","","","","",""
"null","<p style=""font-size: 80px;"">+ 10 points</p>","null","html-keyboard-response","3","263035","0.0-9.0-1.0-2.2","6172e28b7daf23e8e2c744a1","d84u9j","Vss","37","F","{""name"":""Chrome"",""chrome"":true,""version"":""106.0"",""blink"":true,""windows"":true,""osname"":""Windows"",""osversion"":""10"",""a"":true}","9:18:17","0","1","Practice_1","70","f","1","2661.9000000953674","1280 x 720","1280 x 720","true","1","10","","","","",""
"null","<p style=""font-size: 80px;"">+ 10 points</p>","null","html-keyboard-response","4","266272","0.0-9.0-1.0-2.3","6172e28b7daf23e8e2c744a1","d84u9j","Vss","37","F","{""name"":""Chrome"",""chrome"":true,""version"":""106.0"",""blink"":true,""windows"":true,""osname"":""Windows"",""osversion"":""10"",""a"":true}","9:18:17","0","1","Practice_1","70","f","1","1211.3999999761581","1280 x 720","1280 x 720","true","1","10","","","","",""
"null","<p style=""font-size: 80px;"">+ 10 points</p>","null","html-keyboard-response","5","269923","0.0-9.0-1.0-2.4","6172e28b7daf23e8e2c744a1","d84u9j","Vss","37","F","{""name"":""Chrome"",""chrome"":true,""version"":""106.0"",""blink"":true,""windows"":true,""osname"":""Windows"",""osversion"":""10"",""a"":true}","9:18:17","0","1","Practice_3","70","f","1","1628.1000000238419","1280 x 720","1280 x 720","true","1","10","","","","",""
"null","<p style=""font-size: 80px;"">+ 10 points</p>","null","html-keyboard-response","6","273520","0.0-9.0-1.0-2.5","6172e28b7daf23e8e2c744a1","d84u9j","Vss","37","F","{""name"":""Chrome"",""chrome"":true,""version"":""106.0"",""blink"":true,""windows"":true,""osname"":""Windows"",""osversion"":""10"",""a"":true}","9:18:17","0","1","Practice_4","74","j","1","1566.3000000715256","1280 x 720","1280 x 720","true","1","10","","","","",""
"null","<p style=""font-size: 80px;"">+ 10 points</p>","null","html-keyboard-response","7","277171","0.0-9.0-1.0-2.6","6172e28b7daf23e8e2c744a1","d84u9j","Vss","37","F","{""name"":""Chrome"",""chrome"":true,""version"":""106.0"",""blink"":true,""windows"":true,""osname"":""Windows"",""osversion"":""10"",""a"":true}","9:18:17","0","1","Practice_3","70","f","1","1617.2000000476837","1280 x 720","1280 x 720","true","1","10","","","","",""
"null","<p style=""font-size: 80px;"">+ 10 points</p>","null","html-keyboard-response","8","279887","0.0-9.0-1.0-2.7","6172e28b7daf23e8e2c744a1","d84u9j","Vss","37","F","{""name"":""Chrome"",""chrome"":true,""version"":""106.0"",""blink"":true,""windows"":true,""osname"":""Windows"",""osversion"":""10"",""a"":true}","9:18:17","0","1","Practice_4","74","j","1","704.3999999761581","1280 x 720","1280 x 720","true","1","10","","","","",""
"null","<p style=""font-size: 80px;"">+ 10 points</p>","null","html-keyboard-response","9","283817","0.0-9.0-1.0-2.8","6172e28b7daf23e8e2c744a1","d84u9j","Vss","37","F","{""name"":""Chrome"",""chrome"":true,""version"":""106.0"",""blink"":true,""windows"":true,""osname"":""Windows"",""osversion"":""10"",""a"":true}","9:18:17","0","1","Practice_2","74","j","1","1911.8000000715256","1280 x 720","1280 x 720","true","1","10","","","","",""
"null","<p style=""font-size: 80px;"">+ 10 points</p>","null","html-keyboard-response","10","287178","0.0-9.0-1.0-2.9","6172e28b7daf23e8e2c744a1","d84u9j","Vss","37","F","{""name"":""Chrome"",""chrome"":true,""version"":""106.0"",""blink"":true,""windows"":true,""osname"":""Windows"",""osversion"":""10"",""a"":true}","9:18:17","0","1","Practice_2","74","j","1","1332.6000000238419","1280 x 720","1280 x 720","true","1","10","","","","",""
"null","<p style=""font-size: 80px;"">+ 10 points</p>","null","html-keyboard-response","11","290217","0.0-9.0-1.0-2.10","6172e28b7daf23e8e2c744a1","d84u9j","Vss","37","F","{""name"":""Chrome"",""chrome"":true,""version"":""106.0"",""blink"":true,""windows"":true,""osname"":""Windows"",""osversion"":""10"",""a"":true}","9:18:17","0","1","Practice_2","74","j","1","1015.6000000238419","1280 x 720","1280 x 720","true","1","10","","","","",""
"null","<p style=""font-size: 80px;"">+ 10 points</p>","null","html-keyboard-response","12","293600","0.0-9.0-1.0-2.11","6172e28b7daf23e8e2c744a1","d84u9j","Vss","37","F","{""name"":""Chrome"",""chrome"":true,""version"":""106.0"",""blink"":true,""windows"":true,""osname"":""Windows"",""osversion"":""10"",""a"":true}","9:18:17","0","1","Practice_4","74","j","1","1353","1280 x 720","1280 x 720","true","1","10","","","","",""
"null","<p style=""font-size: 80px;"">+ 10 points</p>","null","html-keyboard-response","13","296915","0.0-9.0-1.0-2.12","6172e28b7daf23e8e2c744a1","d84u9j","Vss","37","F","{""name"":""Chrome"",""chrome"":true,""version"":""106.0"",""blink"":true,""windows"":true,""osname"":""Windows"",""osversion"":""10"",""a"":true}","9:18:17","0","1","Practice_1","70","f","1","1284.9000000953674","1280 x 720","1280 x 720","true","1","10","","","","",""
"null","<p style=""font-size: 80px;"">+ 10 points</p>","null","html-keyboard-response","14","302685","0.0-9.0-1.0-2.13","6172e28b7daf23e8e2c744a1","d84u9j","Vss","37","F","{""name"":""Chrome"",""chrome"":true,""version"":""106.0"",""blink"":true,""windows"":true,""osname"":""Windows"",""osversion"":""10"",""a"":true}","9:18:17","0","1","Practice_4","74","j","1","3761.6999999284744","1280 x 720","1280 x 720","true","1","10","","","","",""
"null","<p style=""font-size: 80px;"">+ 10 points</p>","null","html-keyboard-response","15","308185","0.0-9.0-1.0-2.14","6172e28b7daf23e8e2c744a1","d84u9j","Vss","37","F","{""name"":""Chrome"",""chrome"":true,""version"":""106.0"",""blink"":true,""windows"":true,""osname"":""Windows"",""osversion"":""10"",""a"":true}","9:18:17","0","1","Practice_2","74","j","1","3479.600000023842","1280 x 720","1280 x 720","true","1","10","","","","",""
"null","<p style=""font-size: 80px;"">+ 10 points</p>","null","html-keyboard-response","16","311167","0.0-9.0-1.0-2.15","6172e28b7daf23e8e2c744a1","d84u9j","Vss","37","F","{""name"":""Chrome"",""chrome"":true,""version"":""106.0"",""blink"":true,""windows"":true,""osname"":""Windows"",""osversion"":""10"",""a"":true}","9:18:17","0","1","Practice_3","70","f","1","956.5","1280 x 720","1280 x 720","true","1","10","","","","",""
"null","<p style=""font-size: 80px;"">+ 10 points</p>","null","html-keyboard-response","17","314650","0.0-9.0-1.0-2.16","6172e28b7daf23e8e2c744a1","d84u9j","Vss","37","F","{""name"":""Chrome"",""chrome"":true,""version"":""106.0"",""blink"":true,""windows"":true,""osname"":""Windows"",""osversion"":""10"",""a"":true}","9:18:17","0","1","Practice_4","74","j","1","1458.6000000238419","1280 x 720","1280 x 720","true","1","10","","","","",""
"null","<p style=""font-size: 80px;"">+ 10 points</p>","null","html-keyboard-response","18","317667","0.0-9.0-1.0-2.17","6172e28b7daf23e8e2c744a1","d84u9j","Vss","37","F","{""name"":""Chrome"",""chrome"":true,""version"":""106.0"",""blink"":true,""windows"":true,""osname"":""Windows"",""osversion"":""10"",""a"":true}","9:18:17","0","1","Practice_1","70","f","1","992","1280 x 720","1280 x 720","true","1","10","","","","",""
"null","<p style=""font-size: 80px;"">+ 10 points</p>","null","html-keyboard-response","19","320583","0.0-9.0-1.0-2.18","6172e28b7daf23e8e2c744a1","d84u9j","Vss","37","F","{""name"":""Chrome"",""chrome"":true,""version"":""106.0"",""blink"":true,""windows"":true,""osname"":""Windows"",""osversion"":""10"",""a"":true}","9:18:17","0","1","Practice_3","70","f","1","903.7999999523163","1280 x 720","1280 x 720","true","1","10","","","","",""
"null","<p style=""font-size: 80px;"">+ 10 points</p>","null","html-keyboard-response","20","323448","0.0-9.0-1.0-2.19","6172e28b7daf23e8e2c744a1","d84u9j","Vss","37","F","{""name"":""Chrome"",""chrome"":true,""version"":""106.0"",""blink"":true,""windows"":true,""osname"":""Windows"",""osversion"":""10"",""a"":true}","9:18:17","0","1","Practice_2","74","j","1","841.6000000238419","1280 x 720","1280 x 720","true","1","10","","","","",""
"null","<p style=""font-size: 80px;"">+ 0 points</p>","null","html-keyboard-response","21","326346","0.0-9.0-1.0-2.20","6172e28b7daf23e8e2c744a1","d84u9j","Vss","37","F","{""name"":""Chrome"",""chrome"":true,""version"":""106.0"",""blink"":true,""windows"":true,""osname"":""Windows"",""osversion"":""10"",""a"":true}","9:18:17","0","2","Practice_4","74","f","0","871.6000000238419","1280 x 720","1280 x 720","true","1","0","","","","",""
"null","<p style=""font-size: 80px;"">+ 0 points</p>","null","html-keyboard-response","22","330180","0.0-9.0-1.0-2.21","6172e28b7daf23e8e2c744a1","d84u9j","Vss","37","F","{""name"":""Chrome"",""chrome"":true,""version"":""106.0"",""blink"":true,""windows"":true,""osname"":""Windows"",""osversion"":""10"",""a"":true}","9:18:17","0","2","Practice_3","70","j","0","1800.7999999523163","1280 x 720","1280 x 720","true","1","0","","","","",""
"null","<p style=""font-size: 80px;"">+ 0 points</p>","null","html-keyboard-response","23","333245","0.0-9.0-1.0-2.22","6172e28b7daf23e8e2c744a1","d84u9j","Vss","37","F","{""name"":""Chrome"",""chrome"":true,""version"":""106.0"",""blink"":true,""windows"":true,""osname"":""Windows"",""osversion"":""10"",""a"":true}","9:18:17","0","2","Practice_1","70","j","0","1041.2999999523163","1280 x 720","1280 x 720","true","1","0","","","","",""
"null","<p style=""font-size: 80px;"">+ 0 points</p>","null","html-keyboard-response","24","336244","0.0-9.0-1.0-2.23","6172e28b7daf23e8e2c744a1","d84u9j","Vss","37","F","{""name"":""Chrome"",""chrome"":true,""version"":""106.0"",""blink"":true,""windows"":true,""osname"":""Windows"",""osversion"":""10"",""a"":true}","9:18:17","0","2","Practice_1","70","j","0","972.6000000238419","1280 x 720","1280 x 720","true","1","0","","","","",""
"null","<p style=""font-size: 80px;"">+ 10 points</p>","null","html-keyboard-response","25","342159","0.0-9.0-1.0-2.24","6172e28b7daf23e8e2c744a1","d84u9j","Vss","37","F","{""name"":""Chrome"",""chrome"":true,""version"":""106.0"",""blink"":true,""windows"":true,""osname"":""Windows"",""osversion"":""10"",""a"":true}","9:18:17","0","2","Practice_4","70","f","1","3889.7000000476837","1280 x 720","1280 x 720","true","1","10","","","","",""
"null","<p style=""font-size: 80px;"">+ 10 points</p>","null","html-keyboard-response","26","347543","0.0-9.0-1.0-2.25","6172e28b7daf23e8e2c744a1","d84u9j","Vss","37","F","{""name"":""Chrome"",""chrome"":true,""version"":""106.0"",""blink"":true,""windows"":true,""osname"":""Windows"",""osversion"":""10"",""a"":true}","9:18:17","0","2","Practice_2","70","f","1","3350.100000023842","1280 x 720","1280 x 720","true","1","10","","","","",""
"null","<p style=""font-size: 80px;"">+ 10 points</p>","null","html-keyboard-response","27","351525","0.0-9.0-1.0-2.26","6172e28b7daf23e8e2c744a1","d84u9j","Vss","37","F","{""name"":""Chrome"",""chrome"":true,""version"":""106.0"",""blink"":true,""windows"":true,""osname"":""Windows"",""osversion"":""10"",""a"":true}","9:18:17","0","2","Practice_2","70","f","1","1942.7999999523163","1280 x 720","1280 x 720","true","1","10","","","","",""
"null","<p style=""font-size: 80px;"">+ 0 points</p>","null","html-keyboard-response","28","356474","0.0-9.0-1.0-2.27","6172e28b7daf23e8e2c744a1","d84u9j","Vss","37","F","{""name"":""Chrome"",""chrome"":true,""version"":""106.0"",""blink"":true,""windows"":true,""osname"":""Windows"",""osversion"":""10"",""a"":true}","9:18:17","0","2","Practice_4","74","f","0","2915.3000000715256","1280 x 720","1280 x 720","true","1","0","","","","",""
"null","<p style=""font-size: 80px;"">+ 0 points</p>","null","html-keyboard-response","29","359905","0.0-9.0-1.0-2.28","6172e28b7daf23e8e2c744a1","d84u9j","Vss","37","F","{""name"":""Chrome"",""chrome"":true,""version"":""106.0"",""blink"":true,""windows"":true,""osname"":""Windows"",""osversion"":""10"",""a"":true}","9:18:17","0","2","Practice_1","70","j","0","1403.5","1280 x 720","1280 x 720","true","1","0","","","","",""
"null","<p style=""font-size: 80px;"">+ 0 points</p>","null","html-keyboard-response","30","364181","0.0-9.0-1.0-2.29","6172e28b7daf23e8e2c744a1","d84u9j","Vss","37","F","{""name"":""Chrome"",""chrome"":true,""version"":""106.0"",""blink"":true,""windows"":true,""osname"":""Windows"",""osversion"":""10"",""a"":true}","9:18:17","0","2","Practice_3","70","j","0","2244.399999976158","1280 x 720","1280 x 720","true","1","0","","","","",""
"null","<p style=""font-size: 80px;"">+ 10 points</p>","null","html-keyboard-response","31","367463","0.0-9.0-1.0-2.30","6172e28b7daf23e8e2c744a1","d84u9j","Vss","37","F","{""name"":""Chrome"",""chrome"":true,""version"":""106.0"",""blink"":true,""windows"":true,""osname"":""Windows"",""osversion"":""10"",""a"":true}","9:18:17","0","2","Practice_3","74","j","1","1260.1000000238419","1280 x 720","1280 x 720","true","1","10","","","","",""
"null","<p style=""font-size: 80px; line-height: 1.4em;"">Too late</br> Speed up!</p>","null","html-keyboard-response","32","374511","0.0-9.0-1.0-2.31","6172e28b7daf23e8e2c744a1","d84u9j","Vss","37","F","{""name"":""Chrome"",""chrome"":true,""version"":""106.0"",""blink"":true,""windows"":true,""osname"":""Windows"",""osversion"":""10"",""a"":true}","9:18:17","0","2","Practice_1","null","j","0","null","1280 x 720","1280 x 720","true","1","0","","","","",""
"null","<p style=""font-size: 80px;"">+ 10 points</p>","null","html-keyboard-response","33","377894","0.0-9.0-1.0-2.32","6172e28b7daf23e8e2c744a1","d84u9j","Vss","37","F","{""name"":""Chrome"",""chrome"":true,""version"":""106.0"",""blink"":true,""windows"":true,""osname"":""Windows"",""osversion"":""10"",""a"":true}","9:18:17","0","2","Practice_1","74","j","1","1358.6000000238419","1280 x 720","1280 x 720","true","1","10","","","","",""
"null","<p style=""font-size: 80px;"">+ 10 points</p>","null","html-keyboard-response","34","381475","0.0-9.0-1.0-2.33","6172e28b7daf23e8e2c744a1","d84u9j","Vss","37","F","{""name"":""Chrome"",""chrome"":true,""version"":""106.0"",""blink"":true,""windows"":true,""osname"":""Windows"",""osversion"":""10"",""a"":true}","9:18:17","0","2","Practice_2","70","f","1","1538","1280 x 720","1280 x 720","true","1","10","","","","",""
"null","<p style=""font-size: 80px;"">+ 10 points</p>","null","html-keyboard-response","35","385425","0.0-9.0-1.0-2.34","6172e28b7daf23e8e2c744a1","d84u9j","Vss","37","F","{""name"":""Chrome"",""chrome"":true,""version"":""106.0"",""blink"":true,""windows"":true,""osname"":""Windows"",""osversion"":""10"",""a"":true}","9:18:17","0","2","Practice_2","70","f","1","1920.2999999523163","1280 x 720","1280 x 720","true","1","10","","","","",""
"null","<p style=""font-size: 80px;"">+ 0 points</p>","null","html-keyboard-response","36","388237","0.0-9.0-1.0-2.35","6172e28b7daf23e8e2c744a1","d84u9j","Vss","37","F","{""name"":""Chrome"",""chrome"":true,""version"":""106.0"",""blink"":true,""windows"":true,""osname"":""Windows"",""osversion"":""10"",""a"":true}","9:18:17","0","2","Practice_4","74","f","0","775.8999999761581","1280 x 720","1280 x 720","true","1","0","","","","",""
"null","<p style=""font-size: 80px;"">+ 0 points</p>","null","html-keyboard-response","37","391523","0.0-9.0-1.0-2.36","6172e28b7daf23e8e2c744a1","d84u9j","Vss","37","F","{""name"":""Chrome"",""chrome"":true,""version"":""106.0"",""blink"":true,""windows"":true,""osname"":""Windows"",""osversion"":""10"",""a"":true}","9:18:17","0","2","Practice_4","74","f","0","1264.4000000953674","1280 x 720","1280 x 720","true","1","0","","","","",""
"null","<p style=""font-size: 80px;"">+ 0 points</p>","null","html-keyboard-response","38","395126","0.0-9.0-1.0-2.37","6172e28b7daf23e8e2c744a1","d84u9j","Vss","37","F","{""name"":""Chrome"",""chrome"":true,""version"":""106.0"",""blink"":true,""windows"":true,""osname"":""Windows"",""osversion"":""10"",""a"":true}","9:18:17","0","2","Practice_3","70","j","0","1576.6999999284744","1280 x 720","1280 x 720","true","1","0","","","","",""
"null","<p style=""font-size: 80px;"">+ 10 points</p>","null","html-keyboard-response","39","398372","0.0-9.0-1.0-2.38","6172e28b7daf23e8e2c744a1","d84u9j","Vss","37","F","{""name"":""Chrome"",""chrome"":true,""version"":""106.0"",""blink"":true,""windows"":true,""osname"":""Windows"",""osversion"":""10"",""a"":true}","9:18:17","0","2","Practice_3","74","j","1","1219.8000000715256","1280 x 720","1280 x 720","true","1","10","","","","",""
"null","<p style=""font-size: 80px;"">+ 0 points</p>","null","html-keyboard-response","40","403877","0.0-9.0-1.0-2.39","6172e28b7daf23e8e2c744a1","d84u9j","Vss","37","F","{""name"":""Chrome"",""chrome"":true,""version"":""106.0"",""blink"":true,""windows"":true,""osname"":""Windows"",""osversion"":""10"",""a"":true}","9:18:17","0","2","Practice_2","74","f","0","3485.7999999523163","1280 x 720","1280 x 720","true","1","0","","","","",""
"16578.299999952316","","","survey-multi-choice","249","420457","0.0-9.0-2.0","6172e28b7daf23e8e2c744a1","d84u9j","Vss","37","F","{""name"":""Chrome"",""chrome"":true,""version"":""106.0"",""blink"":true,""windows"":true,""osname"":""Windows"",""osversion"":""10"",""a"":true}","9:18:17","","","","","","","","","","","1","","{""Q0"":""The green one"",""Q1"":""5""}","[0,1]","5","The green one","0"
"null","<p style=""font-size: 80px;"">+ 10 points</p>","null","html-keyboard-response","1","437169","0.0-11.0-2.0","6172e28b7daf23e8e2c744a1","d84u9j","Vss","37","F","{""name"":""Chrome"",""chrome"":true,""version"":""106.0"",""blink"":true,""windows"":true,""osname"":""Windows"",""osversion"":""10"",""a"":true}","9:18:17","1","4","Test_3","74","j","1","2056.3000000715256","1280 x 720","1280 x 720","true","1","10","","","","",""
"null","<p style=""font-size: 80px;"">+ 0 points</p>","null","html-keyboard-response","2","440486","0.0-11.0-2.1","6172e28b7daf23e8e2c744a1","d84u9j","Vss","37","F","{""name"":""Chrome"",""chrome"":true,""version"":""106.0"",""blink"":true,""windows"":true,""osname"":""Windows"",""osversion"":""10"",""a"":true}","9:18:17","1","4","Test_4","74","f","0","1294.2000000476837","1280 x 720","1280 x 720","true","1","0","","","","",""
"null","<p style=""font-size: 80px;"">+ 10 points</p>","null","html-keyboard-response","3","444235","0.0-11.0-2.2","6172e28b7daf23e8e2c744a1","d84u9j","Vss","37","F","{""name"":""Chrome"",""chrome"":true,""version"":""106.0"",""blink"":true,""windows"":true,""osname"":""Windows"",""osversion"":""10"",""a"":true}","9:18:17","1","4","Test_3","74","j","1","1732.3999999761581","1280 x 720","1280 x 720","true","1","10","","","","",""
"null","<p style=""font-size: 80px;"">+ 10 points</p>","null","html-keyboard-response","4","447553","0.0-11.0-2.3","6172e28b7daf23e8e2c744a1","d84u9j","Vss","37","F","{""name"":""Chrome"",""chrome"":true,""version"":""106.0"",""blink"":true,""windows"":true,""osname"":""Windows"",""osversion"":""10"",""a"":true}","9:18:17","1","4","Test_4","70","f","1","1291.8000000715256","1280 x 720","1280 x 720","true","1","10","","","","",""
"null","<p style=""font-size: 80px;"">+ 0 points</p>","null","html-keyboard-response","5","451294","0.0-11.0-2.4","6172e28b7daf23e8e2c744a1","d84u9j","Vss","37","F","{""name"":""Chrome"",""chrome"":true,""version"":""106.0"",""blink"":true,""windows"":true,""osname"":""Windows"",""osversion"":""10"",""a"":true}","9:18:17","1","4","Test_1","70","j","0","1728","1280 x 720","1280 x 720","true","1","0","","","","",""
"null","<p style=""font-size: 80px;"">+ 0 points</p>","null","html-keyboard-response","6","455665","0.0-11.0-2.5","6172e28b7daf23e8e2c744a1","d84u9j","Vss","37","F","{""name"":""Chrome"",""chrome"":true,""version"":""106.0"",""blink"":true,""windows"":true,""osname"":""Windows"",""osversion"":""10"",""a"":true}","9:18:17","1","4","Test_1","70","j","0","2347.2000000476837","1280 x 720","1280 x 720","true","1","0","","","","",""
"null","<p style=""font-size: 80px;"">+ 0 points</p>","null","html-keyboard-response","7","458581","0.0-11.0-2.6","6172e28b7daf23e8e2c744a1","d84u9j","Vss","37","F","{""name"":""Chrome"",""chrome"":true,""version"":""106.0"",""blink"":true,""windows"":true,""osname"":""Windows"",""osversion"":""10"",""a"":true}","9:18:17","1","4","Test_4","74","f","0","886.3000000715256","1280 x 720","1280 x 720","true","1","0","","","","",""
"null","<p style=""font-size: 80px;"">+ 10 points</p>","null","html-keyboard-response","8","463880","0.0-11.0-2.7","6172e28b7daf23e8e2c744a1","d84u9j","Vss","37","F","{""name"":""Chrome"",""chrome"":true,""version"":""106.0"",""blink"":true,""windows"":true,""osname"":""Windows"",""osversion"":""10"",""a"":true}","9:18:17","1","4","Test_2","70","f","1","3263.7999999523163","1280 x 720","1280 x 720","true","1","10","","","","",""
"null","<p style=""font-size: 80px;"">+ 10 points</p>","null","html-keyboard-response","9","467943","0.0-11.0-2.8","6172e28b7daf23e8e2c744a1","d84u9j","Vss","37","F","{""name"":""Chrome"",""chrome"":true,""version"":""106.0"",""blink"":true,""windows"":true,""osname"":""Windows"",""osversion"":""10"",""a"":true}","9:18:17","1","4","Test_3","74","j","1","2032.8999999761581","1280 x 720","1280 x 720","true","1","10","","","","",""
"null","<p style=""font-size: 80px;"">+ 10 points</p>","null","html-keyboard-response","10","471144","0.0-11.0-2.9","6172e28b7daf23e8e2c744a1","d84u9j","Vss","37","F","{""name"":""Chrome"",""chrome"":true,""version"":""106.0"",""blink"":true,""windows"":true,""osname"":""Windows"",""osversion"":""10"",""a"":true}","9:18:17","1","4","Test_2","70","f","1","1179.3999999761581","1280 x 720","1280 x 720","true","1","10","","","","",""
"null","<p style=""font-size: 80px;"">+ 10 points</p>","null","html-keyboard-response","11","474112","0.0-11.0-2.10","6172e28b7daf23e8e2c744a1","d84u9j","Vss","37","F","{""name"":""Chrome"",""chrome"":true,""version"":""106.0"",""blink"":true,""windows"":true,""osname"":""Windows"",""osversion"":""10"",""a"":true}","9:18:17","1","4","Test_3","74","j","1","944.0999999046326","1280 x 720","1280 x 720","true","1","10","","","","",""
"null","<p style=""font-size: 80px;"">+ 10 points</p>","null","html-keyboard-response","12","477144","0.0-11.0-2.11","6172e28b7daf23e8e2c744a1","d84u9j","Vss","37","F","{""name"":""Chrome"",""chrome"":true,""version"":""106.0"",""blink"":true,""windows"":true,""osname"":""Windows"",""osversion"":""10"",""a"":true}","9:18:17","1","4","Test_2","70","f","1","999.8000000715256","1280 x 720","1280 x 720","true","1","10","","","","",""
"null","<p style=""font-size: 80px;"">+ 0 points</p>","null","html-keyboard-response","13","482340","0.0-11.0-2.12","6172e28b7daf23e8e2c744a1","d84u9j","Vss","37","F","{""name"":""Chrome"",""chrome"":true,""version"":""106.0"",""blink"":true,""windows"":true,""osname"":""Windows"",""osversion"":""10"",""a"":true}","9:18:17","1","4","Test_4","74","f","0","3185.2000000476837","1280 x 720","1280 x 720","true","1","0","","","","",""
"null","<p style=""font-size: 80px;"">+ 10 points</p>","null","html-keyboard-response","14","485209","0.0-11.0-2.13","6172e28b7daf23e8e2c744a1","d84u9j","Vss","37","F","{""name"":""Chrome"",""chrome"":true,""version"":""106.0"",""blink"":true,""windows"":true,""osname"":""Windows"",""osversion"":""10"",""a"":true}","9:18:17","1","4","Test_2","70","f","1","850","1280 x 720","1280 x 720","true","1","10","","","","",""
"null","<p style=""font-size: 80px;"">+ 10 points</p>","null","html-keyboard-response","15","487942","0.0-11.0-2.14","6172e28b7daf23e8e2c744a1","d84u9j","Vss","37","F","{""name"":""Chrome"",""chrome"":true,""version"":""106.0"",""blink"":true,""windows"":true,""osname"":""Windows"",""osversion"":""10"",""a"":true}","9:18:17","1","4","Test_2","70","f","1","698.6000000238419","1280 x 720","1280 x 720","true","1","10","","","","",""
"null","<p style=""font-size: 80px;"">+ 0 points</p>","null","html-keyboard-response","16","490658","0.0-11.0-2.15","6172e28b7daf23e8e2c744a1","d84u9j","Vss","37","F","{""name"":""Chrome"",""chrome"":true,""version"":""106.0"",""blink"":true,""windows"":true,""osname"":""Windows"",""osversion"":""10"",""a"":true}","9:18:17","1","4","Test_1","70","j","0","686.6000000238419","1280 x 720","1280 x 720","true","1","0","","","","",""
"null","<p style=""font-size: 80px;"">+ 10 points</p>","null","html-keyboard-response","17","493441","0.0-11.0-2.16","6172e28b7daf23e8e2c744a1","d84u9j","Vss","37","F","{""name"":""Chrome"",""chrome"":true,""version"":""106.0"",""blink"":true,""windows"":true,""osname"":""Windows"",""osversion"":""10"",""a"":true}","9:18:17","1","4","Test_3","74","j","1","757.8999999761581","1280 x 720","1280 x 720","true","1","10","","","","",""
"null","<p style=""font-size: 80px;"">+ 0 points</p>","null","html-keyboard-response","18","496603","0.0-11.0-2.17","6172e28b7daf23e8e2c744a1","d84u9j","Vss","37","F","{""name"":""Chrome"",""chrome"":true,""version"":""106.0"",""blink"":true,""windows"":true,""osname"":""Windows"",""osversion"":""10"",""a"":true}","9:18:17","1","3","Test_2","70","j","0","1145.3999999761581","1280 x 720","1280 x 720","true","1","0","","","","",""
"null","<p style=""font-size: 80px;"">+ 10 points</p>","null","html-keyboard-response","19","499556","0.0-11.0-2.18","6172e28b7daf23e8e2c744a1","d84u9j","Vss","37","F","{""name"":""Chrome"",""chrome"":true,""version"":""106.0"",""blink"":true,""windows"":true,""osname"":""Windows"",""osversion"":""10"",""a"":true}","9:18:17","1","3","Test_4","74","j","1","929.2000000476837","1280 x 720","1280 x 720","true","1","10","","","","",""
"null","<p style=""font-size: 80px;"">+ 0 points</p>","null","html-keyboard-response","20","503339","0.0-11.0-2.19","6172e28b7daf23e8e2c744a1","d84u9j","Vss","37","F","{""name"":""Chrome"",""chrome"":true,""version"":""106.0"",""blink"":true,""windows"":true,""osname"":""Windows"",""osversion"":""10"",""a"":true}","9:18:17","1","3","Test_3","74","f","0","1758.9000000953674","1280 x 720","1280 x 720","true","1","0","","","","",""
"null","<p style=""font-size: 80px;"">+ 10 points</p>","null","html-keyboard-response","21","506505","0.0-11.0-2.20","6172e28b7daf23e8e2c744a1","d84u9j","Vss","37","F","{""name"":""Chrome"",""chrome"":true,""version"":""106.0"",""blink"":true,""windows"":true,""osname"":""Windows"",""osversion"":""10"",""a"":true}","9:18:17","1","3","Test_1","70","f","1","1134","1280 x 720","1280 x 720","true","1","10","","","","",""
"null","<p style=""font-size: 80px;"">+ 10 points</p>","null","html-keyboard-response","22","510537","0.0-11.0-2.21","6172e28b7daf23e8e2c744a1","d84u9j","Vss","37","F","{""name"":""Chrome"",""chrome"":true,""version"":""106.0"",""blink"":true,""windows"":true,""osname"":""Windows"",""osversion"":""10"",""a"":true}","9:18:17","1","3","Test_4","74","j","1","2006.1000000238419","1280 x 720","1280 x 720","true","1","10","","","","",""
"null","<p style=""font-size: 80px;"">+ 10 points</p>","null","html-keyboard-response","23","513236","0.0-11.0-2.22","6172e28b7daf23e8e2c744a1","d84u9j","Vss","37","F","{""name"":""Chrome"",""chrome"":true,""version"":""106.0"",""blink"":true,""windows"":true,""osname"":""Windows"",""osversion"":""10"",""a"":true}","9:18:17","1","3","Test_3","70","f","1","664","1280 x 720","1280 x 720","true","1","10","","","","",""
"null","<p style=""font-size: 80px;"">+ 10 points</p>","null","html-keyboard-response","24","516469","0.0-11.0-2.23","6172e28b7daf23e8e2c744a1","d84u9j","Vss","37","F","{""name"":""Chrome"",""chrome"":true,""version"":""106.0"",""blink"":true,""windows"":true,""osname"":""Windows"",""osversion"":""10"",""a"":true}","9:18:17","1","3","Test_2","74","j","1","1211.8000000715256","1280 x 720","1280 x 720","true","1","10","","","","",""
"null","<p style=""font-size: 80px;"">+ 10 points</p>","null","html-keyboard-response","25","519767","0.0-11.0-2.24","6172e28b7daf23e8e2c744a1","d84u9j","Vss","37","F","{""name"":""Chrome"",""chrome"":true,""version"":""106.0"",""blink"":true,""windows"":true,""osname"":""Windows"",""osversion"":""10"",""a"":true}","9:18:17","1","3","Test_2","74","j","1","1270.5","1280 x 720","1280 x 720","true","1","10","","","","",""
"null","<p style=""font-size: 80px;"">+ 10 points</p>","null","html-keyboard-response","26","522434","0.0-11.0-2.25","6172e28b7daf23e8e2c744a1","d84u9j","Vss","37","F","{""name"":""Chrome"",""chrome"":true,""version"":""106.0"",""blink"":true,""windows"":true,""osname"":""Windows"",""osversion"":""10"",""a"":true}","9:18:17","1","3","Test_1","70","f","1","650.3000000715256","1280 x 720","1280 x 720","true","1","10","","","","",""
"null","<p style=""font-size: 80px;"">+ 10 points</p>","null","html-keyboard-response","27","525100","0.0-11.0-2.26","6172e28b7daf23e8e2c744a1","d84u9j","Vss","37","F","{""name"":""Chrome"",""chrome"":true,""version"":""106.0"",""blink"":true,""windows"":true,""osname"":""Windows"",""osversion"":""10"",""a"":true}","9:18:17","1","3","Test_1","70","f","1","653.5","1280 x 720","1280 x 720","true","1","10","","","","",""
"null","<p style=""font-size: 80px;"">+ 0 points</p>","null","html-keyboard-response","28","527829","0.0-11.0-2.27","6172e28b7daf23e8e2c744a1","d84u9j","Vss","37","F","{""name"":""Chrome"",""chrome"":true,""version"":""106.0"",""blink"":true,""windows"":true,""osname"":""Windows"",""osversion"":""10"",""a"":true}","9:18:17","1","3","Test_2","70","j","0","697.6000000238419","1280 x 720","1280 x 720","true","1","0","","","","",""
"null","<p style=""font-size: 80px;"">+ 0 points</p>","null","html-keyboard-response","29","532314","0.0-11.0-2.28","6172e28b7daf23e8e2c744a1","d84u9j","Vss","37","F","{""name"":""Chrome"",""chrome"":true,""version"":""106.0"",""blink"":true,""windows"":true,""osname"":""Windows"",""osversion"":""10"",""a"":true}","9:18:17","1","3","Test_3","74","f","0","2455.7000000476837","1280 x 720","1280 x 720","true","1","0","","","","",""
"null","<p style=""font-size: 80px;"">+ 10 points</p>","null","html-keyboard-response","30","535314","0.0-11.0-2.29","6172e28b7daf23e8e2c744a1","d84u9j","Vss","37","F","{""name"":""Chrome"",""chrome"":true,""version"":""106.0"",""blink"":true,""windows"":true,""osname"":""Windows"",""osversion"":""10"",""a"":true}","9:18:17","1","3","Test_4","74","j","1","979.2999999523163","1280 x 720","1280 x 720","true","1","10","","","","",""
"null","<p style=""font-size: 80px;"">+ 10 points</p>","null","html-keyboard-response","31","538580","0.0-11.0-2.30","6172e28b7daf23e8e2c744a1","d84u9j","Vss","37","F","{""name"":""Chrome"",""chrome"":true,""version"":""106.0"",""blink"":true,""windows"":true,""osname"":""Windows"",""osversion"":""10"",""a"":true}","9:18:17","1","3","Test_2","74","j","1","1230.1000000238419","1280 x 720","1280 x 720","true","1","10","","","","",""
"null","<p style=""font-size: 80px;"">+ 10 points</p>","null","html-keyboard-response","32","543662","0.0-11.0-2.31","6172e28b7daf23e8e2c744a1","d84u9j","Vss","37","F","{""name"":""Chrome"",""chrome"":true,""version"":""106.0"",""blink"":true,""windows"":true,""osname"":""Windows"",""osversion"":""10"",""a"":true}","9:18:17","1","3","Test_4","74","j","1","3048.6999999284744","1280 x 720","1280 x 720","true","1","10","","","","",""
"null","<p style=""font-size: 80px;"">+ 10 points</p>","null","html-keyboard-response","33","546466","0.0-11.0-2.32","6172e28b7daf23e8e2c744a1","d84u9j","Vss","37","F","{""name"":""Chrome"",""chrome"":true,""version"":""106.0"",""blink"":true,""windows"":true,""osname"":""Windows"",""osversion"":""10"",""a"":true}","9:18:17","1","3","Test_3","70","f","1","776.7999999523163","1280 x 720","1280 x 720","true","1","10","","","","",""
"null","<p style=""font-size: 80px;"">+ 10 points</p>","null","html-keyboard-response","34","549811","0.0-11.0-2.33","6172e28b7daf23e8e2c744a1","d84u9j","Vss","37","F","{""name"":""Chrome"",""chrome"":true,""version"":""106.0"",""blink"":true,""windows"":true,""osname"":""Windows"",""osversion"":""10"",""a"":true}","9:18:17","1","3","Test_1","70","f","1","1316.7999999523163","1280 x 720","1280 x 720","true","1","10","","","","",""
"null","<p style=""font-size: 80px;"">+ 10 points</p>","null","html-keyboard-response","35","552952","0.0-11.0-2.34","6172e28b7daf23e8e2c744a1","d84u9j","Vss","37","F","{""name"":""Chrome"",""chrome"":true,""version"":""106.0"",""blink"":true,""windows"":true,""osname"":""Windows"",""osversion"":""10"",""a"":true}","9:18:17","1","3","Test_2","74","j","1","1112.7999999523163","1280 x 720","1280 x 720","true","1","10","","","","",""
"null","<p style=""font-size: 80px;"">+ 10 points</p>","null","html-keyboard-response","36","555993","0.0-11.0-2.35","6172e28b7daf23e8e2c744a1","d84u9j","Vss","37","F","{""name"":""Chrome"",""chrome"":true,""version"":""106.0"",""blink"":true,""windows"":true,""osname"":""Windows"",""osversion"":""10"",""a"":true}","9:18:17","1","3","Test_4","74","j","1","1016","1280 x 720","1280 x 720","true","1","10","","","","",""
"null","<p style=""font-size: 80px;"">+ 10 points</p>","null","html-keyboard-response","37","560241","0.0-11.0-2.36","6172e28b7daf23e8e2c744a1","d84u9j","Vss","37","F","{""name"":""Chrome"",""chrome"":true,""version"":""106.0"",""blink"":true,""windows"":true,""osname"":""Windows"",""osversion"":""10"",""a"":true}","9:18:17","1","3","Test_3","70","f","1","2217.7000000476837","1280 x 720","1280 x 720","true","1","10","","","","",""
"null","<p style=""font-size: 80px;"">+ 10 points</p>","null","html-keyboard-response","38","563112","0.0-11.0-2.37","6172e28b7daf23e8e2c744a1","d84u9j","Vss","37","F","{""name"":""Chrome"",""chrome"":true,""version"":""106.0"",""blink"":true,""windows"":true,""osname"":""Windows"",""osversion"":""10"",""a"":true}","9:18:17","1","3","Test_3","70","f","1","837.5","1280 x 720","1280 x 720","true","1","10","","","","",""
"null","<p style=""font-size: 80px;"">+ 10 points</p>","null","html-keyboard-response","39","566094","0.0-11.0-2.38","6172e28b7daf23e8e2c744a1","d84u9j","Vss","37","F","{""name"":""Chrome"",""chrome"":true,""version"":""106.0"",""blink"":true,""windows"":true,""osname"":""Windows"",""osversion"":""10"",""a"":true}","9:18:17","1","3","Test_1","70","f","1","960.5","1280 x 720","1280 x 720","true","1","10","","","","",""
"null","<p style=""font-size: 80px;"">+ 0 points</p>","null","html-keyboard-response","40","569266","0.0-11.0-2.39","6172e28b7daf23e8e2c744a1","d84u9j","Vss","37","F","{""name"":""Chrome"",""chrome"":true,""version"":""106.0"",""blink"":true,""windows"":true,""osname"":""Windows"",""osversion"":""10"",""a"":true}","9:18:17","1","4","Test_3","70","j","0","1141.7999999523163","1280 x 720","1280 x 720","true","1","0","","","","",""
"null","<p style=""font-size: 80px;"">+ 10 points</p>","null","html-keyboard-response","41","573505","0.0-11.0-2.40","6172e28b7daf23e8e2c744a1","d84u9j","Vss","37","F","{""name"":""Chrome"",""chrome"":true,""version"":""106.0"",""blink"":true,""windows"":true,""osname"":""Windows"",""osversion"":""10"",""a"":true}","9:18:17","1","4","Test_2","70","f","1","2214.7000000476837","1280 x 720","1280 x 720","true","1","10","","","","",""
"null","<p style=""font-size: 80px;"">+ 10 points</p>","null","html-keyboard-response","42","576422","0.0-11.0-2.41","6172e28b7daf23e8e2c744a1","d84u9j","Vss","37","F","{""name"":""Chrome"",""chrome"":true,""version"":""106.0"",""blink"":true,""windows"":true,""osname"":""Windows"",""osversion"":""10"",""a"":true}","9:18:17","1","4","Test_1","74","j","1","881","1280 x 720","1280 x 720","true","1","10","","","","",""
"null","<p style=""font-size: 80px;"">+ 0 points</p>","null","html-keyboard-response","43","579822","0.0-11.0-2.42","6172e28b7daf23e8e2c744a1","d84u9j","Vss","37","F","{""name"":""Chrome"",""chrome"":true,""version"":""106.0"",""blink"":true,""windows"":true,""osname"":""Windows"",""osversion"":""10"",""a"":true}","9:18:17","1","4","Test_2","74","f","0","1375.8999999761581","1280 x 720","1280 x 720","true","1","0","","","","",""
"null","<p style=""font-size: 80px;"">+ 10 points</p>","null","html-keyboard-response","44","583638","0.0-11.0-2.43","6172e28b7daf23e8e2c744a1","d84u9j","Vss","37","F","{""name"":""Chrome"",""chrome"":true,""version"":""106.0"",""blink"":true,""windows"":true,""osname"":""Windows"",""osversion"":""10"",""a"":true}","9:18:17","1","4","Test_1","74","j","1","1788.6000000238419","1280 x 720","1280 x 720","true","1","10","","","","",""
"null","<p style=""font-size: 80px;"">+ 10 points</p>","null","html-keyboard-response","45","586986","0.0-11.0-2.44","6172e28b7daf23e8e2c744a1","d84u9j","Vss","37","F","{""name"":""Chrome"",""chrome"":true,""version"":""106.0"",""blink"":true,""windows"":true,""osname"":""Windows"",""osversion"":""10"",""a"":true}","9:18:17","1","4","Test_3","74","j","1","1325.1000000238419","1280 x 720","1280 x 720","true","1","10","","","","",""
"null","<p style=""font-size: 80px;"">+ 10 points</p>","null","html-keyboard-response","46","590369","0.0-11.0-2.45","6172e28b7daf23e8e2c744a1","d84u9j","Vss","37","F","{""name"":""Chrome"",""chrome"":true,""version"":""106.0"",""blink"":true,""windows"":true,""osname"":""Windows"",""osversion"":""10"",""a"":true}","9:18:17","1","4","Test_2","70","f","1","1344.3999999761581","1280 x 720","1280 x 720","true","1","10","","","","",""
"null","<p style=""font-size: 80px;"">+ 10 points</p>","null","html-keyboard-response","47","593569","0.0-11.0-2.46","6172e28b7daf23e8e2c744a1","d84u9j","Vss","37","F","{""name"":""Chrome"",""chrome"":true,""version"":""106.0"",""blink"":true,""windows"":true,""osname"":""Windows"",""osversion"":""10"",""a"":true}","9:18:17","1","4","Test_2","70","f","1","1170.3000000715256","1280 x 720","1280 x 720","true","1","10","","","","",""
"null","<p style=""font-size: 80px; line-height: 1.4em;"">Too late</br> Speed up!</p>","null","html-keyboard-response","48","600600","0.0-11.0-2.47","6172e28b7daf23e8e2c744a1","d84u9j","Vss","37","F","{""name"":""Chrome"",""chrome"":true,""version"":""106.0"",""blink"":true,""windows"":true,""osname"":""Windows"",""osversion"":""10"",""a"":true}","9:18:17","1","4","Test_1","null","j","0","null","1280 x 720","1280 x 720","true","1","0","","","","",""
"null","<p style=""font-size: 80px;"">+ 0 points</p>","null","html-keyboard-response","49","605800","0.0-11.0-2.48","6172e28b7daf23e8e2c744a1","d84u9j","Vss","37","F","{""name"":""Chrome"",""chrome"":true,""version"":""106.0"",""blink"":true,""windows"":true,""osname"":""Windows"",""osversion"":""10"",""a"":true}","9:18:17","1","4","Test_3","70","j","0","3177.600000023842","1280 x 720","1280 x 720","true","1","0","","","","",""
"null","<p style=""font-size: 80px;"">+ 10 points</p>","null","html-keyboard-response","50","610864","0.0-11.0-2.49","6172e28b7daf23e8e2c744a1","d84u9j","Vss","37","F","{""name"":""Chrome"",""chrome"":true,""version"":""106.0"",""blink"":true,""windows"":true,""osname"":""Windows"",""osversion"":""10"",""a"":true}","9:18:17","1","4","Test_4","70","f","1","3034.8000000715256","1280 x 720","1280 x 720","true","1","10","","","","",""
"null","<p style=""font-size: 80px;"">+ 10 points</p>","null","html-keyboard-response","51","615034","0.0-11.0-2.50","6172e28b7daf23e8e2c744a1","d84u9j","Vss","37","F","{""name"":""Chrome"",""chrome"":true,""version"":""106.0"",""blink"":true,""windows"":true,""osname"":""Windows"",""osversion"":""10"",""a"":true}","9:18:17","1","4","Test_4","70","f","1","2148.3000000715256","1280 x 720","1280 x 720","true","1","10","","","","",""
"null","<p style=""font-size: 80px;"">+ 10 points</p>","null","html-keyboard-response","52","619232","0.0-11.0-2.51","6172e28b7daf23e8e2c744a1","d84u9j","Vss","37","F","{""name"":""Chrome"",""chrome"":true,""version"":""106.0"",""blink"":true,""windows"":true,""osname"":""Windows"",""osversion"":""10"",""a"":true}","9:18:17","1","4","Test_1","74","j","1","2174.2000000476837","1280 x 720","1280 x 720","true","1","10","","","","",""
"null","<p style=""font-size: 80px;"">+ 10 points</p>","null","html-keyboard-response","53","622483","0.0-11.0-2.52","6172e28b7daf23e8e2c744a1","d84u9j","Vss","37","F","{""name"":""Chrome"",""chrome"":true,""version"":""106.0"",""blink"":true,""windows"":true,""osname"":""Windows"",""osversion"":""10"",""a"":true}","9:18:17","1","4","Test_4","70","f","1","1230.3999999761581","1280 x 720","1280 x 720","true","1","10","","","","",""
"null","<p style=""font-size: 80px;"">+ 0 points</p>","null","html-keyboard-response","54","625728","0.0-11.0-2.53","6172e28b7daf23e8e2c744a1","d84u9j","Vss","37","F","{""name"":""Chrome"",""chrome"":true,""version"":""106.0"",""blink"":true,""windows"":true,""osname"":""Windows"",""osversion"":""10"",""a"":true}","9:18:17","1","4","Test_3","70","j","0","1211","1280 x 720","1280 x 720","true","1","0","","","","",""
"null","<p style=""font-size: 80px;"">+ 10 points</p>","null","html-keyboard-response","55","628615","0.0-11.0-2.54","6172e28b7daf23e8e2c744a1","d84u9j","Vss","37","F","{""name"":""Chrome"",""chrome"":true,""version"":""106.0"",""blink"":true,""windows"":true,""osname"":""Windows"",""osversion"":""10"",""a"":true}","9:18:17","1","3","Test_2","74","j","1","852.6000000238419","1280 x 720","1280 x 720","true","1","10","","","","",""
"null","<p style=""font-size: 80px;"">+ 10 points</p>","null","html-keyboard-response","56","631214","0.0-11.0-2.55","6172e28b7daf23e8e2c744a1","d84u9j","Vss","37","F","{""name"":""Chrome"",""chrome"":true,""version"":""106.0"",""blink"":true,""windows"":true,""osname"":""Windows"",""osversion"":""10"",""a"":true}","9:18:17","1","3","Test_2","74","j","1","575.2000000476837","1280 x 720","1280 x 720","true","1","10","","","","",""
"null","<p style=""font-size: 80px;"">+ 10 points</p>","null","html-keyboard-response","57","634296","0.0-11.0-2.56","6172e28b7daf23e8e2c744a1","d84u9j","Vss","37","F","{""name"":""Chrome"",""chrome"":true,""version"":""106.0"",""blink"":true,""windows"":true,""osname"":""Windows"",""osversion"":""10"",""a"":true}","9:18:17","1","3","Test_3","70","f","1","1051.2000000476837","1280 x 720","1280 x 720","true","1","10","","","","",""
"null","<p style=""font-size: 80px;"">+ 0 points</p>","null","html-keyboard-response","58","637428","0.0-11.0-2.57","6172e28b7daf23e8e2c744a1","d84u9j","Vss","37","F","{""name"":""Chrome"",""chrome"":true,""version"":""106.0"",""blink"":true,""windows"":true,""osname"":""Windows"",""osversion"":""10"",""a"":true}","9:18:17","1","3","Test_3","74","f","0","1096.7999999523163","1280 x 720","1280 x 720","true","1","0","","","","",""
"null","<p style=""font-size: 80px;"">+ 10 points</p>","null","html-keyboard-response","59","640912","0.0-11.0-2.58","6172e28b7daf23e8e2c744a1","d84u9j","Vss","37","F","{""name"":""Chrome"",""chrome"":true,""version"":""106.0"",""blink"":true,""windows"":true,""osname"":""Windows"",""osversion"":""10"",""a"":true}","9:18:17","1","3","Test_4","74","j","1","1461.5","1280 x 720","1280 x 720","true","1","10","","","","",""
"null","<p style=""font-size: 80px;"">+ 10 points</p>","null","html-keyboard-response","60","644161","0.0-11.0-2.59","6172e28b7daf23e8e2c744a1","d84u9j","Vss","37","F","{""name"":""Chrome"",""chrome"":true,""version"":""106.0"",""blink"":true,""windows"":true,""osname"":""Windows"",""osversion"":""10"",""a"":true}","9:18:17","1","3","Test_2","74","j","1","1209.1000000238419","1280 x 720","1280 x 720","true","1","10","","","","",""
"null","<p style=""font-size: 80px;"">+ 10 points</p>","null","html-keyboard-response","61","647170","0.0-11.0-2.60","6172e28b7daf23e8e2c744a1","d84u9j","Vss","37","F","{""name"":""Chrome"",""chrome"":true,""version"":""106.0"",""blink"":true,""windows"":true,""osname"":""Windows"",""osversion"":""10"",""a"":true}","9:18:17","1","3","Test_3","70","f","1","986.1000000238419","1280 x 720","1280 x 720","true","1","10","","","","",""
"null","<p style=""font-size: 80px;"">+ 10 points</p>","null","html-keyboard-response","62","651017","0.0-11.0-2.61","6172e28b7daf23e8e2c744a1","d84u9j","Vss","37","F","{""name"":""Chrome"",""chrome"":true,""version"":""106.0"",""blink"":true,""windows"":true,""osname"":""Windows"",""osversion"":""10"",""a"":true}","9:18:17","1","3","Test_3","70","f","1","1825","1280 x 720","1280 x 720","true","1","10","","","","",""
"null","<p style=""font-size: 80px;"">+ 10 points</p>","null","html-keyboard-response","63","654191","0.0-11.0-2.62","6172e28b7daf23e8e2c744a1","d84u9j","Vss","37","F","{""name"":""Chrome"",""chrome"":true,""version"":""106.0"",""blink"":true,""windows"":true,""osname"":""Windows"",""osversion"":""10"",""a"":true}","9:18:17","1","3","Test_1","70","f","1","1146","1280 x 720","1280 x 720","true","1","10","","","","",""
"null","<p style=""font-size: 80px;"">+ 0 points</p>","null","html-keyboard-response","64","656877","0.0-11.0-2.63","6172e28b7daf23e8e2c744a1","d84u9j","Vss","37","F","{""name"":""Chrome"",""chrome"":true,""version"":""106.0"",""blink"":true,""windows"":true,""osname"":""Windows"",""osversion"":""10"",""a"":true}","9:18:17","1","3","Test_2","70","j","0","673.1999999284744","1280 x 720","1280 x 720","true","1","0","","","","",""
"null","<p style=""font-size: 80px;"">+ 10 points</p>","null","html-keyboard-response","65","659635","0.0-11.0-2.64","6172e28b7daf23e8e2c744a1","d84u9j","Vss","37","F","{""name"":""Chrome"",""chrome"":true,""version"":""106.0"",""blink"":true,""windows"":true,""osname"":""Windows"",""osversion"":""10"",""a"":true}","9:18:17","1","3","Test_4","74","j","1","734.0999999046326","1280 x 720","1280 x 720","true","1","10","","","","",""
"null","<p style=""font-size: 80px;"">+ 10 points</p>","null","html-keyboard-response","66","663106","0.0-11.0-2.65","6172e28b7daf23e8e2c744a1","d84u9j","Vss","37","F","{""name"":""Chrome"",""chrome"":true,""version"":""106.0"",""blink"":true,""windows"":true,""osname"":""Windows"",""osversion"":""10"",""a"":true}","9:18:17","1","3","Test_3","70","f","1","1442.2000000476837","1280 x 720","1280 x 720","true","1","10","","","","",""
"null","<p style=""font-size: 80px;"">+ 10 points</p>","null","html-keyboard-response","67","668438","0.0-11.0-2.66","6172e28b7daf23e8e2c744a1","d84u9j","Vss","37","F","{""name"":""Chrome"",""chrome"":true,""version"":""106.0"",""blink"":true,""windows"":true,""osname"":""Windows"",""osversion"":""10"",""a"":true}","9:18:17","1","3","Test_2","74","j","1","3299.1999999284744","1280 x 720","1280 x 720","true","1","10","","","","",""
"null","<p style=""font-size: 80px;"">+ 10 points</p>","null","html-keyboard-response","68","671354","0.0-11.0-2.67","6172e28b7daf23e8e2c744a1","d84u9j","Vss","37","F","{""name"":""Chrome"",""chrome"":true,""version"":""106.0"",""blink"":true,""windows"":true,""osname"":""Windows"",""osversion"":""10"",""a"":true}","9:18:17","1","3","Test_3","70","f","1","887.1000000238419","1280 x 720","1280 x 720","true","1","10","","","","",""
"null","<p style=""font-size: 80px;"">+ 10 points</p>","null","html-keyboard-response","69","674268","0.0-11.0-2.68","6172e28b7daf23e8e2c744a1","d84u9j","Vss","37","F","{""name"":""Chrome"",""chrome"":true,""version"":""106.0"",""blink"":true,""windows"":true,""osname"":""Windows"",""osversion"":""10"",""a"":true}","9:18:17","1","3","Test_4","74","j","1","873.0999999046326","1280 x 720","1280 x 720","true","1","10","","","","",""
"null","<p style=""font-size: 80px;"">+ 10 points</p>","null","html-keyboard-response","70","677933","0.0-11.0-2.69","6172e28b7daf23e8e2c744a1","d84u9j","Vss","37","F","{""name"":""Chrome"",""chrome"":true,""version"":""106.0"",""blink"":true,""windows"":true,""osname"":""Windows"",""osversion"":""10"",""a"":true}","9:18:17","1","3","Test_1","70","f","1","1638","1280 x 720","1280 x 720","true","1","10","","","","",""
"null","<p style=""font-size: 80px;"">+ 10 points</p>","null","html-keyboard-response","71","681051","0.0-11.0-2.70","6172e28b7daf23e8e2c744a1","d84u9j","Vss","37","F","{""name"":""Chrome"",""chrome"":true,""version"":""106.0"",""blink"":true,""windows"":true,""osname"":""Windows"",""osversion"":""10"",""a"":true}","9:18:17","1","3","Test_1","70","f","1","1084.8999999761581","1280 x 720","1280 x 720","true","1","10","","","","",""
"null","<p style=""font-size: 80px;"">+ 10 points</p>","null","html-keyboard-response","72","683899","0.0-11.0-2.71","6172e28b7daf23e8e2c744a1","d84u9j","Vss","37","F","{""name"":""Chrome"",""chrome"":true,""version"":""106.0"",""blink"":true,""windows"":true,""osname"":""Windows"",""osversion"":""10"",""a"":true}","9:18:17","1","3","Test_4","74","j","1","818.3999999761581","1280 x 720","1280 x 720","true","1","10","","","","",""
"null","<p style=""font-size: 80px;"">+ 10 points</p>","null","html-keyboard-response","73","687864","0.0-11.0-2.72","6172e28b7daf23e8e2c744a1","d84u9j","Vss","37","F","{""name"":""Chrome"",""chrome"":true,""version"":""106.0"",""blink"":true,""windows"":true,""osname"":""Windows"",""osversion"":""10"",""a"":true}","9:18:17","1","3","Test_2","74","j","1","1936.1999999284744","1280 x 720","1280 x 720","true","1","10","","","","",""
"null","<p style=""font-size: 80px;"">+ 10 points</p>","null","html-keyboard-response","74","691565","0.0-11.0-2.73","6172e28b7daf23e8e2c744a1","d84u9j","Vss","37","F","{""name"":""Chrome"",""chrome"":true,""version"":""106.0"",""blink"":true,""windows"":true,""osname"":""Windows"",""osversion"":""10"",""a"":true}","9:18:17","1","3","Test_1","70","f","1","1672.1999999284744","1280 x 720","1280 x 720","true","1","10","","","","",""
"null","<p style=""font-size: 80px;"">+ 10 points</p>","null","html-keyboard-response","75","694298","0.0-11.0-2.74","6172e28b7daf23e8e2c744a1","d84u9j","Vss","37","F","{""name"":""Chrome"",""chrome"":true,""version"":""106.0"",""blink"":true,""windows"":true,""osname"":""Windows"",""osversion"":""10"",""a"":true}","9:18:17","1","3","Test_1","70","f","1","717","1280 x 720","1280 x 720","true","1","10","","","","",""
"null","<p style=""font-size: 80px;"">+ 10 points</p>","null","html-keyboard-response","76","697346","0.0-11.0-2.75","6172e28b7daf23e8e2c744a1","d84u9j","Vss","37","F","{""name"":""Chrome"",""chrome"":true,""version"":""106.0"",""blink"":true,""windows"":true,""osname"":""Windows"",""osversion"":""10"",""a"":true}","9:18:17","1","3","Test_4","74","j","1","1021.6000000238419","1280 x 720","1280 x 720","true","1","10","","","","",""
"null","<p style=""font-size: 80px;"">+ 10 points</p>","null","html-keyboard-response","77","700446","0.0-11.0-2.76","6172e28b7daf23e8e2c744a1","d84u9j","Vss","37","F","{""name"":""Chrome"",""chrome"":true,""version"":""106.0"",""blink"":true,""windows"":true,""osname"":""Windows"",""osversion"":""10"",""a"":true}","9:18:17","1","3","Test_1","70","f","1","1073.3000000715256","1280 x 720","1280 x 720","true","1","10","","","","",""
"null","<p style=""font-size: 80px;"">+ 0 points</p>","null","html-keyboard-response","78","703274","0.0-11.0-2.77","6172e28b7daf23e8e2c744a1","d84u9j","Vss","37","F","{""name"":""Chrome"",""chrome"":true,""version"":""106.0"",""blink"":true,""windows"":true,""osname"":""Windows"",""osversion"":""10"",""a"":true}","9:18:17","1","4","Test_1","70","j","0","796.3000000715256","1280 x 720","1280 x 720","true","1","0","","","","",""
"null","<p style=""font-size: 80px;"">+ 0 points</p>","null","html-keyboard-response","79","706042","0.0-11.0-2.78","6172e28b7daf23e8e2c744a1","d84u9j","Vss","37","F","{""name"":""Chrome"",""chrome"":true,""version"":""106.0"",""blink"":true,""windows"":true,""osname"":""Windows"",""osversion"":""10"",""a"":true}","9:18:17","1","4","Test_3","70","j","0","752","1280 x 720","1280 x 720","true","1","0","","","","",""
"null","<p style=""font-size: 80px;"">+ 10 points</p>","null","html-keyboard-response","80","709344","0.0-11.0-2.79","6172e28b7daf23e8e2c744a1","d84u9j","Vss","37","F","{""name"":""Chrome"",""chrome"":true,""version"":""106.0"",""blink"":true,""windows"":true,""osname"":""Windows"",""osversion"":""10"",""a"":true}","9:18:17","1","4","Test_2","70","f","1","1271.8999999761581","1280 x 720","1280 x 720","true","1","10","","","","",""
"null","<p style=""font-size: 80px;"">+ 10 points</p>","null","html-keyboard-response","81","712460","0.0-11.0-2.80","6172e28b7daf23e8e2c744a1","d84u9j","Vss","37","F","{""name"":""Chrome"",""chrome"":true,""version"":""106.0"",""blink"":true,""windows"":true,""osname"":""Windows"",""osversion"":""10"",""a"":true}","9:18:17","1","4","Test_1","74","j","1","1085.7999999523163","1280 x 720","1280 x 720","true","1","10","","","","",""
"null","<p style=""font-size: 80px;"">+ 0 points</p>","null","html-keyboard-response","82","716975","0.0-11.0-2.81","6172e28b7daf23e8e2c744a1","d84u9j","Vss","37","F","{""name"":""Chrome"",""chrome"":true,""version"":""106.0"",""blink"":true,""windows"":true,""osname"":""Windows"",""osversion"":""10"",""a"":true}","9:18:17","1","4","Test_1","70","j","0","2500.2000000476837","1280 x 720","1280 x 720","true","1","0","","","","",""
"null","<p style=""font-size: 80px;"">+ 10 points</p>","null","html-keyboard-response","83","719652","0.0-11.0-2.82","6172e28b7daf23e8e2c744a1","d84u9j","Vss","37","F","{""name"":""Chrome"",""chrome"":true,""version"":""106.0"",""blink"":true,""windows"":true,""osname"":""Windows"",""osversion"":""10"",""a"":true}","9:18:17","1","4","Test_2","70","f","1","646.9000000953674","1280 x 720","1280 x 720","true","1","10","","","","",""
"null","<p style=""font-size: 80px;"">+ 10 points</p>","null","html-keyboard-response","84","724259","0.0-11.0-2.83","6172e28b7daf23e8e2c744a1","d84u9j","Vss","37","F","{""name"":""Chrome"",""chrome"":true,""version"":""106.0"",""blink"":true,""windows"":true,""osname"":""Windows"",""osversion"":""10"",""a"":true}","9:18:17","1","4","Test_3","74","j","1","2590.600000023842","1280 x 720","1280 x 720","true","1","10","","","","",""
"null","<p style=""font-size: 80px;"">+ 10 points</p>","null","html-keyboard-response","85","727340","0.0-11.0-2.84","6172e28b7daf23e8e2c744a1","d84u9j","Vss","37","F","{""name"":""Chrome"",""chrome"":true,""version"":""106.0"",""blink"":true,""windows"":true,""osname"":""Windows"",""osversion"":""10"",""a"":true}","9:18:17","1","4","Test_4","70","f","1","1045.5","1280 x 720","1280 x 720","true","1","10","","","","",""
"null","<p style=""font-size: 80px;"">+ 0 points</p>","null","html-keyboard-response","86","733520","0.0-11.0-2.85","6172e28b7daf23e8e2c744a1","d84u9j","Vss","37","F","{""name"":""Chrome"",""chrome"":true,""version"":""106.0"",""blink"":true,""windows"":true,""osname"":""Windows"",""osversion"":""10"",""a"":true}","9:18:17","1","4","Test_4","74","f","0","4158.800000071526","1280 x 720","1280 x 720","true","1","0","","","","",""
"null","<p style=""font-size: 80px;"">+ 0 points</p>","null","html-keyboard-response","87","736753","0.0-11.0-2.86","6172e28b7daf23e8e2c744a1","d84u9j","Vss","37","F","{""name"":""Chrome"",""chrome"":true,""version"":""106.0"",""blink"":true,""windows"":true,""osname"":""Windows"",""osversion"":""10"",""a"":true}","9:18:17","1","4","Test_2","74","f","0","1204.6999999284744","1280 x 720","1280 x 720","true","1","0","","","","",""
"null","<p style=""font-size: 80px; line-height: 1.4em;"">Too late</br> Speed up!</p>","null","html-keyboard-response","88","743784","0.0-11.0-2.87","6172e28b7daf23e8e2c744a1","d84u9j","Vss","37","F","{""name"":""Chrome"",""chrome"":true,""version"":""106.0"",""blink"":true,""windows"":true,""osname"":""Windows"",""osversion"":""10"",""a"":true}","9:18:17","1","4","Test_3","null","j","0","null","1280 x 720","1280 x 720","true","1","0","","","","",""
"null","<p style=""font-size: 80px;"">+ 0 points</p>","null","html-keyboard-response","89","746750","0.0-11.0-2.88","6172e28b7daf23e8e2c744a1","d84u9j","Vss","37","F","{""name"":""Chrome"",""chrome"":true,""version"":""106.0"",""blink"":true,""windows"":true,""osname"":""Windows"",""osversion"":""10"",""a"":true}","9:18:17","1","4","Test_3","70","j","0","950.8999999761581","1280 x 720","1280 x 720","true","1","0","","","","",""
"null","<p style=""font-size: 80px;"">+ 10 points</p>","null","html-keyboard-response","90","750035","0.0-11.0-2.89","6172e28b7daf23e8e2c744a1","d84u9j","Vss","37","F","{""name"":""Chrome"",""chrome"":true,""version"":""106.0"",""blink"":true,""windows"":true,""osname"":""Windows"",""osversion"":""10"",""a"":true}","9:18:17","1","4","Test_4","70","f","1","1266.3000000715256","1280 x 720","1280 x 720","true","1","10","","","","",""
"null","<p style=""font-size: 80px;"">+ 10 points</p>","null","html-keyboard-response","91","753669","0.0-11.0-2.90","6172e28b7daf23e8e2c744a1","d84u9j","Vss","37","F","{""name"":""Chrome"",""chrome"":true,""version"":""106.0"",""blink"":true,""windows"":true,""osname"":""Windows"",""osversion"":""10"",""a"":true}","9:18:17","1","4","Test_4","70","f","1","1610","1280 x 720","1280 x 720","true","1","10","","","","",""
"null","<p style=""font-size: 80px;"">+ 10 points</p>","null","html-keyboard-response","92","756766","0.0-11.0-2.91","6172e28b7daf23e8e2c744a1","d84u9j","Vss","37","F","{""name"":""Chrome"",""chrome"":true,""version"":""106.0"",""blink"":true,""windows"":true,""osname"":""Windows"",""osversion"":""10"",""a"":true}","9:18:17","1","4","Test_1","74","j","1","1075.7999999523163","1280 x 720","1280 x 720","true","1","10","","","","",""
"null","<p style=""font-size: 80px;"">+ 10 points</p>","null","html-keyboard-response","93","760365","0.0-11.0-2.92","6172e28b7daf23e8e2c744a1","d84u9j","Vss","37","F","{""name"":""Chrome"",""chrome"":true,""version"":""106.0"",""blink"":true,""windows"":true,""osname"":""Windows"",""osversion"":""10"",""a"":true}","9:18:17","1","4","Test_2","70","f","1","1570","1280 x 720","1280 x 720","true","1","10","","","","",""
"null","<p style=""font-size: 80px;"">+ 10 points</p>","null","html-keyboard-response","94","763980","0.0-11.0-2.93","6172e28b7daf23e8e2c744a1","d84u9j","Vss","37","F","{""name"":""Chrome"",""chrome"":true,""version"":""106.0"",""blink"":true,""windows"":true,""osname"":""Windows"",""osversion"":""10"",""a"":true}","9:18:17","1","3","Test_4","74","j","1","1584.3999999761581","1280 x 720","1280 x 720","true","1","10","","","","",""
"null","<p style=""font-size: 80px;"">+ 0 points</p>","null","html-keyboard-response","95","767581","0.0-11.0-2.94","6172e28b7daf23e8e2c744a1","d84u9j","Vss","37","F","{""name"":""Chrome"",""chrome"":true,""version"":""106.0"",""blink"":true,""windows"":true,""osname"":""Windows"",""osversion"":""10"",""a"":true}","9:18:17","1","3","Test_1","74","f","0","1580.8000000715256","1280 x 720","1280 x 720","true","1","0","","","","",""
"null","<p style=""font-size: 80px;"">+ 10 points</p>","null","html-keyboard-response","96","770649","0.0-11.0-2.95","6172e28b7daf23e8e2c744a1","d84u9j","Vss","37","F","{""name"":""Chrome"",""chrome"":true,""version"":""106.0"",""blink"":true,""windows"":true,""osname"":""Windows"",""osversion"":""10"",""a"":true}","9:18:17","1","3","Test_1","70","f","1","1047.2999999523163","1280 x 720","1280 x 720","true","1","10","","","","",""
"null","<p style=""font-size: 80px;"">+ 10 points</p>","null","html-keyboard-response","97","774513","0.0-11.0-2.96","6172e28b7daf23e8e2c744a1","d84u9j","Vss","37","F","{""name"":""Chrome"",""chrome"":true,""version"":""106.0"",""blink"":true,""windows"":true,""osname"":""Windows"",""osversion"":""10"",""a"":true}","9:18:17","1","3","Test_3","70","f","1","1835","1280 x 720","1280 x 720","true","1","10","","","","",""
"null","<p style=""font-size: 80px;"">+ 10 points</p>","null","html-keyboard-response","98","777446","0.0-11.0-2.97","6172e28b7daf23e8e2c744a1","d84u9j","Vss","37","F","{""name"":""Chrome"",""chrome"":true,""version"":""106.0"",""blink"":true,""windows"":true,""osname"":""Windows"",""osversion"":""10"",""a"":true}","9:18:17","1","3","Test_2","74","j","1","918.0999999046326","1280 x 720","1280 x 720","true","1","10","","","","",""
"null","<p style=""font-size: 80px;"">+ 10 points</p>","null","html-keyboard-response","99","780710","0.0-11.0-2.98","6172e28b7daf23e8e2c744a1","d84u9j","Vss","37","F","{""name"":""Chrome"",""chrome"":true,""version"":""106.0"",""blink"":true,""windows"":true,""osname"":""Windows"",""osversion"":""10"",""a"":true}","9:18:17","1","3","Test_4","74","j","1","1230.2000000476837","1280 x 720","1280 x 720","true","1","10","","","","",""
"null","<p style=""font-size: 80px;"">+ 0 points</p>","null","html-keyboard-response","100","783677","0.0-11.0-2.99","6172e28b7daf23e8e2c744a1","d84u9j","Vss","37","F","{""name"":""Chrome"",""chrome"":true,""version"":""106.0"",""blink"":true,""windows"":true,""osname"":""Windows"",""osversion"":""10"",""a"":true}","9:18:17","1","3","Test_2","70","j","0","932.7000000476837","1280 x 720","1280 x 720","true","1","0","","","","",""
"null","<p style=""font-size: 80px;"">+ 10 points</p>","null","html-keyboard-response","101","787219","0.0-11.0-2.100","6172e28b7daf23e8e2c744a1","d84u9j","Vss","37","F","{""name"":""Chrome"",""chrome"":true,""version"":""106.0"",""blink"":true,""windows"":true,""osname"":""Windows"",""osversion"":""10"",""a"":true}","9:18:17","1","3","Test_4","74","j","1","1510.5","1280 x 720","1280 x 720","true","1","10","","","","",""
"null","<p style=""font-size: 80px;"">+ 10 points</p>","null","html-keyboard-response","102","791074","0.0-11.0-2.101","6172e28b7daf23e8e2c744a1","d84u9j","Vss","37","F","{""name"":""Chrome"",""chrome"":true,""version"":""106.0"",""blink"":true,""windows"":true,""osname"":""Windows"",""osversion"":""10"",""a"":true}","9:18:17","1","3","Test_1","70","f","1","1829.5","1280 x 720","1280 x 720","true","1","10","","","","",""
"null","<p style=""font-size: 80px;"">+ 10 points</p>","null","html-keyboard-response","103","793991","0.0-11.0-2.102","6172e28b7daf23e8e2c744a1","d84u9j","Vss","37","F","{""name"":""Chrome"",""chrome"":true,""version"":""106.0"",""blink"":true,""windows"":true,""osname"":""Windows"",""osversion"":""10"",""a"":true}","9:18:17","1","3","Test_3","70","f","1","878.1000000238419","1280 x 720","1280 x 720","true","1","10","","","","",""
"null","<p style=""font-size: 80px;"">+ 10 points</p>","null","html-keyboard-response","104","797275","0.0-11.0-2.103","6172e28b7daf23e8e2c744a1","d84u9j","Vss","37","F","{""name"":""Chrome"",""chrome"":true,""version"":""106.0"",""blink"":true,""windows"":true,""osname"":""Windows"",""osversion"":""10"",""a"":true}","9:18:17","1","3","Test_1","70","f","1","1256.6000000238419","1280 x 720","1280 x 720","true","1","10","","","","",""
"null","<p style=""font-size: 80px;"">+ 10 points</p>","null","html-keyboard-response","105","800309","0.0-11.0-2.104","6172e28b7daf23e8e2c744a1","d84u9j","Vss","37","F","{""name"":""Chrome"",""chrome"":true,""version"":""106.0"",""blink"":true,""windows"":true,""osname"":""Windows"",""osversion"":""10"",""a"":true}","9:18:17","1","3","Test_2","74","j","1","1009.5","1280 x 720","1280 x 720","true","1","10","","","","",""
"null","<p style=""font-size: 80px;"">+ 10 points</p>","null","html-keyboard-response","106","803480","0.0-11.0-2.105","6172e28b7daf23e8e2c744a1","d84u9j","Vss","37","F","{""name"":""Chrome"",""chrome"":true,""version"":""106.0"",""blink"":true,""windows"":true,""osname"":""Windows"",""osversion"":""10"",""a"":true}","9:18:17","1","3","Test_4","74","j","1","1136.7999999523163","1280 x 720","1280 x 720","true","1","10","","","","",""
"null","<p style=""font-size: 80px;"">+ 10 points</p>","null","html-keyboard-response","107","806581","0.0-11.0-2.106","6172e28b7daf23e8e2c744a1","d84u9j","Vss","37","F","{""name"":""Chrome"",""chrome"":true,""version"":""106.0"",""blink"":true,""windows"":true,""osname"":""Windows"",""osversion"":""10"",""a"":true}","9:18:17","1","3","Test_2","74","j","1","1073.6999999284744","1280 x 720","1280 x 720","true","1","10","","","","",""
"null","<p style=""font-size: 80px;"">+ 0 points</p>","null","html-keyboard-response","108","809668","0.0-11.0-2.107","6172e28b7daf23e8e2c744a1","d84u9j","Vss","37","F","{""name"":""Chrome"",""chrome"":true,""version"":""106.0"",""blink"":true,""windows"":true,""osname"":""Windows"",""osversion"":""10"",""a"":true}","9:18:17","1","3","Test_3","74","f","0","1070.3999999761581","1280 x 720","1280 x 720","true","1","0","","","","",""
"null","<p style=""font-size: 80px;"">+ 10 points</p>","null","html-keyboard-response","109","812637","0.0-11.0-2.108","6172e28b7daf23e8e2c744a1","d84u9j","Vss","37","F","{""name"":""Chrome"",""chrome"":true,""version"":""106.0"",""blink"":true,""windows"":true,""osname"":""Windows"",""osversion"":""10"",""a"":true}","9:18:17","1","3","Test_3","70","f","1","949.4000000953674","1280 x 720","1280 x 720","true","1","10","","","","",""
"null","<p style=""font-size: 80px;"">+ 10 points</p>","null","html-keyboard-response","110","832618","0.0-11.0-2.109","6172e28b7daf23e8e2c744a1","d84u9j","Vss","37","F","{""name"":""Chrome"",""chrome"":true,""version"":""106.0"",""blink"":true,""windows"":true,""osname"":""Windows"",""osversion"":""10"",""a"":true}","9:18:17","1","3","Test_1","70","f","1","1299.7999999523163","1280 x 720","1280 x 720","true","1","10","","","","",""
"null","<p style=""font-size: 80px;"">+ 10 points</p>","null","html-keyboard-response","111","835983","0.0-11.0-2.110","6172e28b7daf23e8e2c744a1","d84u9j","Vss","37","F","{""name"":""Chrome"",""chrome"":true,""version"":""106.0"",""blink"":true,""windows"":true,""osname"":""Windows"",""osversion"":""10"",""a"":true}","9:18:17","1","3","Test_3","70","f","1","1329.2000000476837","1280 x 720","1280 x 720","true","1","10","","","","",""
"null","<p style=""font-size: 80px;"">+ 0 points</p>","null","html-keyboard-response","112","838686","0.0-11.0-2.111","6172e28b7daf23e8e2c744a1","d84u9j","Vss","37","F","{""name"":""Chrome"",""chrome"":true,""version"":""106.0"",""blink"":true,""windows"":true,""osname"":""Windows"",""osversion"":""10"",""a"":true}","9:18:17","1","4","Test_1","70","j","0","675.1999999284744","1280 x 720","1280 x 720","true","1","0","","","","",""
"null","<p style=""font-size: 80px;"">+ 0 points</p>","null","html-keyboard-response","113","841898","0.0-11.0-2.112","6172e28b7daf23e8e2c744a1","d84u9j","Vss","37","F","{""name"":""Chrome"",""chrome"":true,""version"":""106.0"",""blink"":true,""windows"":true,""osname"":""Windows"",""osversion"":""10"",""a"":true}","9:18:17","1","4","Test_3","70","j","0","1179.5","1280 x 720","1280 x 720","true","1","0","","","","",""
"null","<p style=""font-size: 80px;"">+ 0 points</p>","null","html-keyboard-response","114","845631","0.0-11.0-2.113","6172e28b7daf23e8e2c744a1","d84u9j","Vss","37","F","{""name"":""Chrome"",""chrome"":true,""version"":""106.0"",""blink"":true,""windows"":true,""osname"":""Windows"",""osversion"":""10"",""a"":true}","9:18:17","1","4","Test_4","74","f","0","1699.2999999523163","1280 x 720","1280 x 720","true","1","0","","","","",""
"null","<p style=""font-size: 80px;"">+ 10 points</p>","null","html-keyboard-response","115","849397","0.0-11.0-2.114","6172e28b7daf23e8e2c744a1","d84u9j","Vss","37","F","{""name"":""Chrome"",""chrome"":true,""version"":""106.0"",""blink"":true,""windows"":true,""osname"":""Windows"",""osversion"":""10"",""a"":true}","9:18:17","1","4","Test_1","74","j","1","1744.2000000476837","1280 x 720","1280 x 720","true","1","10","","","","",""
"null","<p style=""font-size: 80px;"">+ 10 points</p>","null","html-keyboard-response","116","853745","0.0-11.0-2.115","6172e28b7daf23e8e2c744a1","d84u9j","Vss","37","F","{""name"":""Chrome"",""chrome"":true,""version"":""106.0"",""blink"":true,""windows"":true,""osname"":""Windows"",""osversion"":""10"",""a"":true}","9:18:17","1","4","Test_3","74","j","1","2320.5999999046326","1280 x 720","1280 x 720","true","1","10","","","","",""
"null","<p style=""font-size: 80px;"">+ 10 points</p>","null","html-keyboard-response","117","857742","0.0-11.0-2.116","6172e28b7daf23e8e2c744a1","d84u9j","Vss","37","F","{""name"":""Chrome"",""chrome"":true,""version"":""106.0"",""blink"":true,""windows"":true,""osname"":""Windows"",""osversion"":""10"",""a"":true}","9:18:17","1","4","Test_4","70","f","1","1970.7000000476837","1280 x 720","1280 x 720","true","1","10","","","","",""
"null","<p style=""font-size: 80px;"">+ 10 points</p>","null","html-keyboard-response","118","861922","0.0-11.0-2.117","6172e28b7daf23e8e2c744a1","d84u9j","Vss","37","F","{""name"":""Chrome"",""chrome"":true,""version"":""106.0"",""blink"":true,""windows"":true,""osname"":""Windows"",""osversion"":""10"",""a"":true}","9:18:17","1","4","Test_1","74","j","1","2148.100000023842","1280 x 720","1280 x 720","true","1","10","","","","",""
"null","<p style=""font-size: 80px;"">+ 10 points</p>","null","html-keyboard-response","119","866090","0.0-11.0-2.118","6172e28b7daf23e8e2c744a1","d84u9j","Vss","37","F","{""name"":""Chrome"",""chrome"":true,""version"":""106.0"",""blink"":true,""windows"":true,""osname"":""Windows"",""osversion"":""10"",""a"":true}","9:18:17","1","4","Test_3","74","j","1","2143.399999976158","1280 x 720","1280 x 720","true","1","10","","","","",""
"null","<p style=""font-size: 80px;"">+ 10 points</p>","null","html-keyboard-response","120","869122","0.0-11.0-2.119","6172e28b7daf23e8e2c744a1","d84u9j","Vss","37","F","{""name"":""Chrome"",""chrome"":true,""version"":""106.0"",""blink"":true,""windows"":true,""osname"":""Windows"",""osversion"":""10"",""a"":true}","9:18:17","1","4","Test_2","70","f","1","1007.7000000476837","1280 x 720","1280 x 720","true","1","10","","","","",""
"null","<p style=""font-size: 80px;"">+ 10 points</p>","null","html-keyboard-response","121","872172","0.0-11.0-2.120","6172e28b7daf23e8e2c744a1","d84u9j","Vss","37","F","{""name"":""Chrome"",""chrome"":true,""version"":""106.0"",""blink"":true,""windows"":true,""osname"":""Windows"",""osversion"":""10"",""a"":true}","9:18:17","1","4","Test_3","74","j","1","1023.3000000715256","1280 x 720","1280 x 720","true","1","10","","","","",""
"null","<p style=""font-size: 80px; line-height: 1.4em;"">Too late</br> Speed up!</p>","null","html-keyboard-response","122","879204","0.0-11.0-2.121","6172e28b7daf23e8e2c744a1","d84u9j","Vss","37","F","{""name"":""Chrome"",""chrome"":true,""version"":""106.0"",""blink"":true,""windows"":true,""osname"":""Windows"",""osversion"":""10"",""a"":true}","9:18:17","1","4","Test_1","null","j","0","null","1280 x 720","1280 x 720","true","1","0","","","","",""
"null","<p style=""font-size: 80px;"">+ 10 points</p>","null","html-keyboard-response","123","882235","0.0-11.0-2.122","6172e28b7daf23e8e2c744a1","d84u9j","Vss","37","F","{""name"":""Chrome"",""chrome"":true,""version"":""106.0"",""blink"":true,""windows"":true,""osname"":""Windows"",""osversion"":""10"",""a"":true}","9:18:17","1","4","Test_4","70","f","1","997.7000000476837","1280 x 720","1280 x 720","true","1","10","","","","",""
"null","<p style=""font-size: 80px;"">+ 10 points</p>","null","html-keyboard-response","124","886032","0.0-11.0-2.123","6172e28b7daf23e8e2c744a1","d84u9j","Vss","37","F","{""name"":""Chrome"",""chrome"":true,""version"":""106.0"",""blink"":true,""windows"":true,""osname"":""Windows"",""osversion"":""10"",""a"":true}","9:18:17","1","4","Test_2","70","f","1","1775.6000000238419","1280 x 720","1280 x 720","true","1","10","","","","",""
"null","<p style=""font-size: 80px;"">+ 10 points</p>","null","html-keyboard-response","125","889100","0.0-11.0-2.124","6172e28b7daf23e8e2c744a1","d84u9j","Vss","37","F","{""name"":""Chrome"",""chrome"":true,""version"":""106.0"",""blink"":true,""windows"":true,""osname"":""Windows"",""osversion"":""10"",""a"":true}","9:18:17","1","4","Test_2","70","f","1","1053.7000000476837","1280 x 720","1280 x 720","true","1","10","","","","",""
"null","<p style=""font-size: 80px;"">+ 10 points</p>","null","html-keyboard-response","126","891799","0.0-11.0-2.125","6172e28b7daf23e8e2c744a1","d84u9j","Vss","37","F","{""name"":""Chrome"",""chrome"":true,""version"":""106.0"",""blink"":true,""windows"":true,""osname"":""Windows"",""osversion"":""10"",""a"":true}","9:18:17","1","4","Test_2","70","f","1","663.7000000476837","1280 x 720","1280 x 720","true","1","10","","","","",""
"null","<p style=""font-size: 80px;"">+ 10 points</p>","null","html-keyboard-response","127","894699","0.0-11.0-2.126","6172e28b7daf23e8e2c744a1","d84u9j","Vss","37","F","{""name"":""Chrome"",""chrome"":true,""version"":""106.0"",""blink"":true,""windows"":true,""osname"":""Windows"",""osversion"":""10"",""a"":true}","9:18:17","1","4","Test_1","74","j","1","879.3000000715256","1280 x 720","1280 x 720","true","1","10","","","","",""
"null","<p style=""font-size: 80px;"">+ 10 points</p>","null","html-keyboard-response","128","897380","0.0-11.0-2.127","6172e28b7daf23e8e2c744a1","d84u9j","Vss","37","F","{""name"":""Chrome"",""chrome"":true,""version"":""106.0"",""blink"":true,""windows"":true,""osname"":""Windows"",""osversion"":""10"",""a"":true}","9:18:17","1","4","Test_2","70","f","1","653.7000000476837","1280 x 720","1280 x 720","true","1","10","","","","",""
"null","<p style=""font-size: 80px;"">+ 0 points</p>","null","html-keyboard-response","129","901217","0.0-11.0-2.128","6172e28b7daf23e8e2c744a1","d84u9j","Vss","37","F","{""name"":""Chrome"",""chrome"":true,""version"":""106.0"",""blink"":true,""windows"":true,""osname"":""Windows"",""osversion"":""10"",""a"":true}","9:18:17","1","3","Test_3","74","f","0","1808","1280 x 720","1280 x 720","true","1","0","","","","",""
"null","<p style=""font-size: 80px;"">+ 10 points</p>","null","html-keyboard-response","130","905014","0.0-11.0-2.129","6172e28b7daf23e8e2c744a1","d84u9j","Vss","37","F","{""name"":""Chrome"",""chrome"":true,""version"":""106.0"",""blink"":true,""windows"":true,""osname"":""Windows"",""osversion"":""10"",""a"":true}","9:18:17","1","3","Test_3","70","f","1","1773.0999999046326","1280 x 720","1280 x 720","true","1","10","","","","",""
"null","<p style=""font-size: 80px;"">+ 10 points</p>","null","html-keyboard-response","131","908796","0.0-11.0-2.130","6172e28b7daf23e8e2c744a1","d84u9j","Vss","37","F","{""name"":""Chrome"",""chrome"":true,""version"":""106.0"",""blink"":true,""windows"":true,""osname"":""Windows"",""osversion"":""10"",""a"":true}","9:18:17","1","3","Test_4","74","j","1","1752.8999999761581","1280 x 720","1280 x 720","true","1","10","","","","",""
"null","<p style=""font-size: 80px;"">+ 10 points</p>","null","html-keyboard-response","132","912014","0.0-11.0-2.131","6172e28b7daf23e8e2c744a1","d84u9j","Vss","37","F","{""name"":""Chrome"",""chrome"":true,""version"":""106.0"",""blink"":true,""windows"":true,""osname"":""Windows"",""osversion"":""10"",""a"":true}","9:18:17","1","3","Test_1","70","f","1","1186.1999999284744","1280 x 720","1280 x 720","true","1","10","","","","",""
"null","<p style=""font-size: 80px;"">+ 10 points</p>","null","html-keyboard-response","133","915528","0.0-11.0-2.132","6172e28b7daf23e8e2c744a1","d84u9j","Vss","37","F","{""name"":""Chrome"",""chrome"":true,""version"":""106.0"",""blink"":true,""windows"":true,""osname"":""Windows"",""osversion"":""10"",""a"":true}","9:18:17","1","3","Test_3","70","f","1","1496.1000000238419","1280 x 720","1280 x 720","true","1","10","","","","",""
"null","<p style=""font-size: 80px;"">+ 10 points</p>","null","html-keyboard-response","134","919254","0.0-11.0-2.133","6172e28b7daf23e8e2c744a1","d84u9j","Vss","37","F","{""name"":""Chrome"",""chrome"":true,""version"":""106.0"",""blink"":true,""windows"":true,""osname"":""Windows"",""osversion"":""10"",""a"":true}","9:18:17","1","3","Test_3","70","f","1","1690.2000000476837","1280 x 720","1280 x 720","true","1","10","","","","",""
"null","<p style=""font-size: 80px;"">+ 10 points</p>","null","html-keyboard-response","135","922994","0.0-11.0-2.134","6172e28b7daf23e8e2c744a1","d84u9j","Vss","37","F","{""name"":""Chrome"",""chrome"":true,""version"":""106.0"",""blink"":true,""windows"":true,""osname"":""Windows"",""osversion"":""10"",""a"":true}","9:18:17","1","3","Test_2","74","j","1","1716.8000000715256","1280 x 720","1280 x 720","true","1","10","","","","",""
"null","<p style=""font-size: 80px;"">+ 10 points</p>","null","html-keyboard-response","136","926340","0.0-11.0-2.135","6172e28b7daf23e8e2c744a1","d84u9j","Vss","37","F","{""name"":""Chrome"",""chrome"":true,""version"":""106.0"",""blink"":true,""windows"":true,""osname"":""Windows"",""osversion"":""10"",""a"":true}","9:18:17","1","3","Test_4","74","j","1","1317.1999999284744","1280 x 720","1280 x 720","true","1","10","","","","",""
"null","<p style=""font-size: 80px;"">+ 0 points</p>","null","html-keyboard-response","137","929857","0.0-11.0-2.136","6172e28b7daf23e8e2c744a1","d84u9j","Vss","37","F","{""name"":""Chrome"",""chrome"":true,""version"":""106.0"",""blink"":true,""windows"":true,""osname"":""Windows"",""osversion"":""10"",""a"":true}","9:18:17","1","3","Test_1","74","f","0","1480.8000000715256","1280 x 720","1280 x 720","true","1","0","","","","",""
"null","<p style=""font-size: 80px;"">+ 0 points</p>","null","html-keyboard-response","138","934222","0.0-11.0-2.137","6172e28b7daf23e8e2c744a1","d84u9j","Vss","37","F","{""name"":""Chrome"",""chrome"":true,""version"":""106.0"",""blink"":true,""windows"":true,""osname"":""Windows"",""osversion"":""10"",""a"":true}","9:18:17","1","3","Test_1","74","f","0","2337.5","1280 x 720","1280 x 720","true","1","0","","","","",""
"null","<p style=""font-size: 80px;"">+ 10 points</p>","null","html-keyboard-response","139","937172","0.0-11.0-2.138","6172e28b7daf23e8e2c744a1","d84u9j","Vss","37","F","{""name"":""Chrome"",""chrome"":true,""version"":""106.0"",""blink"":true,""windows"":true,""osname"":""Windows"",""osversion"":""10"",""a"":true}","9:18:17","1","3","Test_3","70","f","1","915.1000000238419","1280 x 720","1280 x 720","true","1","10","","","","",""
"null","<p style=""font-size: 80px;"">+ 10 points</p>","null","html-keyboard-response","140","941009","0.0-11.0-2.139","6172e28b7daf23e8e2c744a1","d84u9j","Vss","37","F","{""name"":""Chrome"",""chrome"":true,""version"":""106.0"",""blink"":true,""windows"":true,""osname"":""Windows"",""osversion"":""10"",""a"":true}","9:18:17","1","3","Test_2","74","j","1","1813.5","1280 x 720","1280 x 720","true","1","10","","","","",""
"null","<p style=""font-size: 80px;"">+ 10 points</p>","null","html-keyboard-response","141","946254","0.0-11.0-2.140","6172e28b7daf23e8e2c744a1","d84u9j","Vss","37","F","{""name"":""Chrome"",""chrome"":true,""version"":""106.0"",""blink"":true,""windows"":true,""osname"":""Windows"",""osversion"":""10"",""a"":true}","9:18:17","1","3","Test_4","74","j","1","3222.100000023842","1280 x 720","1280 x 720","true","1","10","","","","",""
"null","<p style=""font-size: 80px;"">+ 10 points</p>","null","html-keyboard-response","142","949053","0.0-11.0-2.141","6172e28b7daf23e8e2c744a1","d84u9j","Vss","37","F","{""name"":""Chrome"",""chrome"":true,""version"":""106.0"",""blink"":true,""windows"":true,""osname"":""Windows"",""osversion"":""10"",""a"":true}","9:18:17","1","3","Test_3","70","f","1","768.3000000715256","1280 x 720","1280 x 720","true","1","10","","","","",""
"null","<p style=""font-size: 80px;"">+ 10 points</p>","null","html-keyboard-response","143","952846","0.0-11.0-2.142","6172e28b7daf23e8e2c744a1","d84u9j","Vss","37","F","{""name"":""Chrome"",""chrome"":true,""version"":""106.0"",""blink"":true,""windows"":true,""osname"":""Windows"",""osversion"":""10"",""a"":true}","9:18:17","1","3","Test_2","74","j","1","1763.1999999284744","1280 x 720","1280 x 720","true","1","10","","","","",""
"null","<p style=""font-size: 80px;"">+ 10 points</p>","null","html-keyboard-response","144","955917","0.0-11.0-2.143","6172e28b7daf23e8e2c744a1","d84u9j","Vss","37","F","{""name"":""Chrome"",""chrome"":true,""version"":""106.0"",""blink"":true,""windows"":true,""osname"":""Windows"",""osversion"":""10"",""a"":true}","9:18:17","1","3","Test_4","74","j","1","1049.7999999523163","1280 x 720","1280 x 720","true","1","10","","","","",""
"null","<p style=""font-size: 80px;"">+ 10 points</p>","null","html-keyboard-response","145","960466","0.0-11.0-2.144","6172e28b7daf23e8e2c744a1","d84u9j","Vss","37","F","{""name"":""Chrome"",""chrome"":true,""version"":""106.0"",""blink"":true,""windows"":true,""osname"":""Windows"",""osversion"":""10"",""a"":true}","9:18:17","1","3","Test_2","74","j","1","2520.600000023842","1280 x 720","1280 x 720","true","1","10","","","","",""
"null","<p style=""font-size: 80px;"">+ 10 points</p>","null","html-keyboard-response","146","963199","0.0-11.0-2.145","6172e28b7daf23e8e2c744a1","d84u9j","Vss","37","F","{""name"":""Chrome"",""chrome"":true,""version"":""106.0"",""blink"":true,""windows"":true,""osname"":""Windows"",""osversion"":""10"",""a"":true}","9:18:17","1","3","Test_1","70","f","1","717.5","1280 x 720","1280 x 720","true","1","10","","","","",""
"null","<p style=""font-size: 80px;"">+ 10 points</p>","null","html-keyboard-response","147","968133","0.0-11.0-2.146","6172e28b7daf23e8e2c744a1","d84u9j","Vss","37","F","{""name"":""Chrome"",""chrome"":true,""version"":""106.0"",""blink"":true,""windows"":true,""osname"":""Windows"",""osversion"":""10"",""a"":true}","9:18:17","1","3","Test_2","74","j","1","2910.5","1280 x 720","1280 x 720","true","1","10","","","","",""
