"rt","stimulus","key_press","trial_type","trial_index","time_elapsed","internal_node_id","Prolific_ID","random_ID","initials","age","gender","pc_info","start_time","Phase","Rule","Stimulus","Response","CorrResp","Accuracy","ResponseTime","screen_resolution","window_resolution","focus","relevant","Points","responses","question_order","rev_check","butterfly_check","passed_practice"
"null","<p style=""font-size: 80px;"">+ 10 points</p>","null","html-keyboard-response","1","63367","0.0-7.0-2.0","5ef0a10e3867d33b6bb063bc","xbjovc","DF","50","M","{""name"":""Chrome"",""chrome"":true,""version"":""106.0"",""blink"":true,""windows"":true,""osname"":""Windows"",""osversion"":""10"",""a"":true}","9:12:26","0","1","Practice_1","70","f","1","1733.5","1920 x 1080","1920 x 1080","true","1","10","","","","",""
"null","<p style=""font-size: 80px;"">+ 10 points</p>","null","html-keyboard-response","2","66403","0.0-7.0-2.1","5ef0a10e3867d33b6bb063bc","xbjovc","DF","50","M","{""name"":""Chrome"",""chrome"":true,""version"":""106.0"",""blink"":true,""windows"":true,""osname"":""Windows"",""osversion"":""10"",""a"":true}","9:12:26","0","1","Practice_4","74","j","1","1011.3000000119209","1920 x 1080","1920 x 1080","true","1","10","","","","",""
"null","<p style=""font-size: 80px;"">+ 10 points</p>","null","html-keyboard-response","3","70332","0.0-7.0-2.2","5ef0a10e3867d33b6bb063bc","xbjovc","DF","50","M","{""name"":""Chrome"",""chrome"":true,""version"":""106.0"",""blink"":true,""windows"":true,""osname"":""Windows"",""osversion"":""10"",""a"":true}","9:12:26","0","1","Practice_3","70","f","1","1911.2000000178814","1920 x 1080","1920 x 1080","true","1","10","","","","",""
"null","<p style=""font-size: 80px;"">+ 10 points</p>","null","html-keyboard-response","4","73388","0.0-7.0-2.3","5ef0a10e3867d33b6bb063bc","xbjovc","DF","50","M","{""name"":""Chrome"",""chrome"":true,""version"":""106.0"",""blink"":true,""windows"":true,""osname"":""Windows"",""osversion"":""10"",""a"":true}","9:12:26","0","1","Practice_3","70","f","1","1037.5","1920 x 1080","1920 x 1080","true","1","10","","","","",""
"null","<p style=""font-size: 80px;"">+ 10 points</p>","null","html-keyboard-response","5","76804","0.0-7.0-2.4","5ef0a10e3867d33b6bb063bc","xbjovc","DF","50","M","{""name"":""Chrome"",""chrome"":true,""version"":""106.0"",""blink"":true,""windows"":true,""osname"":""Windows"",""osversion"":""10"",""a"":true}","9:12:26","0","1","Practice_4","74","j","1","1392.0999999940395","1920 x 1080","1920 x 1080","true","1","10","","","","",""
"null","<p style=""font-size: 80px;"">+ 10 points</p>","null","html-keyboard-response","6","80211","0.0-7.0-2.5","5ef0a10e3867d33b6bb063bc","xbjovc","DF","50","M","{""name"":""Chrome"",""chrome"":true,""version"":""106.0"",""blink"":true,""windows"":true,""osname"":""Windows"",""osversion"":""10"",""a"":true}","9:12:26","0","1","Practice_2","74","j","1","1382.6000000238419","1920 x 1080","1920 x 1080","true","1","10","","","","",""
"null","<p style=""font-size: 80px;"">+ 10 points</p>","null","html-keyboard-response","7","83391","0.0-7.0-2.6","5ef0a10e3867d33b6bb063bc","xbjovc","DF","50","M","{""name"":""Chrome"",""chrome"":true,""version"":""106.0"",""blink"":true,""windows"":true,""osname"":""Windows"",""osversion"":""10"",""a"":true}","9:12:26","0","1","Practice_4","74","j","1","1159.0999999940395","1920 x 1080","1920 x 1080","true","1","10","","","","",""
"null","<p style=""font-size: 80px;"">+ 10 points</p>","null","html-keyboard-response","8","86370","0.0-7.0-2.7","5ef0a10e3867d33b6bb063bc","xbjovc","DF","50","M","{""name"":""Chrome"",""chrome"":true,""version"":""106.0"",""blink"":true,""windows"":true,""osname"":""Windows"",""osversion"":""10"",""a"":true}","9:12:26","0","1","Practice_1","70","f","1","947.4000000059605","1920 x 1080","1920 x 1080","true","1","10","","","","",""
"null","<p style=""font-size: 80px;"">+ 10 points</p>","null","html-keyboard-response","9","89626","0.0-7.0-2.8","5ef0a10e3867d33b6bb063bc","xbjovc","DF","50","M","{""name"":""Chrome"",""chrome"":true,""version"":""106.0"",""blink"":true,""windows"":true,""osname"":""Windows"",""osversion"":""10"",""a"":true}","9:12:26","0","1","Practice_1","70","f","1","1242.300000011921","1920 x 1080","1920 x 1080","true","1","10","","","","",""
"null","<p style=""font-size: 80px;"">+ 10 points</p>","null","html-keyboard-response","10","92596","0.0-7.0-2.9","5ef0a10e3867d33b6bb063bc","xbjovc","DF","50","M","{""name"":""Chrome"",""chrome"":true,""version"":""106.0"",""blink"":true,""windows"":true,""osname"":""Windows"",""osversion"":""10"",""a"":true}","9:12:26","0","1","Practice_4","74","j","1","947.6999999880791","1920 x 1080","1920 x 1080","true","1","10","","","","",""
"null","<p style=""font-size: 80px;"">+ 10 points</p>","null","html-keyboard-response","11","95297","0.0-7.0-2.10","5ef0a10e3867d33b6bb063bc","xbjovc","DF","50","M","{""name"":""Chrome"",""chrome"":true,""version"":""106.0"",""blink"":true,""windows"":true,""osname"":""Windows"",""osversion"":""10"",""a"":true}","9:12:26","0","1","Practice_4","74","j","1","677.8000000119209","1920 x 1080","1920 x 1080","true","1","10","","","","",""
"null","<p style=""font-size: 80px;"">+ 10 points</p>","null","html-keyboard-response","12","98127","0.0-7.0-2.11","5ef0a10e3867d33b6bb063bc","xbjovc","DF","50","M","{""name"":""Chrome"",""chrome"":true,""version"":""106.0"",""blink"":true,""windows"":true,""osname"":""Windows"",""osversion"":""10"",""a"":true}","9:12:26","0","1","Practice_1","70","f","1","804.8000000119209","1920 x 1080","1920 x 1080","true","1","10","","","","",""
"null","<p style=""font-size: 80px;"">+ 10 points</p>","null","html-keyboard-response","13","100975","0.0-7.0-2.12","5ef0a10e3867d33b6bb063bc","xbjovc","DF","50","M","{""name"":""Chrome"",""chrome"":true,""version"":""106.0"",""blink"":true,""windows"":true,""osname"":""Windows"",""osversion"":""10"",""a"":true}","9:12:26","0","1","Practice_2","74","j","1","832.3000000119209","1920 x 1080","1920 x 1080","true","1","10","","","","",""
"null","<p style=""font-size: 80px;"">+ 10 points</p>","null","html-keyboard-response","14","103557","0.0-7.0-2.13","5ef0a10e3867d33b6bb063bc","xbjovc","DF","50","M","{""name"":""Chrome"",""chrome"":true,""version"":""106.0"",""blink"":true,""windows"":true,""osname"":""Windows"",""osversion"":""10"",""a"":true}","9:12:26","0","1","Practice_3","70","f","1","573.9000000059605","1920 x 1080","1920 x 1080","true","1","10","","","","",""
"null","<p style=""font-size: 80px;"">+ 10 points</p>","null","html-keyboard-response","15","106275","0.0-7.0-2.14","5ef0a10e3867d33b6bb063bc","xbjovc","DF","50","M","{""name"":""Chrome"",""chrome"":true,""version"":""106.0"",""blink"":true,""windows"":true,""osname"":""Windows"",""osversion"":""10"",""a"":true}","9:12:26","0","1","Practice_3","70","f","1","687.5","1920 x 1080","1920 x 1080","true","1","10","","","","",""
"null","<p style=""font-size: 80px;"">+ 10 points</p>","null","html-keyboard-response","16","109188","0.0-7.0-2.15","5ef0a10e3867d33b6bb063bc","xbjovc","DF","50","M","{""name"":""Chrome"",""chrome"":true,""version"":""106.0"",""blink"":true,""windows"":true,""osname"":""Windows"",""osversion"":""10"",""a"":true}","9:12:26","0","1","Practice_1","70","f","1","889.5","1920 x 1080","1920 x 1080","true","1","10","","","","",""
"null","<p style=""font-size: 80px;"">+ 10 points</p>","null","html-keyboard-response","17","111867","0.0-7.0-2.16","5ef0a10e3867d33b6bb063bc","xbjovc","DF","50","M","{""name"":""Chrome"",""chrome"":true,""version"":""106.0"",""blink"":true,""windows"":true,""osname"":""Windows"",""osversion"":""10"",""a"":true}","9:12:26","0","1","Practice_2","74","j","1","668.4000000059605","1920 x 1080","1920 x 1080","true","1","10","","","","",""
"null","<p style=""font-size: 80px;"">+ 10 points</p>","null","html-keyboard-response","18","114480","0.0-7.0-2.17","5ef0a10e3867d33b6bb063bc","xbjovc","DF","50","M","{""name"":""Chrome"",""chrome"":true,""version"":""106.0"",""blink"":true,""windows"":true,""osname"":""Windows"",""osversion"":""10"",""a"":true}","9:12:26","0","1","Practice_3","70","f","1","597.7000000178814","1920 x 1080","1920 x 1080","true","1","10","","","","",""
"null","<p style=""font-size: 80px;"">+ 10 points</p>","null","html-keyboard-response","19","117186","0.0-7.0-2.18","5ef0a10e3867d33b6bb063bc","xbjovc","DF","50","M","{""name"":""Chrome"",""chrome"":true,""version"":""106.0"",""blink"":true,""windows"":true,""osname"":""Windows"",""osversion"":""10"",""a"":true}","9:12:26","0","1","Practice_2","74","j","1","683.6999999880791","1920 x 1080","1920 x 1080","true","1","10","","","","",""
"null","<p style=""font-size: 80px;"">+ 10 points</p>","null","html-keyboard-response","20","119726","0.0-7.0-2.19","5ef0a10e3867d33b6bb063bc","xbjovc","DF","50","M","{""name"":""Chrome"",""chrome"":true,""version"":""106.0"",""blink"":true,""windows"":true,""osname"":""Windows"",""osversion"":""10"",""a"":true}","9:12:26","0","1","Practice_2","74","j","1","523.4000000059605","1920 x 1080","1920 x 1080","true","1","10","","","","",""
"null","<p style=""font-size: 80px;"">+ 0 points</p>","null","html-keyboard-response","21","123027","0.0-7.0-2.20","5ef0a10e3867d33b6bb063bc","xbjovc","DF","50","M","{""name"":""Chrome"",""chrome"":true,""version"":""106.0"",""blink"":true,""windows"":true,""osname"":""Windows"",""osversion"":""10"",""a"":true}","9:12:26","0","2","Practice_4","74","f","0","1282.8999999761581","1920 x 1080","1920 x 1080","true","1","0","","","","",""
"null","<p style=""font-size: 80px;"">+ 10 points</p>","null","html-keyboard-response","22","126475","0.0-7.0-2.21","5ef0a10e3867d33b6bb063bc","xbjovc","DF","50","M","{""name"":""Chrome"",""chrome"":true,""version"":""106.0"",""blink"":true,""windows"":true,""osname"":""Windows"",""osversion"":""10"",""a"":true}","9:12:26","0","2","Practice_3","74","j","1","1436.199999988079","1920 x 1080","1920 x 1080","true","1","10","","","","",""
"null","<p style=""font-size: 80px;"">+ 10 points</p>","null","html-keyboard-response","23","129449","0.0-7.0-2.22","5ef0a10e3867d33b6bb063bc","xbjovc","DF","50","M","{""name"":""Chrome"",""chrome"":true,""version"":""106.0"",""blink"":true,""windows"":true,""osname"":""Windows"",""osversion"":""10"",""a"":true}","9:12:26","0","2","Practice_2","70","f","1","962.3000000119209","1920 x 1080","1920 x 1080","true","1","10","","","","",""
"null","<p style=""font-size: 80px;"">+ 10 points</p>","null","html-keyboard-response","24","132614","0.0-7.0-2.23","5ef0a10e3867d33b6bb063bc","xbjovc","DF","50","M","{""name"":""Chrome"",""chrome"":true,""version"":""106.0"",""blink"":true,""windows"":true,""osname"":""Windows"",""osversion"":""10"",""a"":true}","9:12:26","0","2","Practice_1","74","j","1","1156.199999988079","1920 x 1080","1920 x 1080","true","1","10","","","","",""
"null","<p style=""font-size: 80px;"">+ 10 points</p>","null","html-keyboard-response","25","135537","0.0-7.0-2.24","5ef0a10e3867d33b6bb063bc","xbjovc","DF","50","M","{""name"":""Chrome"",""chrome"":true,""version"":""106.0"",""blink"":true,""windows"":true,""osname"":""Windows"",""osversion"":""10"",""a"":true}","9:12:26","0","2","Practice_3","74","j","1","905.7000000178814","1920 x 1080","1920 x 1080","true","1","10","","","","",""
"null","<p style=""font-size: 80px;"">+ 10 points</p>","null","html-keyboard-response","26","138639","0.0-7.0-2.25","5ef0a10e3867d33b6bb063bc","xbjovc","DF","50","M","{""name"":""Chrome"",""chrome"":true,""version"":""106.0"",""blink"":true,""windows"":true,""osname"":""Windows"",""osversion"":""10"",""a"":true}","9:12:26","0","2","Practice_4","70","f","1","1080.7000000178814","1920 x 1080","1920 x 1080","true","1","10","","","","",""
"null","<p style=""font-size: 80px;"">+ 10 points</p>","null","html-keyboard-response","27","141755","0.0-7.0-2.26","5ef0a10e3867d33b6bb063bc","xbjovc","DF","50","M","{""name"":""Chrome"",""chrome"":true,""version"":""106.0"",""blink"":true,""windows"":true,""osname"":""Windows"",""osversion"":""10"",""a"":true}","9:12:26","0","2","Practice_2","70","f","1","1099.8999999761581","1920 x 1080","1920 x 1080","true","1","10","","","","",""
"null","<p style=""font-size: 80px;"">+ 10 points</p>","null","html-keyboard-response","28","144883","0.0-7.0-2.27","5ef0a10e3867d33b6bb063bc","xbjovc","DF","50","M","{""name"":""Chrome"",""chrome"":true,""version"":""106.0"",""blink"":true,""windows"":true,""osname"":""Windows"",""osversion"":""10"",""a"":true}","9:12:26","0","2","Practice_1","74","j","1","1105.9000000059605","1920 x 1080","1920 x 1080","true","1","10","","","","",""
"null","<p style=""font-size: 80px;"">+ 10 points</p>","null","html-keyboard-response","29","148165","0.0-7.0-2.28","5ef0a10e3867d33b6bb063bc","xbjovc","DF","50","M","{""name"":""Chrome"",""chrome"":true,""version"":""106.0"",""blink"":true,""windows"":true,""osname"":""Windows"",""osversion"":""10"",""a"":true}","9:12:26","0","2","Practice_1","74","j","1","1270.9000000059605","1920 x 1080","1920 x 1080","true","1","10","","","","",""
"null","<p style=""font-size: 80px;"">+ 10 points</p>","null","html-keyboard-response","30","151320","0.0-7.0-2.29","5ef0a10e3867d33b6bb063bc","xbjovc","DF","50","M","{""name"":""Chrome"",""chrome"":true,""version"":""106.0"",""blink"":true,""windows"":true,""osname"":""Windows"",""osversion"":""10"",""a"":true}","9:12:26","0","2","Practice_4","70","f","1","1145.3999999761581","1920 x 1080","1920 x 1080","true","1","10","","","","",""
"null","<p style=""font-size: 80px;"">+ 10 points</p>","null","html-keyboard-response","31","154066","0.0-7.0-2.30","5ef0a10e3867d33b6bb063bc","xbjovc","DF","50","M","{""name"":""Chrome"",""chrome"":true,""version"":""106.0"",""blink"":true,""windows"":true,""osname"":""Windows"",""osversion"":""10"",""a"":true}","9:12:26","0","2","Practice_3","74","j","1","720.1999999880791","1920 x 1080","1920 x 1080","true","1","10","","","","",""
"null","<p style=""font-size: 80px;"">+ 10 points</p>","null","html-keyboard-response","32","157387","0.0-7.0-2.31","5ef0a10e3867d33b6bb063bc","xbjovc","DF","50","M","{""name"":""Chrome"",""chrome"":true,""version"":""106.0"",""blink"":true,""windows"":true,""osname"":""Windows"",""osversion"":""10"",""a"":true}","9:12:26","0","2","Practice_1","74","j","1","1301","1920 x 1080","1920 x 1080","true","1","10","","","","",""
"null","<p style=""font-size: 80px;"">+ 10 points</p>","null","html-keyboard-response","33","160783","0.0-7.0-2.32","5ef0a10e3867d33b6bb063bc","xbjovc","DF","50","M","{""name"":""Chrome"",""chrome"":true,""version"":""106.0"",""blink"":true,""windows"":true,""osname"":""Windows"",""osversion"":""10"",""a"":true}","9:12:26","0","2","Practice_1","74","j","1","1381.199999988079","1920 x 1080","1920 x 1080","true","1","10","","","","",""
"null","<p style=""font-size: 80px;"">+ 10 points</p>","null","html-keyboard-response","34","164119","0.0-7.0-2.33","5ef0a10e3867d33b6bb063bc","xbjovc","DF","50","M","{""name"":""Chrome"",""chrome"":true,""version"":""106.0"",""blink"":true,""windows"":true,""osname"":""Windows"",""osversion"":""10"",""a"":true}","9:12:26","0","2","Practice_4","70","f","1","1325.5","1920 x 1080","1920 x 1080","true","1","10","","","","",""
"null","<p style=""font-size: 80px;"">+ 10 points</p>","null","html-keyboard-response","35","166819","0.0-7.0-2.34","5ef0a10e3867d33b6bb063bc","xbjovc","DF","50","M","{""name"":""Chrome"",""chrome"":true,""version"":""106.0"",""blink"":true,""windows"":true,""osname"":""Windows"",""osversion"":""10"",""a"":true}","9:12:26","0","2","Practice_3","74","j","1","678.0999999940395","1920 x 1080","1920 x 1080","true","1","10","","","","",""
"null","<p style=""font-size: 80px;"">+ 10 points</p>","null","html-keyboard-response","36","169747","0.0-7.0-2.35","5ef0a10e3867d33b6bb063bc","xbjovc","DF","50","M","{""name"":""Chrome"",""chrome"":true,""version"":""106.0"",""blink"":true,""windows"":true,""osname"":""Windows"",""osversion"":""10"",""a"":true}","9:12:26","0","2","Practice_2","70","f","1","902.6999999880791","1920 x 1080","1920 x 1080","true","1","10","","","","",""
"null","<p style=""font-size: 80px;"">+ 10 points</p>","null","html-keyboard-response","37","172967","0.0-7.0-2.36","5ef0a10e3867d33b6bb063bc","xbjovc","DF","50","M","{""name"":""Chrome"",""chrome"":true,""version"":""106.0"",""blink"":true,""windows"":true,""osname"":""Windows"",""osversion"":""10"",""a"":true}","9:12:26","0","2","Practice_2","70","f","1","1209.199999988079","1920 x 1080","1920 x 1080","true","1","10","","","","",""
"null","<p style=""font-size: 80px;"">+ 10 points</p>","null","html-keyboard-response","38","175928","0.0-7.0-2.37","5ef0a10e3867d33b6bb063bc","xbjovc","DF","50","M","{""name"":""Chrome"",""chrome"":true,""version"":""106.0"",""blink"":true,""windows"":true,""osname"":""Windows"",""osversion"":""10"",""a"":true}","9:12:26","0","2","Practice_3","74","j","1","951.7999999821186","1920 x 1080","1920 x 1080","true","1","10","","","","",""
"null","<p style=""font-size: 80px;"">+ 10 points</p>","null","html-keyboard-response","39","178804","0.0-7.0-2.38","5ef0a10e3867d33b6bb063bc","xbjovc","DF","50","M","{""name"":""Chrome"",""chrome"":true,""version"":""106.0"",""blink"":true,""windows"":true,""osname"":""Windows"",""osversion"":""10"",""a"":true}","9:12:26","0","2","Practice_2","70","f","1","854.0999999940395","1920 x 1080","1920 x 1080","true","1","10","","","","",""
"null","<p style=""font-size: 80px;"">+ 10 points</p>","null","html-keyboard-response","40","182382","0.0-7.0-2.39","5ef0a10e3867d33b6bb063bc","xbjovc","DF","50","M","{""name"":""Chrome"",""chrome"":true,""version"":""106.0"",""blink"":true,""windows"":true,""osname"":""Windows"",""osversion"":""10"",""a"":true}","9:12:26","0","2","Practice_4","70","f","1","1550.2000000178814","1920 x 1080","1920 x 1080","true","1","10","","","","",""
"10572.59999999404","","","survey-multi-choice","127","192956","0.0-8.0","5ef0a10e3867d33b6bb063bc","xbjovc","DF","50","M","{""name"":""Chrome"",""chrome"":true,""version"":""106.0"",""blink"":true,""windows"":true,""osname"":""Windows"",""osversion"":""10"",""a"":true}","9:12:26","","","","","","","","","","","1","","{""Q0"":""The red one"",""Q1"":""1""}","[0,1]","1","The red one","2"
"null","<p style=""font-size: 80px;"">+ 0 points</p>","null","html-keyboard-response","1","204717","0.0-11.0-2.0","5ef0a10e3867d33b6bb063bc","xbjovc","DF","50","M","{""name"":""Chrome"",""chrome"":true,""version"":""106.0"",""blink"":true,""windows"":true,""osname"":""Windows"",""osversion"":""10"",""a"":true}","9:12:26","1","3","Test_3","74","f","0","1771.9000000059605","1920 x 1080","1920 x 1080","true","1","0","","","","",""
"null","<p style=""font-size: 80px;"">+ 10 points</p>","null","html-keyboard-response","2","207897","0.0-11.0-2.1","5ef0a10e3867d33b6bb063bc","xbjovc","DF","50","M","{""name"":""Chrome"",""chrome"":true,""version"":""106.0"",""blink"":true,""windows"":true,""osname"":""Windows"",""osversion"":""10"",""a"":true}","9:12:26","1","3","Test_4","74","j","1","1167.2000000178814","1920 x 1080","1920 x 1080","true","1","10","","","","",""
"null","<p style=""font-size: 80px;"">+ 10 points</p>","null","html-keyboard-response","3","211141","0.0-11.0-2.2","5ef0a10e3867d33b6bb063bc","xbjovc","DF","50","M","{""name"":""Chrome"",""chrome"":true,""version"":""106.0"",""blink"":true,""windows"":true,""osname"":""Windows"",""osversion"":""10"",""a"":true}","9:12:26","1","3","Test_3","70","f","1","1234.2000000178814","1920 x 1080","1920 x 1080","true","1","10","","","","",""
"null","<p style=""font-size: 80px;"">+ 10 points</p>","null","html-keyboard-response","4","214607","0.0-11.0-2.3","5ef0a10e3867d33b6bb063bc","xbjovc","DF","50","M","{""name"":""Chrome"",""chrome"":true,""version"":""106.0"",""blink"":true,""windows"":true,""osname"":""Windows"",""osversion"":""10"",""a"":true}","9:12:26","1","3","Test_2","74","j","1","1440.7999999821186","1920 x 1080","1920 x 1080","true","1","10","","","","",""
"null","<p style=""font-size: 80px;"">+ 10 points</p>","null","html-keyboard-response","5","217672","0.0-11.0-2.4","5ef0a10e3867d33b6bb063bc","xbjovc","DF","50","M","{""name"":""Chrome"",""chrome"":true,""version"":""106.0"",""blink"":true,""windows"":true,""osname"":""Windows"",""osversion"":""10"",""a"":true}","9:12:26","1","3","Test_2","74","j","1","1052.5","1920 x 1080","1920 x 1080","true","1","10","","","","",""
"null","<p style=""font-size: 80px;"">+ 10 points</p>","null","html-keyboard-response","6","220484","0.0-11.0-2.5","5ef0a10e3867d33b6bb063bc","xbjovc","DF","50","M","{""name"":""Chrome"",""chrome"":true,""version"":""106.0"",""blink"":true,""windows"":true,""osname"":""Windows"",""osversion"":""10"",""a"":true}","9:12:26","1","3","Test_2","74","j","1","791.4000000059605","1920 x 1080","1920 x 1080","true","1","10","","","","",""
"null","<p style=""font-size: 80px;"">+ 10 points</p>","null","html-keyboard-response","7","223130","0.0-11.0-2.6","5ef0a10e3867d33b6bb063bc","xbjovc","DF","50","M","{""name"":""Chrome"",""chrome"":true,""version"":""106.0"",""blink"":true,""windows"":true,""osname"":""Windows"",""osversion"":""10"",""a"":true}","9:12:26","1","3","Test_1","70","f","1","635","1920 x 1080","1920 x 1080","true","1","10","","","","",""
"null","<p style=""font-size: 80px;"">+ 10 points</p>","null","html-keyboard-response","8","225782","0.0-11.0-2.7","5ef0a10e3867d33b6bb063bc","xbjovc","DF","50","M","{""name"":""Chrome"",""chrome"":true,""version"":""106.0"",""blink"":true,""windows"":true,""osname"":""Windows"",""osversion"":""10"",""a"":true}","9:12:26","1","3","Test_2","74","j","1","640.3000000119209","1920 x 1080","1920 x 1080","true","1","10","","","","",""
"null","<p style=""font-size: 80px;"">+ 10 points</p>","null","html-keyboard-response","9","228494","0.0-11.0-2.8","5ef0a10e3867d33b6bb063bc","xbjovc","DF","50","M","{""name"":""Chrome"",""chrome"":true,""version"":""106.0"",""blink"":true,""windows"":true,""osname"":""Windows"",""osversion"":""10"",""a"":true}","9:12:26","1","3","Test_4","74","j","1","693.4000000059605","1920 x 1080","1920 x 1080","true","1","10","","","","",""
"null","<p style=""font-size: 80px;"">+ 10 points</p>","null","html-keyboard-response","10","231250","0.0-11.0-2.9","5ef0a10e3867d33b6bb063bc","xbjovc","DF","50","M","{""name"":""Chrome"",""chrome"":true,""version"":""106.0"",""blink"":true,""windows"":true,""osname"":""Windows"",""osversion"":""10"",""a"":true}","9:12:26","1","3","Test_1","70","f","1","735.5999999940395","1920 x 1080","1920 x 1080","true","1","10","","","","",""
"null","<p style=""font-size: 80px;"">+ 10 points</p>","null","html-keyboard-response","11","233849","0.0-11.0-2.10","5ef0a10e3867d33b6bb063bc","xbjovc","DF","50","M","{""name"":""Chrome"",""chrome"":true,""version"":""106.0"",""blink"":true,""windows"":true,""osname"":""Windows"",""osversion"":""10"",""a"":true}","9:12:26","1","3","Test_1","70","f","1","590.0999999940395","1920 x 1080","1920 x 1080","true","1","10","","","","",""
"null","<p style=""font-size: 80px;"">+ 10 points</p>","null","html-keyboard-response","12","236550","0.0-11.0-2.11","5ef0a10e3867d33b6bb063bc","xbjovc","DF","50","M","{""name"":""Chrome"",""chrome"":true,""version"":""106.0"",""blink"":true,""windows"":true,""osname"":""Windows"",""osversion"":""10"",""a"":true}","9:12:26","1","3","Test_4","74","j","1","691.8000000119209","1920 x 1080","1920 x 1080","true","1","10","","","","",""
"null","<p style=""font-size: 80px;"">+ 10 points</p>","null","html-keyboard-response","13","239328","0.0-11.0-2.12","5ef0a10e3867d33b6bb063bc","xbjovc","DF","50","M","{""name"":""Chrome"",""chrome"":true,""version"":""106.0"",""blink"":true,""windows"":true,""osname"":""Windows"",""osversion"":""10"",""a"":true}","9:12:26","1","3","Test_3","70","f","1","756.1999999880791","1920 x 1080","1920 x 1080","true","1","10","","","","",""
"null","<p style=""font-size: 80px;"">+ 10 points</p>","null","html-keyboard-response","14","242043","0.0-11.0-2.13","5ef0a10e3867d33b6bb063bc","xbjovc","DF","50","M","{""name"":""Chrome"",""chrome"":true,""version"":""106.0"",""blink"":true,""windows"":true,""osname"":""Windows"",""osversion"":""10"",""a"":true}","9:12:26","1","3","Test_4","74","j","1","699.4000000059605","1920 x 1080","1920 x 1080","true","1","10","","","","",""
"null","<p style=""font-size: 80px;"">+ 10 points</p>","null","html-keyboard-response","15","244754","0.0-11.0-2.14","5ef0a10e3867d33b6bb063bc","xbjovc","DF","50","M","{""name"":""Chrome"",""chrome"":true,""version"":""106.0"",""blink"":true,""windows"":true,""osname"":""Windows"",""osversion"":""10"",""a"":true}","9:12:26","1","3","Test_3","70","f","1","692","1920 x 1080","1920 x 1080","true","1","10","","","","",""
"null","<p style=""font-size: 80px;"">+ 10 points</p>","null","html-keyboard-response","16","247481","0.0-11.0-2.15","5ef0a10e3867d33b6bb063bc","xbjovc","DF","50","M","{""name"":""Chrome"",""chrome"":true,""version"":""106.0"",""blink"":true,""windows"":true,""osname"":""Windows"",""osversion"":""10"",""a"":true}","9:12:26","1","3","Test_1","70","f","1","713.1999999880791","1920 x 1080","1920 x 1080","true","1","10","","","","",""
"null","<p style=""font-size: 80px;"">+ 10 points</p>","null","html-keyboard-response","17","251090","0.0-11.0-2.16","5ef0a10e3867d33b6bb063bc","xbjovc","DF","50","M","{""name"":""Chrome"",""chrome"":true,""version"":""106.0"",""blink"":true,""windows"":true,""osname"":""Windows"",""osversion"":""10"",""a"":true}","9:12:26","1","3","Test_3","70","f","1","1590.199999988079","1920 x 1080","1920 x 1080","true","1","10","","","","",""
"null","<p style=""font-size: 80px;"">+ 10 points</p>","null","html-keyboard-response","18","253724","0.0-11.0-2.17","5ef0a10e3867d33b6bb063bc","xbjovc","DF","50","M","{""name"":""Chrome"",""chrome"":true,""version"":""106.0"",""blink"":true,""windows"":true,""osname"":""Windows"",""osversion"":""10"",""a"":true}","9:12:26","1","3","Test_1","70","f","1","615.5","1920 x 1080","1920 x 1080","true","1","10","","","","",""
"null","<p style=""font-size: 80px;"">+ 10 points</p>","null","html-keyboard-response","19","256400","0.0-11.0-2.18","5ef0a10e3867d33b6bb063bc","xbjovc","DF","50","M","{""name"":""Chrome"",""chrome"":true,""version"":""106.0"",""blink"":true,""windows"":true,""osname"":""Windows"",""osversion"":""10"",""a"":true}","9:12:26","1","3","Test_4","74","j","1","658.2999999821186","1920 x 1080","1920 x 1080","true","1","10","","","","",""
"null","<p style=""font-size: 80px;"">+ 10 points</p>","null","html-keyboard-response","20","259112","0.0-11.0-2.19","5ef0a10e3867d33b6bb063bc","xbjovc","DF","50","M","{""name"":""Chrome"",""chrome"":true,""version"":""106.0"",""blink"":true,""windows"":true,""osname"":""Windows"",""osversion"":""10"",""a"":true}","9:12:26","1","3","Test_1","70","f","1","698.3000000119209","1920 x 1080","1920 x 1080","true","1","10","","","","",""
"null","<p style=""font-size: 80px;"">+ 10 points</p>","null","html-keyboard-response","21","261803","0.0-11.0-2.20","5ef0a10e3867d33b6bb063bc","xbjovc","DF","50","M","{""name"":""Chrome"",""chrome"":true,""version"":""106.0"",""blink"":true,""windows"":true,""osname"":""Windows"",""osversion"":""10"",""a"":true}","9:12:26","1","3","Test_4","74","j","1","677.1999999880791","1920 x 1080","1920 x 1080","true","1","10","","","","",""
"null","<p style=""font-size: 80px;"">+ 10 points</p>","null","html-keyboard-response","22","264882","0.0-11.0-2.21","5ef0a10e3867d33b6bb063bc","xbjovc","DF","50","M","{""name"":""Chrome"",""chrome"":true,""version"":""106.0"",""blink"":true,""windows"":true,""osname"":""Windows"",""osversion"":""10"",""a"":true}","9:12:26","1","3","Test_2","74","j","1","1059.5","1920 x 1080","1920 x 1080","true","1","10","","","","",""
"null","<p style=""font-size: 80px;"">+ 10 points</p>","null","html-keyboard-response","23","267650","0.0-11.0-2.22","5ef0a10e3867d33b6bb063bc","xbjovc","DF","50","M","{""name"":""Chrome"",""chrome"":true,""version"":""106.0"",""blink"":true,""windows"":true,""osname"":""Windows"",""osversion"":""10"",""a"":true}","9:12:26","1","3","Test_3","70","f","1","746.9000000059605","1920 x 1080","1920 x 1080","true","1","10","","","","",""
"null","<p style=""font-size: 80px;"">+ 0 points</p>","null","html-keyboard-response","24","270351","0.0-11.0-2.23","5ef0a10e3867d33b6bb063bc","xbjovc","DF","50","M","{""name"":""Chrome"",""chrome"":true,""version"":""106.0"",""blink"":true,""windows"":true,""osname"":""Windows"",""osversion"":""10"",""a"":true}","9:12:26","1","4","Test_1","70","j","0","679.4000000059605","1920 x 1080","1920 x 1080","true","1","0","","","","",""
"null","<p style=""font-size: 80px;"">+ 10 points</p>","null","html-keyboard-response","25","273147","0.0-11.0-2.24","5ef0a10e3867d33b6bb063bc","xbjovc","DF","50","M","{""name"":""Chrome"",""chrome"":true,""version"":""106.0"",""blink"":true,""windows"":true,""osname"":""Windows"",""osversion"":""10"",""a"":true}","9:12:26","1","4","Test_3","74","j","1","777.7000000178814","1920 x 1080","1920 x 1080","true","1","10","","","","",""
"null","<p style=""font-size: 80px;"">+ 10 points</p>","null","html-keyboard-response","26","275808","0.0-11.0-2.25","5ef0a10e3867d33b6bb063bc","xbjovc","DF","50","M","{""name"":""Chrome"",""chrome"":true,""version"":""106.0"",""blink"":true,""windows"":true,""osname"":""Windows"",""osversion"":""10"",""a"":true}","9:12:26","1","4","Test_2","70","f","1","639.8000000119209","1920 x 1080","1920 x 1080","true","1","10","","","","",""
"null","<p style=""font-size: 80px;"">+ 10 points</p>","null","html-keyboard-response","27","278712","0.0-11.0-2.26","5ef0a10e3867d33b6bb063bc","xbjovc","DF","50","M","{""name"":""Chrome"",""chrome"":true,""version"":""106.0"",""blink"":true,""windows"":true,""osname"":""Windows"",""osversion"":""10"",""a"":true}","9:12:26","1","4","Test_4","70","f","1","889.3000000119209","1920 x 1080","1920 x 1080","true","1","10","","","","",""
"null","<p style=""font-size: 80px;"">+ 10 points</p>","null","html-keyboard-response","28","281498","0.0-11.0-2.27","5ef0a10e3867d33b6bb063bc","xbjovc","DF","50","M","{""name"":""Chrome"",""chrome"":true,""version"":""106.0"",""blink"":true,""windows"":true,""osname"":""Windows"",""osversion"":""10"",""a"":true}","9:12:26","1","4","Test_4","70","f","1","774.6999999880791","1920 x 1080","1920 x 1080","true","1","10","","","","",""
"null","<p style=""font-size: 80px;"">+ 10 points</p>","null","html-keyboard-response","29","284097","0.0-11.0-2.28","5ef0a10e3867d33b6bb063bc","xbjovc","DF","50","M","{""name"":""Chrome"",""chrome"":true,""version"":""106.0"",""blink"":true,""windows"":true,""osname"":""Windows"",""osversion"":""10"",""a"":true}","9:12:26","1","4","Test_3","74","j","1","572.4000000059605","1920 x 1080","1920 x 1080","true","1","10","","","","",""
"null","<p style=""font-size: 80px;"">+ 10 points</p>","null","html-keyboard-response","30","287107","0.0-11.0-2.29","5ef0a10e3867d33b6bb063bc","xbjovc","DF","50","M","{""name"":""Chrome"",""chrome"":true,""version"":""106.0"",""blink"":true,""windows"":true,""osname"":""Windows"",""osversion"":""10"",""a"":true}","9:12:26","1","4","Test_1","74","j","1","988.2999999821186","1920 x 1080","1920 x 1080","true","1","10","","","","",""
"null","<p style=""font-size: 80px;"">+ 10 points</p>","null","html-keyboard-response","31","289862","0.0-11.0-2.30","5ef0a10e3867d33b6bb063bc","xbjovc","DF","50","M","{""name"":""Chrome"",""chrome"":true,""version"":""106.0"",""blink"":true,""windows"":true,""osname"":""Windows"",""osversion"":""10"",""a"":true}","9:12:26","1","4","Test_1","74","j","1","734.2000000178814","1920 x 1080","1920 x 1080","true","1","10","","","","",""
"null","<p style=""font-size: 80px;"">+ 10 points</p>","null","html-keyboard-response","32","292406","0.0-11.0-2.31","5ef0a10e3867d33b6bb063bc","xbjovc","DF","50","M","{""name"":""Chrome"",""chrome"":true,""version"":""106.0"",""blink"":true,""windows"":true,""osname"":""Windows"",""osversion"":""10"",""a"":true}","9:12:26","1","4","Test_2","70","f","1","531.5999999940395","1920 x 1080","1920 x 1080","true","1","10","","","","",""
"null","<p style=""font-size: 80px;"">+ 10 points</p>","null","html-keyboard-response","33","295019","0.0-11.0-2.32","5ef0a10e3867d33b6bb063bc","xbjovc","DF","50","M","{""name"":""Chrome"",""chrome"":true,""version"":""106.0"",""blink"":true,""windows"":true,""osname"":""Windows"",""osversion"":""10"",""a"":true}","9:12:26","1","4","Test_2","70","f","1","596.1999999880791","1920 x 1080","1920 x 1080","true","1","10","","","","",""
"null","<p style=""font-size: 80px;"">+ 10 points</p>","null","html-keyboard-response","34","297679","0.0-11.0-2.33","5ef0a10e3867d33b6bb063bc","xbjovc","DF","50","M","{""name"":""Chrome"",""chrome"":true,""version"":""106.0"",""blink"":true,""windows"":true,""osname"":""Windows"",""osversion"":""10"",""a"":true}","9:12:26","1","4","Test_1","74","j","1","642.8000000119209","1920 x 1080","1920 x 1080","true","1","10","","","","",""
"null","<p style=""font-size: 80px;"">+ 10 points</p>","null","html-keyboard-response","35","300428","0.0-11.0-2.34","5ef0a10e3867d33b6bb063bc","xbjovc","DF","50","M","{""name"":""Chrome"",""chrome"":true,""version"":""106.0"",""blink"":true,""windows"":true,""osname"":""Windows"",""osversion"":""10"",""a"":true}","9:12:26","1","4","Test_3","74","j","1","731.4000000059605","1920 x 1080","1920 x 1080","true","1","10","","","","",""
"null","<p style=""font-size: 80px;"">+ 10 points</p>","null","html-keyboard-response","36","303251","0.0-11.0-2.35","5ef0a10e3867d33b6bb063bc","xbjovc","DF","50","M","{""name"":""Chrome"",""chrome"":true,""version"":""106.0"",""blink"":true,""windows"":true,""osname"":""Windows"",""osversion"":""10"",""a"":true}","9:12:26","1","4","Test_1","74","j","1","803.6999999880791","1920 x 1080","1920 x 1080","true","1","10","","","","",""
"null","<p style=""font-size: 80px;"">+ 10 points</p>","null","html-keyboard-response","37","306066","0.0-11.0-2.36","5ef0a10e3867d33b6bb063bc","xbjovc","DF","50","M","{""name"":""Chrome"",""chrome"":true,""version"":""106.0"",""blink"":true,""windows"":true,""osname"":""Windows"",""osversion"":""10"",""a"":true}","9:12:26","1","4","Test_4","70","f","1","797.5","1920 x 1080","1920 x 1080","true","1","10","","","","",""
"null","<p style=""font-size: 80px;"">+ 10 points</p>","null","html-keyboard-response","38","308993","0.0-11.0-2.37","5ef0a10e3867d33b6bb063bc","xbjovc","DF","50","M","{""name"":""Chrome"",""chrome"":true,""version"":""106.0"",""blink"":true,""windows"":true,""osname"":""Windows"",""osversion"":""10"",""a"":true}","9:12:26","1","4","Test_4","70","f","1","906.9000000059605","1920 x 1080","1920 x 1080","true","1","10","","","","",""
"null","<p style=""font-size: 80px;"">+ 10 points</p>","null","html-keyboard-response","39","311605","0.0-11.0-2.38","5ef0a10e3867d33b6bb063bc","xbjovc","DF","50","M","{""name"":""Chrome"",""chrome"":true,""version"":""106.0"",""blink"":true,""windows"":true,""osname"":""Windows"",""osversion"":""10"",""a"":true}","9:12:26","1","4","Test_3","74","j","1","597.3000000119209","1920 x 1080","1920 x 1080","true","1","10","","","","",""
"null","<p style=""font-size: 80px;"">+ 10 points</p>","null","html-keyboard-response","40","314563","0.0-11.0-2.39","5ef0a10e3867d33b6bb063bc","xbjovc","DF","50","M","{""name"":""Chrome"",""chrome"":true,""version"":""106.0"",""blink"":true,""windows"":true,""osname"":""Windows"",""osversion"":""10"",""a"":true}","9:12:26","1","4","Test_4","70","f","1","935.5999999940395","1920 x 1080","1920 x 1080","true","1","10","","","","",""
"null","<p style=""font-size: 80px;"">+ 10 points</p>","null","html-keyboard-response","41","317379","0.0-11.0-2.40","5ef0a10e3867d33b6bb063bc","xbjovc","DF","50","M","{""name"":""Chrome"",""chrome"":true,""version"":""106.0"",""blink"":true,""windows"":true,""osname"":""Windows"",""osversion"":""10"",""a"":true}","9:12:26","1","4","Test_2","70","f","1","793.3999999761581","1920 x 1080","1920 x 1080","true","1","10","","","","",""
"null","<p style=""font-size: 80px;"">+ 10 points</p>","null","html-keyboard-response","42","320043","0.0-11.0-2.41","5ef0a10e3867d33b6bb063bc","xbjovc","DF","50","M","{""name"":""Chrome"",""chrome"":true,""version"":""106.0"",""blink"":true,""windows"":true,""osname"":""Windows"",""osversion"":""10"",""a"":true}","9:12:26","1","4","Test_3","74","j","1","648.8000000119209","1920 x 1080","1920 x 1080","true","1","10","","","","",""
"null","<p style=""font-size: 80px;"">+ 10 points</p>","null","html-keyboard-response","43","323412","0.0-11.0-2.42","5ef0a10e3867d33b6bb063bc","xbjovc","DF","50","M","{""name"":""Chrome"",""chrome"":true,""version"":""106.0"",""blink"":true,""windows"":true,""osname"":""Windows"",""osversion"":""10"",""a"":true}","9:12:26","1","4","Test_2","70","f","1","1345.1000000238419","1920 x 1080","1920 x 1080","true","1","10","","","","",""
"null","<p style=""font-size: 80px;"">+ 0 points</p>","null","html-keyboard-response","44","326047","0.0-11.0-2.43","5ef0a10e3867d33b6bb063bc","xbjovc","DF","50","M","{""name"":""Chrome"",""chrome"":true,""version"":""106.0"",""blink"":true,""windows"":true,""osname"":""Windows"",""osversion"":""10"",""a"":true}","9:12:26","1","3","Test_3","74","f","0","619.2000000178814","1920 x 1080","1920 x 1080","true","1","0","","","","",""
"null","<p style=""font-size: 80px;"">+ 10 points</p>","null","html-keyboard-response","45","328874","0.0-11.0-2.44","5ef0a10e3867d33b6bb063bc","xbjovc","DF","50","M","{""name"":""Chrome"",""chrome"":true,""version"":""106.0"",""blink"":true,""windows"":true,""osname"":""Windows"",""osversion"":""10"",""a"":true}","9:12:26","1","3","Test_3","70","f","1","816.4000000059605","1920 x 1080","1920 x 1080","true","1","10","","","","",""
"null","<p style=""font-size: 80px;"">+ 10 points</p>","null","html-keyboard-response","46","331461","0.0-11.0-2.45","5ef0a10e3867d33b6bb063bc","xbjovc","DF","50","M","{""name"":""Chrome"",""chrome"":true,""version"":""106.0"",""blink"":true,""windows"":true,""osname"":""Windows"",""osversion"":""10"",""a"":true}","9:12:26","1","3","Test_4","74","j","1","577.5","1920 x 1080","1920 x 1080","true","1","10","","","","",""
"null","<p style=""font-size: 80px;"">+ 10 points</p>","null","html-keyboard-response","47","334193","0.0-11.0-2.46","5ef0a10e3867d33b6bb063bc","xbjovc","DF","50","M","{""name"":""Chrome"",""chrome"":true,""version"":""106.0"",""blink"":true,""windows"":true,""osname"":""Windows"",""osversion"":""10"",""a"":true}","9:12:26","1","3","Test_3","70","f","1","701.7000000178814","1920 x 1080","1920 x 1080","true","1","10","","","","",""
"null","<p style=""font-size: 80px;"">+ 10 points</p>","null","html-keyboard-response","48","336958","0.0-11.0-2.47","5ef0a10e3867d33b6bb063bc","xbjovc","DF","50","M","{""name"":""Chrome"",""chrome"":true,""version"":""106.0"",""blink"":true,""windows"":true,""osname"":""Windows"",""osversion"":""10"",""a"":true}","9:12:26","1","3","Test_1","70","f","1","750","1920 x 1080","1920 x 1080","true","1","10","","","","",""
"null","<p style=""font-size: 80px;"">+ 10 points</p>","null","html-keyboard-response","49","339604","0.0-11.0-2.48","5ef0a10e3867d33b6bb063bc","xbjovc","DF","50","M","{""name"":""Chrome"",""chrome"":true,""version"":""106.0"",""blink"":true,""windows"":true,""osname"":""Windows"",""osversion"":""10"",""a"":true}","9:12:26","1","3","Test_1","70","f","1","621.2000000178814","1920 x 1080","1920 x 1080","true","1","10","","","","",""
"null","<p style=""font-size: 80px;"">+ 10 points</p>","null","html-keyboard-response","50","342203","0.0-11.0-2.49","5ef0a10e3867d33b6bb063bc","xbjovc","DF","50","M","{""name"":""Chrome"",""chrome"":true,""version"":""106.0"",""blink"":true,""windows"":true,""osname"":""Windows"",""osversion"":""10"",""a"":true}","9:12:26","1","3","Test_1","70","f","1","586.1000000238419","1920 x 1080","1920 x 1080","true","1","10","","","","",""
"null","<p style=""font-size: 80px;"">+ 10 points</p>","null","html-keyboard-response","51","344769","0.0-11.0-2.50","5ef0a10e3867d33b6bb063bc","xbjovc","DF","50","M","{""name"":""Chrome"",""chrome"":true,""version"":""106.0"",""blink"":true,""windows"":true,""osname"":""Windows"",""osversion"":""10"",""a"":true}","9:12:26","1","3","Test_2","74","j","1","544.1000000238419","1920 x 1080","1920 x 1080","true","1","10","","","","",""
"null","<p style=""font-size: 80px;"">+ 10 points</p>","null","html-keyboard-response","52","347539","0.0-11.0-2.51","5ef0a10e3867d33b6bb063bc","xbjovc","DF","50","M","{""name"":""Chrome"",""chrome"":true,""version"":""106.0"",""blink"":true,""windows"":true,""osname"":""Windows"",""osversion"":""10"",""a"":true}","9:12:26","1","3","Test_3","70","f","1","738.8000000119209","1920 x 1080","1920 x 1080","true","1","10","","","","",""
"null","<p style=""font-size: 80px;"">+ 10 points</p>","null","html-keyboard-response","53","350289","0.0-11.0-2.52","5ef0a10e3867d33b6bb063bc","xbjovc","DF","50","M","{""name"":""Chrome"",""chrome"":true,""version"":""106.0"",""blink"":true,""windows"":true,""osname"":""Windows"",""osversion"":""10"",""a"":true}","9:12:26","1","3","Test_2","74","j","1","732.6000000238419","1920 x 1080","1920 x 1080","true","1","10","","","","",""
"null","<p style=""font-size: 80px;"">+ 10 points</p>","null","html-keyboard-response","54","353023","0.0-11.0-2.53","5ef0a10e3867d33b6bb063bc","xbjovc","DF","50","M","{""name"":""Chrome"",""chrome"":true,""version"":""106.0"",""blink"":true,""windows"":true,""osname"":""Windows"",""osversion"":""10"",""a"":true}","9:12:26","1","3","Test_4","74","j","1","712.1999999880791","1920 x 1080","1920 x 1080","true","1","10","","","","",""
"null","<p style=""font-size: 80px;"">+ 10 points</p>","null","html-keyboard-response","55","355976","0.0-11.0-2.54","5ef0a10e3867d33b6bb063bc","xbjovc","DF","50","M","{""name"":""Chrome"",""chrome"":true,""version"":""106.0"",""blink"":true,""windows"":true,""osname"":""Windows"",""osversion"":""10"",""a"":true}","9:12:26","1","3","Test_2","74","j","1","939.4000000059605","1920 x 1080","1920 x 1080","true","1","10","","","","",""
"null","<p style=""font-size: 80px;"">+ 10 points</p>","null","html-keyboard-response","56","358704","0.0-11.0-2.55","5ef0a10e3867d33b6bb063bc","xbjovc","DF","50","M","{""name"":""Chrome"",""chrome"":true,""version"":""106.0"",""blink"":true,""windows"":true,""osname"":""Windows"",""osversion"":""10"",""a"":true}","9:12:26","1","3","Test_4","74","j","1","711.7999999821186","1920 x 1080","1920 x 1080","true","1","10","","","","",""
"null","<p style=""font-size: 80px;"">+ 10 points</p>","null","html-keyboard-response","57","361339","0.0-11.0-2.56","5ef0a10e3867d33b6bb063bc","xbjovc","DF","50","M","{""name"":""Chrome"",""chrome"":true,""version"":""106.0"",""blink"":true,""windows"":true,""osname"":""Windows"",""osversion"":""10"",""a"":true}","9:12:26","1","3","Test_4","74","j","1","619.0999999940395","1920 x 1080","1920 x 1080","true","1","10","","","","",""
"null","<p style=""font-size: 80px;"">+ 10 points</p>","null","html-keyboard-response","58","363986","0.0-11.0-2.57","5ef0a10e3867d33b6bb063bc","xbjovc","DF","50","M","{""name"":""Chrome"",""chrome"":true,""version"":""106.0"",""blink"":true,""windows"":true,""osname"":""Windows"",""osversion"":""10"",""a"":true}","9:12:26","1","3","Test_3","70","f","1","624.2999999821186","1920 x 1080","1920 x 1080","true","1","10","","","","",""
"null","<p style=""font-size: 80px;"">+ 10 points</p>","null","html-keyboard-response","59","366685","0.0-11.0-2.58","5ef0a10e3867d33b6bb063bc","xbjovc","DF","50","M","{""name"":""Chrome"",""chrome"":true,""version"":""106.0"",""blink"":true,""windows"":true,""osname"":""Windows"",""osversion"":""10"",""a"":true}","9:12:26","1","3","Test_2","74","j","1","685.4000000059605","1920 x 1080","1920 x 1080","true","1","10","","","","",""
"null","<p style=""font-size: 80px;"">+ 10 points</p>","null","html-keyboard-response","60","369303","0.0-11.0-2.59","5ef0a10e3867d33b6bb063bc","xbjovc","DF","50","M","{""name"":""Chrome"",""chrome"":true,""version"":""106.0"",""blink"":true,""windows"":true,""osname"":""Windows"",""osversion"":""10"",""a"":true}","9:12:26","1","3","Test_1","70","f","1","605.5","1920 x 1080","1920 x 1080","true","1","10","","","","",""
"null","<p style=""font-size: 80px;"">+ 10 points</p>","null","html-keyboard-response","61","371954","0.0-11.0-2.60","5ef0a10e3867d33b6bb063bc","xbjovc","DF","50","M","{""name"":""Chrome"",""chrome"":true,""version"":""106.0"",""blink"":true,""windows"":true,""osname"":""Windows"",""osversion"":""10"",""a"":true}","9:12:26","1","3","Test_1","70","f","1","631.5999999940395","1920 x 1080","1920 x 1080","true","1","10","","","","",""
"null","<p style=""font-size: 80px;"">+ 0 points</p>","null","html-keyboard-response","62","374657","0.0-11.0-2.61","5ef0a10e3867d33b6bb063bc","xbjovc","DF","50","M","{""name"":""Chrome"",""chrome"":true,""version"":""106.0"",""blink"":true,""windows"":true,""osname"":""Windows"",""osversion"":""10"",""a"":true}","9:12:26","1","4","Test_4","74","f","0","681.1999999880791","1920 x 1080","1920 x 1080","true","1","0","","","","",""
"null","<p style=""font-size: 80px;"">+ 10 points</p>","null","html-keyboard-response","63","377254","0.0-11.0-2.62","5ef0a10e3867d33b6bb063bc","xbjovc","DF","50","M","{""name"":""Chrome"",""chrome"":true,""version"":""106.0"",""blink"":true,""windows"":true,""osname"":""Windows"",""osversion"":""10"",""a"":true}","9:12:26","1","4","Test_2","70","f","1","581.5999999940395","1920 x 1080","1920 x 1080","true","1","10","","","","",""
"null","<p style=""font-size: 80px;"">+ 10 points</p>","null","html-keyboard-response","64","379953","0.0-11.0-2.63","5ef0a10e3867d33b6bb063bc","xbjovc","DF","50","M","{""name"":""Chrome"",""chrome"":true,""version"":""106.0"",""blink"":true,""windows"":true,""osname"":""Windows"",""osversion"":""10"",""a"":true}","9:12:26","1","4","Test_1","74","j","1","675.4000000059605","1920 x 1080","1920 x 1080","true","1","10","","","","",""
"null","<p style=""font-size: 80px;"">+ 10 points</p>","null","html-keyboard-response","65","382828","0.0-11.0-2.64","5ef0a10e3867d33b6bb063bc","xbjovc","DF","50","M","{""name"":""Chrome"",""chrome"":true,""version"":""106.0"",""blink"":true,""windows"":true,""osname"":""Windows"",""osversion"":""10"",""a"":true}","9:12:26","1","4","Test_1","74","j","1","861.8000000119209","1920 x 1080","1920 x 1080","true","1","10","","","","",""
"null","<p style=""font-size: 80px;"">+ 10 points</p>","null","html-keyboard-response","66","385539","0.0-11.0-2.65","5ef0a10e3867d33b6bb063bc","xbjovc","DF","50","M","{""name"":""Chrome"",""chrome"":true,""version"":""106.0"",""blink"":true,""windows"":true,""osname"":""Windows"",""osversion"":""10"",""a"":true}","9:12:26","1","4","Test_1","74","j","1","689.5999999940395","1920 x 1080","1920 x 1080","true","1","10","","","","",""
"null","<p style=""font-size: 80px;"">+ 10 points</p>","null","html-keyboard-response","67","388660","0.0-11.0-2.66","5ef0a10e3867d33b6bb063bc","xbjovc","DF","50","M","{""name"":""Chrome"",""chrome"":true,""version"":""106.0"",""blink"":true,""windows"":true,""osname"":""Windows"",""osversion"":""10"",""a"":true}","9:12:26","1","4","Test_2","70","f","1","1093.0999999940395","1920 x 1080","1920 x 1080","true","1","10","","","","",""
"null","<p style=""font-size: 80px;"">+ 10 points</p>","null","html-keyboard-response","68","391405","0.0-11.0-2.67","5ef0a10e3867d33b6bb063bc","xbjovc","DF","50","M","{""name"":""Chrome"",""chrome"":true,""version"":""106.0"",""blink"":true,""windows"":true,""osname"":""Windows"",""osversion"":""10"",""a"":true}","9:12:26","1","4","Test_4","70","f","1","728.7999999821186","1920 x 1080","1920 x 1080","true","1","10","","","","",""
"null","<p style=""font-size: 80px;"">+ 0 points</p>","null","html-keyboard-response","69","394263","0.0-11.0-2.68","5ef0a10e3867d33b6bb063bc","xbjovc","DF","50","M","{""name"":""Chrome"",""chrome"":true,""version"":""106.0"",""blink"":true,""windows"":true,""osname"":""Windows"",""osversion"":""10"",""a"":true}","9:12:26","1","4","Test_4","74","f","0","853","1920 x 1080","1920 x 1080","true","1","0","","","","",""
"null","<p style=""font-size: 80px;"">+ 10 points</p>","null","html-keyboard-response","70","397093","0.0-11.0-2.69","5ef0a10e3867d33b6bb063bc","xbjovc","DF","50","M","{""name"":""Chrome"",""chrome"":true,""version"":""106.0"",""blink"":true,""windows"":true,""osname"":""Windows"",""osversion"":""10"",""a"":true}","9:12:26","1","4","Test_1","74","j","1","822.9000000059605","1920 x 1080","1920 x 1080","true","1","10","","","","",""
"null","<p style=""font-size: 80px;"">+ 10 points</p>","null","html-keyboard-response","71","399943","0.0-11.0-2.70","5ef0a10e3867d33b6bb063bc","xbjovc","DF","50","M","{""name"":""Chrome"",""chrome"":true,""version"":""106.0"",""blink"":true,""windows"":true,""osname"":""Windows"",""osversion"":""10"",""a"":true}","9:12:26","1","4","Test_2","70","f","1","833.0999999940395","1920 x 1080","1920 x 1080","true","1","10","","","","",""
"null","<p style=""font-size: 80px;"">+ 10 points</p>","null","html-keyboard-response","72","402583","0.0-11.0-2.71","5ef0a10e3867d33b6bb063bc","xbjovc","DF","50","M","{""name"":""Chrome"",""chrome"":true,""version"":""106.0"",""blink"":true,""windows"":true,""osname"":""Windows"",""osversion"":""10"",""a"":true}","9:12:26","1","4","Test_3","74","j","1","628.4000000059605","1920 x 1080","1920 x 1080","true","1","10","","","","",""
"null","<p style=""font-size: 80px;"">+ 10 points</p>","null","html-keyboard-response","73","405625","0.0-11.0-2.72","5ef0a10e3867d33b6bb063bc","xbjovc","DF","50","M","{""name"":""Chrome"",""chrome"":true,""version"":""106.0"",""blink"":true,""windows"":true,""osname"":""Windows"",""osversion"":""10"",""a"":true}","9:12:26","1","4","Test_2","70","f","1","1029.5","1920 x 1080","1920 x 1080","true","1","10","","","","",""
"null","<p style=""font-size: 80px;"">+ 10 points</p>","null","html-keyboard-response","74","408352","0.0-11.0-2.73","5ef0a10e3867d33b6bb063bc","xbjovc","DF","50","M","{""name"":""Chrome"",""chrome"":true,""version"":""106.0"",""blink"":true,""windows"":true,""osname"":""Windows"",""osversion"":""10"",""a"":true}","9:12:26","1","4","Test_4","70","f","1","711","1920 x 1080","1920 x 1080","true","1","10","","","","",""
"null","<p style=""font-size: 80px;"">+ 10 points</p>","null","html-keyboard-response","75","411208","0.0-11.0-2.74","5ef0a10e3867d33b6bb063bc","xbjovc","DF","50","M","{""name"":""Chrome"",""chrome"":true,""version"":""106.0"",""blink"":true,""windows"":true,""osname"":""Windows"",""osversion"":""10"",""a"":true}","9:12:26","1","4","Test_2","70","f","1","845.3999999761581","1920 x 1080","1920 x 1080","true","1","10","","","","",""
"null","<p style=""font-size: 80px;"">+ 10 points</p>","null","html-keyboard-response","76","413948","0.0-11.0-2.75","5ef0a10e3867d33b6bb063bc","xbjovc","DF","50","M","{""name"":""Chrome"",""chrome"":true,""version"":""106.0"",""blink"":true,""windows"":true,""osname"":""Windows"",""osversion"":""10"",""a"":true}","9:12:26","1","4","Test_3","74","j","1","715.2999999821186","1920 x 1080","1920 x 1080","true","1","10","","","","",""
"null","<p style=""font-size: 80px;"">+ 10 points</p>","null","html-keyboard-response","77","416625","0.0-11.0-2.76","5ef0a10e3867d33b6bb063bc","xbjovc","DF","50","M","{""name"":""Chrome"",""chrome"":true,""version"":""106.0"",""blink"":true,""windows"":true,""osname"":""Windows"",""osversion"":""10"",""a"":true}","9:12:26","1","4","Test_3","74","j","1","658.8000000119209","1920 x 1080","1920 x 1080","true","1","10","","","","",""
"null","<p style=""font-size: 80px;"">+ 10 points</p>","null","html-keyboard-response","78","419433","0.0-11.0-2.77","5ef0a10e3867d33b6bb063bc","xbjovc","DF","50","M","{""name"":""Chrome"",""chrome"":true,""version"":""106.0"",""blink"":true,""windows"":true,""osname"":""Windows"",""osversion"":""10"",""a"":true}","9:12:26","1","4","Test_1","74","j","1","792.5999999940395","1920 x 1080","1920 x 1080","true","1","10","","","","",""
"null","<p style=""font-size: 80px;"">+ 10 points</p>","null","html-keyboard-response","79","422365","0.0-11.0-2.78","5ef0a10e3867d33b6bb063bc","xbjovc","DF","50","M","{""name"":""Chrome"",""chrome"":true,""version"":""106.0"",""blink"":true,""windows"":true,""osname"":""Windows"",""osversion"":""10"",""a"":true}","9:12:26","1","4","Test_4","70","f","1","908.5","1920 x 1080","1920 x 1080","true","1","10","","","","",""
"null","<p style=""font-size: 80px;"">+ 10 points</p>","null","html-keyboard-response","80","425036","0.0-11.0-2.79","5ef0a10e3867d33b6bb063bc","xbjovc","DF","50","M","{""name"":""Chrome"",""chrome"":true,""version"":""106.0"",""blink"":true,""windows"":true,""osname"":""Windows"",""osversion"":""10"",""a"":true}","9:12:26","1","4","Test_3","74","j","1","649.5999999940395","1920 x 1080","1920 x 1080","true","1","10","","","","",""
"null","<p style=""font-size: 80px;"">+ 10 points</p>","null","html-keyboard-response","81","427732","0.0-11.0-2.80","5ef0a10e3867d33b6bb063bc","xbjovc","DF","50","M","{""name"":""Chrome"",""chrome"":true,""version"":""106.0"",""blink"":true,""windows"":true,""osname"":""Windows"",""osversion"":""10"",""a"":true}","9:12:26","1","4","Test_2","70","f","1","670.2999999821186","1920 x 1080","1920 x 1080","true","1","10","","","","",""
"null","<p style=""font-size: 80px;"">+ 10 points</p>","null","html-keyboard-response","82","430477","0.0-11.0-2.81","5ef0a10e3867d33b6bb063bc","xbjovc","DF","50","M","{""name"":""Chrome"",""chrome"":true,""version"":""106.0"",""blink"":true,""windows"":true,""osname"":""Windows"",""osversion"":""10"",""a"":true}","9:12:26","1","4","Test_4","70","f","1","726.7999999821186","1920 x 1080","1920 x 1080","true","1","10","","","","",""
"null","<p style=""font-size: 80px;"">+ 10 points</p>","null","html-keyboard-response","83","433196","0.0-11.0-2.82","5ef0a10e3867d33b6bb063bc","xbjovc","DF","50","M","{""name"":""Chrome"",""chrome"":true,""version"":""106.0"",""blink"":true,""windows"":true,""osname"":""Windows"",""osversion"":""10"",""a"":true}","9:12:26","1","4","Test_1","74","j","1","699.6999999880791","1920 x 1080","1920 x 1080","true","1","10","","","","",""
"null","<p style=""font-size: 80px;"">+ 10 points</p>","null","html-keyboard-response","84","435867","0.0-11.0-2.83","5ef0a10e3867d33b6bb063bc","xbjovc","DF","50","M","{""name"":""Chrome"",""chrome"":true,""version"":""106.0"",""blink"":true,""windows"":true,""osname"":""Windows"",""osversion"":""10"",""a"":true}","9:12:26","1","4","Test_3","74","j","1","651.2000000178814","1920 x 1080","1920 x 1080","true","1","10","","","","",""
"null","<p style=""font-size: 80px;"">+ 10 points</p>","null","html-keyboard-response","85","438427","0.0-11.0-2.84","5ef0a10e3867d33b6bb063bc","xbjovc","DF","50","M","{""name"":""Chrome"",""chrome"":true,""version"":""106.0"",""blink"":true,""windows"":true,""osname"":""Windows"",""osversion"":""10"",""a"":true}","9:12:26","1","4","Test_3","74","j","1","546.1999999880791","1920 x 1080","1920 x 1080","true","1","10","","","","",""
"null","<p style=""font-size: 80px;"">+ 0 points</p>","null","html-keyboard-response","86","441218","0.0-11.0-2.85","5ef0a10e3867d33b6bb063bc","xbjovc","DF","50","M","{""name"":""Chrome"",""chrome"":true,""version"":""106.0"",""blink"":true,""windows"":true,""osname"":""Windows"",""osversion"":""10"",""a"":true}","9:12:26","1","3","Test_2","70","j","0","759.5","1920 x 1080","1920 x 1080","true","1","0","","","","",""
"null","<p style=""font-size: 80px;"">+ 10 points</p>","null","html-keyboard-response","87","444091","0.0-11.0-2.86","5ef0a10e3867d33b6bb063bc","xbjovc","DF","50","M","{""name"":""Chrome"",""chrome"":true,""version"":""106.0"",""blink"":true,""windows"":true,""osname"":""Windows"",""osversion"":""10"",""a"":true}","9:12:26","1","3","Test_3","70","f","1","854.7999999821186","1920 x 1080","1920 x 1080","true","1","10","","","","",""
"null","<p style=""font-size: 80px;"">+ 10 points</p>","null","html-keyboard-response","88","446959","0.0-11.0-2.87","5ef0a10e3867d33b6bb063bc","xbjovc","DF","50","M","{""name"":""Chrome"",""chrome"":true,""version"":""106.0"",""blink"":true,""windows"":true,""osname"":""Windows"",""osversion"":""10"",""a"":true}","9:12:26","1","3","Test_2","74","j","1","840.7999999821186","1920 x 1080","1920 x 1080","true","1","10","","","","",""
"null","<p style=""font-size: 80px;"">+ 10 points</p>","null","html-keyboard-response","89","449590","0.0-11.0-2.88","5ef0a10e3867d33b6bb063bc","xbjovc","DF","50","M","{""name"":""Chrome"",""chrome"":true,""version"":""106.0"",""blink"":true,""windows"":true,""osname"":""Windows"",""osversion"":""10"",""a"":true}","9:12:26","1","3","Test_1","70","f","1","621.7999999821186","1920 x 1080","1920 x 1080","true","1","10","","","","",""
"null","<p style=""font-size: 80px;"">+ 10 points</p>","null","html-keyboard-response","90","452345","0.0-11.0-2.89","5ef0a10e3867d33b6bb063bc","xbjovc","DF","50","M","{""name"":""Chrome"",""chrome"":true,""version"":""106.0"",""blink"":true,""windows"":true,""osname"":""Windows"",""osversion"":""10"",""a"":true}","9:12:26","1","3","Test_2","74","j","1","743.5999999940395","1920 x 1080","1920 x 1080","true","1","10","","","","",""
"null","<p style=""font-size: 80px;"">+ 10 points</p>","null","html-keyboard-response","91","454969","0.0-11.0-2.90","5ef0a10e3867d33b6bb063bc","xbjovc","DF","50","M","{""name"":""Chrome"",""chrome"":true,""version"":""106.0"",""blink"":true,""windows"":true,""osname"":""Windows"",""osversion"":""10"",""a"":true}","9:12:26","1","3","Test_1","70","f","1","610.3000000119209","1920 x 1080","1920 x 1080","true","1","10","","","","",""
"null","<p style=""font-size: 80px;"">+ 10 points</p>","null","html-keyboard-response","92","457811","0.0-11.0-2.91","5ef0a10e3867d33b6bb063bc","xbjovc","DF","50","M","{""name"":""Chrome"",""chrome"":true,""version"":""106.0"",""blink"":true,""windows"":true,""osname"":""Windows"",""osversion"":""10"",""a"":true}","9:12:26","1","3","Test_3","70","f","1","816.6999999880791","1920 x 1080","1920 x 1080","true","1","10","","","","",""
"null","<p style=""font-size: 80px;"">+ 10 points</p>","null","html-keyboard-response","93","460464","0.0-11.0-2.92","5ef0a10e3867d33b6bb063bc","xbjovc","DF","50","M","{""name"":""Chrome"",""chrome"":true,""version"":""106.0"",""blink"":true,""windows"":true,""osname"":""Windows"",""osversion"":""10"",""a"":true}","9:12:26","1","3","Test_1","70","f","1","633.2000000178814","1920 x 1080","1920 x 1080","true","1","10","","","","",""
"null","<p style=""font-size: 80px;"">+ 10 points</p>","null","html-keyboard-response","94","463391","0.0-11.0-2.93","5ef0a10e3867d33b6bb063bc","xbjovc","DF","50","M","{""name"":""Chrome"",""chrome"":true,""version"":""106.0"",""blink"":true,""windows"":true,""osname"":""Windows"",""osversion"":""10"",""a"":true}","9:12:26","1","3","Test_2","74","j","1","902.7999999821186","1920 x 1080","1920 x 1080","true","1","10","","","","",""
"null","<p style=""font-size: 80px;"">+ 10 points</p>","null","html-keyboard-response","95","465997","0.0-11.0-2.94","5ef0a10e3867d33b6bb063bc","xbjovc","DF","50","M","{""name"":""Chrome"",""chrome"":true,""version"":""106.0"",""blink"":true,""windows"":true,""osname"":""Windows"",""osversion"":""10"",""a"":true}","9:12:26","1","3","Test_4","74","j","1","588","1920 x 1080","1920 x 1080","true","1","10","","","","",""
"null","<p style=""font-size: 80px;"">+ 10 points</p>","null","html-keyboard-response","96","468609","0.0-11.0-2.95","5ef0a10e3867d33b6bb063bc","xbjovc","DF","50","M","{""name"":""Chrome"",""chrome"":true,""version"":""106.0"",""blink"":true,""windows"":true,""osname"":""Windows"",""osversion"":""10"",""a"":true}","9:12:26","1","3","Test_3","70","f","1","581.4000000059605","1920 x 1080","1920 x 1080","true","1","10","","","","",""
"null","<p style=""font-size: 80px;"">+ 10 points</p>","null","html-keyboard-response","97","471312","0.0-11.0-2.96","5ef0a10e3867d33b6bb063bc","xbjovc","DF","50","M","{""name"":""Chrome"",""chrome"":true,""version"":""106.0"",""blink"":true,""windows"":true,""osname"":""Windows"",""osversion"":""10"",""a"":true}","9:12:26","1","3","Test_3","70","f","1","684.9000000059605","1920 x 1080","1920 x 1080","true","1","10","","","","",""
"null","<p style=""font-size: 80px;"">+ 10 points</p>","null","html-keyboard-response","98","473975","0.0-11.0-2.97","5ef0a10e3867d33b6bb063bc","xbjovc","DF","50","M","{""name"":""Chrome"",""chrome"":true,""version"":""106.0"",""blink"":true,""windows"":true,""osname"":""Windows"",""osversion"":""10"",""a"":true}","9:12:26","1","3","Test_1","70","f","1","653.5999999940395","1920 x 1080","1920 x 1080","true","1","10","","","","",""
"null","<p style=""font-size: 80px;"">+ 10 points</p>","null","html-keyboard-response","99","477153","0.0-11.0-2.98","5ef0a10e3867d33b6bb063bc","xbjovc","DF","50","M","{""name"":""Chrome"",""chrome"":true,""version"":""106.0"",""blink"":true,""windows"":true,""osname"":""Windows"",""osversion"":""10"",""a"":true}","9:12:26","1","3","Test_3","70","f","1","1157.199999988079","1920 x 1080","1920 x 1080","true","1","10","","","","",""
"null","<p style=""font-size: 80px;"">+ 10 points</p>","null","html-keyboard-response","100","479785","0.0-11.0-2.99","5ef0a10e3867d33b6bb063bc","xbjovc","DF","50","M","{""name"":""Chrome"",""chrome"":true,""version"":""106.0"",""blink"":true,""windows"":true,""osname"":""Windows"",""osversion"":""10"",""a"":true}","9:12:26","1","3","Test_1","70","f","1","616.8000000119209","1920 x 1080","1920 x 1080","true","1","10","","","","",""
"null","<p style=""font-size: 80px;"">+ 10 points</p>","null","html-keyboard-response","101","482466","0.0-11.0-2.100","5ef0a10e3867d33b6bb063bc","xbjovc","DF","50","M","{""name"":""Chrome"",""chrome"":true,""version"":""106.0"",""blink"":true,""windows"":true,""osname"":""Windows"",""osversion"":""10"",""a"":true}","9:12:26","1","3","Test_4","74","j","1","658.8999999761581","1920 x 1080","1920 x 1080","true","1","10","","","","",""
"null","<p style=""font-size: 80px;"">+ 10 points</p>","null","html-keyboard-response","102","485122","0.0-11.0-2.101","5ef0a10e3867d33b6bb063bc","xbjovc","DF","50","M","{""name"":""Chrome"",""chrome"":true,""version"":""106.0"",""blink"":true,""windows"":true,""osname"":""Windows"",""osversion"":""10"",""a"":true}","9:12:26","1","3","Test_4","74","j","1","629.6999999880791","1920 x 1080","1920 x 1080","true","1","10","","","","",""
"null","<p style=""font-size: 80px;"">+ 10 points</p>","null","html-keyboard-response","103","487693","0.0-11.0-2.102","5ef0a10e3867d33b6bb063bc","xbjovc","DF","50","M","{""name"":""Chrome"",""chrome"":true,""version"":""106.0"",""blink"":true,""windows"":true,""osname"":""Windows"",""osversion"":""10"",""a"":true}","9:12:26","1","3","Test_4","74","j","1","553.5999999940395","1920 x 1080","1920 x 1080","true","1","10","","","","",""
"null","<p style=""font-size: 80px;"">+ 10 points</p>","null","html-keyboard-response","104","490313","0.0-11.0-2.103","5ef0a10e3867d33b6bb063bc","xbjovc","DF","50","M","{""name"":""Chrome"",""chrome"":true,""version"":""106.0"",""blink"":true,""windows"":true,""osname"":""Windows"",""osversion"":""10"",""a"":true}","9:12:26","1","3","Test_4","74","j","1","605.0999999940395","1920 x 1080","1920 x 1080","true","1","10","","","","",""
"null","<p style=""font-size: 80px;"">+ 0 points</p>","null","html-keyboard-response","105","493077","0.0-11.0-2.104","5ef0a10e3867d33b6bb063bc","xbjovc","DF","50","M","{""name"":""Chrome"",""chrome"":true,""version"":""106.0"",""blink"":true,""windows"":true,""osname"":""Windows"",""osversion"":""10"",""a"":true}","9:12:26","1","4","Test_4","74","f","0","745.7000000178814","1920 x 1080","1920 x 1080","true","1","0","","","","",""
"null","<p style=""font-size: 80px;"">+ 10 points</p>","null","html-keyboard-response","106","495863","0.0-11.0-2.105","5ef0a10e3867d33b6bb063bc","xbjovc","DF","50","M","{""name"":""Chrome"",""chrome"":true,""version"":""106.0"",""blink"":true,""windows"":true,""osname"":""Windows"",""osversion"":""10"",""a"":true}","9:12:26","1","4","Test_3","74","j","1","773.5999999940395","1920 x 1080","1920 x 1080","true","1","10","","","","",""
"null","<p style=""font-size: 80px;"">+ 10 points</p>","null","html-keyboard-response","107","498465","0.0-11.0-2.106","5ef0a10e3867d33b6bb063bc","xbjovc","DF","50","M","{""name"":""Chrome"",""chrome"":true,""version"":""106.0"",""blink"":true,""windows"":true,""osname"":""Windows"",""osversion"":""10"",""a"":true}","9:12:26","1","4","Test_2","70","f","1","572","1920 x 1080","1920 x 1080","true","1","10","","","","",""
"null","<p style=""font-size: 80px;"">+ 10 points</p>","null","html-keyboard-response","108","501299","0.0-11.0-2.107","5ef0a10e3867d33b6bb063bc","xbjovc","DF","50","M","{""name"":""Chrome"",""chrome"":true,""version"":""106.0"",""blink"":true,""windows"":true,""osname"":""Windows"",""osversion"":""10"",""a"":true}","9:12:26","1","4","Test_1","74","j","1","807.0999999940395","1920 x 1080","1920 x 1080","true","1","10","","","","",""
"null","<p style=""font-size: 80px;"">+ 10 points</p>","null","html-keyboard-response","109","504826","0.0-11.0-2.108","5ef0a10e3867d33b6bb063bc","xbjovc","DF","50","M","{""name"":""Chrome"",""chrome"":true,""version"":""106.0"",""blink"":true,""windows"":true,""osname"":""Windows"",""osversion"":""10"",""a"":true}","9:12:26","1","4","Test_1","74","j","1","1513.5999999940395","1920 x 1080","1920 x 1080","true","1","10","","","","",""
"null","<p style=""font-size: 80px;"">+ 0 points</p>","null","html-keyboard-response","110","514207","0.0-11.0-2.109","5ef0a10e3867d33b6bb063bc","xbjovc","DF","50","M","{""name"":""Chrome"",""chrome"":true,""version"":""106.0"",""blink"":true,""windows"":true,""osname"":""Windows"",""osversion"":""10"",""a"":true}","9:12:26","1","4","Test_4","74","f","0","885.2000000178814","1920 x 1080","1920 x 1080","true","1","0","","","","",""
"null","<p style=""font-size: 80px;"">+ 10 points</p>","null","html-keyboard-response","111","517158","0.0-11.0-2.110","5ef0a10e3867d33b6bb063bc","xbjovc","DF","50","M","{""name"":""Chrome"",""chrome"":true,""version"":""106.0"",""blink"":true,""windows"":true,""osname"":""Windows"",""osversion"":""10"",""a"":true}","9:12:26","1","4","Test_2","70","f","1","941.6999999880791","1920 x 1080","1920 x 1080","true","1","10","","","","",""
"null","<p style=""font-size: 80px;"">+ 10 points</p>","null","html-keyboard-response","112","520017","0.0-11.0-2.111","5ef0a10e3867d33b6bb063bc","xbjovc","DF","50","M","{""name"":""Chrome"",""chrome"":true,""version"":""106.0"",""blink"":true,""windows"":true,""osname"":""Windows"",""osversion"":""10"",""a"":true}","9:12:26","1","4","Test_3","74","j","1","837.8999999761581","1920 x 1080","1920 x 1080","true","1","10","","","","",""
"null","<p style=""font-size: 80px;"">+ 10 points</p>","null","html-keyboard-response","113","522600","0.0-11.0-2.112","5ef0a10e3867d33b6bb063bc","xbjovc","DF","50","M","{""name"":""Chrome"",""chrome"":true,""version"":""106.0"",""blink"":true,""windows"":true,""osname"":""Windows"",""osversion"":""10"",""a"":true}","9:12:26","1","4","Test_2","70","f","1","563.0999999940395","1920 x 1080","1920 x 1080","true","1","10","","","","",""
"null","<p style=""font-size: 80px;"">+ 10 points</p>","null","html-keyboard-response","114","525318","0.0-11.0-2.113","5ef0a10e3867d33b6bb063bc","xbjovc","DF","50","M","{""name"":""Chrome"",""chrome"":true,""version"":""106.0"",""blink"":true,""windows"":true,""osname"":""Windows"",""osversion"":""10"",""a"":true}","9:12:26","1","4","Test_1","74","j","1","698.7999999821186","1920 x 1080","1920 x 1080","true","1","10","","","","",""
"null","<p style=""font-size: 80px;"">+ 10 points</p>","null","html-keyboard-response","115","527976","0.0-11.0-2.114","5ef0a10e3867d33b6bb063bc","xbjovc","DF","50","M","{""name"":""Chrome"",""chrome"":true,""version"":""106.0"",""blink"":true,""windows"":true,""osname"":""Windows"",""osversion"":""10"",""a"":true}","9:12:26","1","4","Test_3","74","j","1","649.2000000178814","1920 x 1080","1920 x 1080","true","1","10","","","","",""
"null","<p style=""font-size: 80px;"">+ 10 points</p>","null","html-keyboard-response","116","530545","0.0-11.0-2.115","5ef0a10e3867d33b6bb063bc","xbjovc","DF","50","M","{""name"":""Chrome"",""chrome"":true,""version"":""106.0"",""blink"":true,""windows"":true,""osname"":""Windows"",""osversion"":""10"",""a"":true}","9:12:26","1","4","Test_3","74","j","1","540.8000000119209","1920 x 1080","1920 x 1080","true","1","10","","","","",""
"null","<p style=""font-size: 80px;"">+ 10 points</p>","null","html-keyboard-response","117","533609","0.0-11.0-2.116","5ef0a10e3867d33b6bb063bc","xbjovc","DF","50","M","{""name"":""Chrome"",""chrome"":true,""version"":""106.0"",""blink"":true,""windows"":true,""osname"":""Windows"",""osversion"":""10"",""a"":true}","9:12:26","1","4","Test_1","74","j","1","1043.6000000238419","1920 x 1080","1920 x 1080","true","1","10","","","","",""
"null","<p style=""font-size: 80px;"">+ 10 points</p>","null","html-keyboard-response","118","536411","0.0-11.0-2.117","5ef0a10e3867d33b6bb063bc","xbjovc","DF","50","M","{""name"":""Chrome"",""chrome"":true,""version"":""106.0"",""blink"":true,""windows"":true,""osname"":""Windows"",""osversion"":""10"",""a"":true}","9:12:26","1","4","Test_4","70","f","1","786.0999999940395","1920 x 1080","1920 x 1080","true","1","10","","","","",""
"null","<p style=""font-size: 80px;"">+ 10 points</p>","null","html-keyboard-response","119","539017","0.0-11.0-2.118","5ef0a10e3867d33b6bb063bc","xbjovc","DF","50","M","{""name"":""Chrome"",""chrome"":true,""version"":""106.0"",""blink"":true,""windows"":true,""osname"":""Windows"",""osversion"":""10"",""a"":true}","9:12:26","1","4","Test_2","70","f","1","590.2999999821186","1920 x 1080","1920 x 1080","true","1","10","","","","",""
"null","<p style=""font-size: 80px;"">+ 10 points</p>","null","html-keyboard-response","120","541809","0.0-11.0-2.119","5ef0a10e3867d33b6bb063bc","xbjovc","DF","50","M","{""name"":""Chrome"",""chrome"":true,""version"":""106.0"",""blink"":true,""windows"":true,""osname"":""Windows"",""osversion"":""10"",""a"":true}","9:12:26","1","4","Test_4","70","f","1","765.6999999880791","1920 x 1080","1920 x 1080","true","1","10","","","","",""
"null","<p style=""font-size: 80px;"">+ 10 points</p>","null","html-keyboard-response","121","544395","0.0-11.0-2.120","5ef0a10e3867d33b6bb063bc","xbjovc","DF","50","M","{""name"":""Chrome"",""chrome"":true,""version"":""106.0"",""blink"":true,""windows"":true,""osname"":""Windows"",""osversion"":""10"",""a"":true}","9:12:26","1","4","Test_3","74","j","1","569.7000000178814","1920 x 1080","1920 x 1080","true","1","10","","","","",""
"null","<p style=""font-size: 80px;"">+ 10 points</p>","null","html-keyboard-response","122","547259","0.0-11.0-2.121","5ef0a10e3867d33b6bb063bc","xbjovc","DF","50","M","{""name"":""Chrome"",""chrome"":true,""version"":""106.0"",""blink"":true,""windows"":true,""osname"":""Windows"",""osversion"":""10"",""a"":true}","9:12:26","1","4","Test_2","70","f","1","846.6000000238419","1920 x 1080","1920 x 1080","true","1","10","","","","",""
"null","<p style=""font-size: 80px;"">+ 10 points</p>","null","html-keyboard-response","123","550066","0.0-11.0-2.122","5ef0a10e3867d33b6bb063bc","xbjovc","DF","50","M","{""name"":""Chrome"",""chrome"":true,""version"":""106.0"",""blink"":true,""windows"":true,""osname"":""Windows"",""osversion"":""10"",""a"":true}","9:12:26","1","4","Test_4","70","f","1","785.6000000238419","1920 x 1080","1920 x 1080","true","1","10","","","","",""
"null","<p style=""font-size: 80px;"">+ 0 points</p>","null","html-keyboard-response","124","552726","0.0-11.0-2.123","5ef0a10e3867d33b6bb063bc","xbjovc","DF","50","M","{""name"":""Chrome"",""chrome"":true,""version"":""106.0"",""blink"":true,""windows"":true,""osname"":""Windows"",""osversion"":""10"",""a"":true}","9:12:26","1","4","Test_1","70","j","0","643.9000000059605","1920 x 1080","1920 x 1080","true","1","0","","","","",""
"null","<p style=""font-size: 80px;"">+ 10 points</p>","null","html-keyboard-response","125","555468","0.0-11.0-2.124","5ef0a10e3867d33b6bb063bc","xbjovc","DF","50","M","{""name"":""Chrome"",""chrome"":true,""version"":""106.0"",""blink"":true,""windows"":true,""osname"":""Windows"",""osversion"":""10"",""a"":true}","9:12:26","1","4","Test_1","74","j","1","728.4000000059605","1920 x 1080","1920 x 1080","true","1","10","","","","",""
"null","<p style=""font-size: 80px;"">+ 10 points</p>","null","html-keyboard-response","126","558121","0.0-11.0-2.125","5ef0a10e3867d33b6bb063bc","xbjovc","DF","50","M","{""name"":""Chrome"",""chrome"":true,""version"":""106.0"",""blink"":true,""windows"":true,""osname"":""Windows"",""osversion"":""10"",""a"":true}","9:12:26","1","4","Test_3","74","j","1","638.9000000059605","1920 x 1080","1920 x 1080","true","1","10","","","","",""
"null","<p style=""font-size: 80px;"">+ 10 points</p>","null","html-keyboard-response","127","560817","0.0-11.0-2.126","5ef0a10e3867d33b6bb063bc","xbjovc","DF","50","M","{""name"":""Chrome"",""chrome"":true,""version"":""106.0"",""blink"":true,""windows"":true,""osname"":""Windows"",""osversion"":""10"",""a"":true}","9:12:26","1","4","Test_4","70","f","1","675.7999999821186","1920 x 1080","1920 x 1080","true","1","10","","","","",""
"null","<p style=""font-size: 80px;"">+ 10 points</p>","null","html-keyboard-response","128","563422","0.0-11.0-2.127","5ef0a10e3867d33b6bb063bc","xbjovc","DF","50","M","{""name"":""Chrome"",""chrome"":true,""version"":""106.0"",""blink"":true,""windows"":true,""osname"":""Windows"",""osversion"":""10"",""a"":true}","9:12:26","1","4","Test_2","70","f","1","586","1920 x 1080","1920 x 1080","true","1","10","","","","",""
"null","<p style=""font-size: 80px;"">+ 0 points</p>","null","html-keyboard-response","129","566184","0.0-11.0-2.128","5ef0a10e3867d33b6bb063bc","xbjovc","DF","50","M","{""name"":""Chrome"",""chrome"":true,""version"":""106.0"",""blink"":true,""windows"":true,""osname"":""Windows"",""osversion"":""10"",""a"":true}","9:12:26","1","3","Test_3","74","f","0","749.7000000178814","1920 x 1080","1920 x 1080","true","1","0","","","","",""
"null","<p style=""font-size: 80px;"">+ 10 points</p>","null","html-keyboard-response","130","568851","0.0-11.0-2.129","5ef0a10e3867d33b6bb063bc","xbjovc","DF","50","M","{""name"":""Chrome"",""chrome"":true,""version"":""106.0"",""blink"":true,""windows"":true,""osname"":""Windows"",""osversion"":""10"",""a"":true}","9:12:26","1","3","Test_4","74","j","1","646.4000000059605","1920 x 1080","1920 x 1080","true","1","10","","","","",""
"null","<p style=""font-size: 80px;"">+ 10 points</p>","null","html-keyboard-response","131","571505","0.0-11.0-2.130","5ef0a10e3867d33b6bb063bc","xbjovc","DF","50","M","{""name"":""Chrome"",""chrome"":true,""version"":""106.0"",""blink"":true,""windows"":true,""osname"":""Windows"",""osversion"":""10"",""a"":true}","9:12:26","1","3","Test_3","70","f","1","631","1920 x 1080","1920 x 1080","true","1","10","","","","",""
"null","<p style=""font-size: 80px;"">+ 10 points</p>","null","html-keyboard-response","132","575411","0.0-11.0-2.131","5ef0a10e3867d33b6bb063bc","xbjovc","DF","50","M","{""name"":""Chrome"",""chrome"":true,""version"":""106.0"",""blink"":true,""windows"":true,""osname"":""Windows"",""osversion"":""10"",""a"":true}","9:12:26","1","3","Test_2","74","j","1","1880.7000000178814","1920 x 1080","1920 x 1080","true","1","10","","","","",""
"null","<p style=""font-size: 80px;"">+ 10 points</p>","null","html-keyboard-response","133","577917","0.0-11.0-2.132","5ef0a10e3867d33b6bb063bc","xbjovc","DF","50","M","{""name"":""Chrome"",""chrome"":true,""version"":""106.0"",""blink"":true,""windows"":true,""osname"":""Windows"",""osversion"":""10"",""a"":true}","9:12:26","1","3","Test_1","70","f","1","487","1920 x 1080","1920 x 1080","true","1","10","","","","",""
"null","<p style=""font-size: 80px;"">+ 10 points</p>","null","html-keyboard-response","134","580563","0.0-11.0-2.133","5ef0a10e3867d33b6bb063bc","xbjovc","DF","50","M","{""name"":""Chrome"",""chrome"":true,""version"":""106.0"",""blink"":true,""windows"":true,""osname"":""Windows"",""osversion"":""10"",""a"":true}","9:12:26","1","3","Test_4","74","j","1","618","1920 x 1080","1920 x 1080","true","1","10","","","","",""
"null","<p style=""font-size: 80px;"">+ 10 points</p>","null","html-keyboard-response","135","583183","0.0-11.0-2.134","5ef0a10e3867d33b6bb063bc","xbjovc","DF","50","M","{""name"":""Chrome"",""chrome"":true,""version"":""106.0"",""blink"":true,""windows"":true,""osname"":""Windows"",""osversion"":""10"",""a"":true}","9:12:26","1","3","Test_1","70","f","1","600.2000000178814","1920 x 1080","1920 x 1080","true","1","10","","","","",""
"null","<p style=""font-size: 80px;"">+ 10 points</p>","null","html-keyboard-response","136","585862","0.0-11.0-2.135","5ef0a10e3867d33b6bb063bc","xbjovc","DF","50","M","{""name"":""Chrome"",""chrome"":true,""version"":""106.0"",""blink"":true,""windows"":true,""osname"":""Windows"",""osversion"":""10"",""a"":true}","9:12:26","1","3","Test_2","74","j","1","668.9000000059605","1920 x 1080","1920 x 1080","true","1","10","","","","",""
"null","<p style=""font-size: 80px;"">+ 10 points</p>","null","html-keyboard-response","137","588412","0.0-11.0-2.136","5ef0a10e3867d33b6bb063bc","xbjovc","DF","50","M","{""name"":""Chrome"",""chrome"":true,""version"":""106.0"",""blink"":true,""windows"":true,""osname"":""Windows"",""osversion"":""10"",""a"":true}","9:12:26","1","3","Test_1","70","f","1","523.6000000238419","1920 x 1080","1920 x 1080","true","1","10","","","","",""
"null","<p style=""font-size: 80px;"">+ 10 points</p>","null","html-keyboard-response","138","591081","0.0-11.0-2.137","5ef0a10e3867d33b6bb063bc","xbjovc","DF","50","M","{""name"":""Chrome"",""chrome"":true,""version"":""106.0"",""blink"":true,""windows"":true,""osname"":""Windows"",""osversion"":""10"",""a"":true}","9:12:26","1","3","Test_3","70","f","1","650.9000000059605","1920 x 1080","1920 x 1080","true","1","10","","","","",""
"null","<p style=""font-size: 80px;"">+ 10 points</p>","null","html-keyboard-response","139","593654","0.0-11.0-2.138","5ef0a10e3867d33b6bb063bc","xbjovc","DF","50","M","{""name"":""Chrome"",""chrome"":true,""version"":""106.0"",""blink"":true,""windows"":true,""osname"":""Windows"",""osversion"":""10"",""a"":true}","9:12:26","1","3","Test_1","70","f","1","558.2999999821186","1920 x 1080","1920 x 1080","true","1","10","","","","",""
"null","<p style=""font-size: 80px;"">+ 10 points</p>","null","html-keyboard-response","140","596338","0.0-11.0-2.139","5ef0a10e3867d33b6bb063bc","xbjovc","DF","50","M","{""name"":""Chrome"",""chrome"":true,""version"":""106.0"",""blink"":true,""windows"":true,""osname"":""Windows"",""osversion"":""10"",""a"":true}","9:12:26","1","3","Test_2","74","j","1","661.6999999880791","1920 x 1080","1920 x 1080","true","1","10","","","","",""
"null","<p style=""font-size: 80px;"">+ 10 points</p>","null","html-keyboard-response","141","599049","0.0-11.0-2.140","5ef0a10e3867d33b6bb063bc","xbjovc","DF","50","M","{""name"":""Chrome"",""chrome"":true,""version"":""106.0"",""blink"":true,""windows"":true,""osname"":""Windows"",""osversion"":""10"",""a"":true}","9:12:26","1","3","Test_2","74","j","1","695.5","1920 x 1080","1920 x 1080","true","1","10","","","","",""
"null","<p style=""font-size: 80px;"">+ 10 points</p>","null","html-keyboard-response","142","601721","0.0-11.0-2.141","5ef0a10e3867d33b6bb063bc","xbjovc","DF","50","M","{""name"":""Chrome"",""chrome"":true,""version"":""106.0"",""blink"":true,""windows"":true,""osname"":""Windows"",""osversion"":""10"",""a"":true}","9:12:26","1","3","Test_3","70","f","1","654.0999999940395","1920 x 1080","1920 x 1080","true","1","10","","","","",""
"null","<p style=""font-size: 80px;"">+ 10 points</p>","null","html-keyboard-response","143","604584","0.0-11.0-2.142","5ef0a10e3867d33b6bb063bc","xbjovc","DF","50","M","{""name"":""Chrome"",""chrome"":true,""version"":""106.0"",""blink"":true,""windows"":true,""osname"":""Windows"",""osversion"":""10"",""a"":true}","9:12:26","1","3","Test_4","74","j","1","853","1920 x 1080","1920 x 1080","true","1","10","","","","",""
"null","<p style=""font-size: 80px;"">+ 10 points</p>","null","html-keyboard-response","144","607248","0.0-11.0-2.143","5ef0a10e3867d33b6bb063bc","xbjovc","DF","50","M","{""name"":""Chrome"",""chrome"":true,""version"":""106.0"",""blink"":true,""windows"":true,""osname"":""Windows"",""osversion"":""10"",""a"":true}","9:12:26","1","3","Test_3","70","f","1","646.6999999880791","1920 x 1080","1920 x 1080","true","1","10","","","","",""
"null","<p style=""font-size: 80px;"">+ 10 points</p>","null","html-keyboard-response","145","609787","0.0-11.0-2.144","5ef0a10e3867d33b6bb063bc","xbjovc","DF","50","M","{""name"":""Chrome"",""chrome"":true,""version"":""106.0"",""blink"":true,""windows"":true,""osname"":""Windows"",""osversion"":""10"",""a"":true}","9:12:26","1","3","Test_4","74","j","1","519.5","1920 x 1080","1920 x 1080","true","1","10","","","","",""
"null","<p style=""font-size: 80px;"">+ 0 points</p>","null","html-keyboard-response","146","612428","0.0-11.0-2.145","5ef0a10e3867d33b6bb063bc","xbjovc","DF","50","M","{""name"":""Chrome"",""chrome"":true,""version"":""106.0"",""blink"":true,""windows"":true,""osname"":""Windows"",""osversion"":""10"",""a"":true}","9:12:26","1","4","Test_4","74","f","0","615.9000000059605","1920 x 1080","1920 x 1080","true","1","0","","","","",""
"null","<p style=""font-size: 80px;"">+ 10 points</p>","null","html-keyboard-response","147","615366","0.0-11.0-2.146","5ef0a10e3867d33b6bb063bc","xbjovc","DF","50","M","{""name"":""Chrome"",""chrome"":true,""version"":""106.0"",""blink"":true,""windows"":true,""osname"":""Windows"",""osversion"":""10"",""a"":true}","9:12:26","1","4","Test_3","74","j","1","929.5999999940395","1920 x 1080","1920 x 1080","true","1","10","","","","",""
"null","<p style=""font-size: 80px;"">+ 10 points</p>","null","html-keyboard-response","148","617940","0.0-11.0-2.147","5ef0a10e3867d33b6bb063bc","xbjovc","DF","50","M","{""name"":""Chrome"",""chrome"":true,""version"":""106.0"",""blink"":true,""windows"":true,""osname"":""Windows"",""osversion"":""10"",""a"":true}","9:12:26","1","4","Test_4","70","f","1","547.8999999761581","1920 x 1080","1920 x 1080","true","1","10","","","","",""
"null","<p style=""font-size: 80px;"">+ 10 points</p>","null","html-keyboard-response","149","620541","0.0-11.0-2.148","5ef0a10e3867d33b6bb063bc","xbjovc","DF","50","M","{""name"":""Chrome"",""chrome"":true,""version"":""106.0"",""blink"":true,""windows"":true,""osname"":""Windows"",""osversion"":""10"",""a"":true}","9:12:26","1","4","Test_4","70","f","1","583.1999999880791","1920 x 1080","1920 x 1080","true","1","10","","","","",""
"null","<p style=""font-size: 80px;"">+ 10 points</p>","null","html-keyboard-response","150","623427","0.0-11.0-2.149","5ef0a10e3867d33b6bb063bc","xbjovc","DF","50","M","{""name"":""Chrome"",""chrome"":true,""version"":""106.0"",""blink"":true,""windows"":true,""osname"":""Windows"",""osversion"":""10"",""a"":true}","9:12:26","1","4","Test_4","70","f","1","864.1999999880791","1920 x 1080","1920 x 1080","true","1","10","","","","",""
"null","<p style=""font-size: 80px;"">+ 10 points</p>","null","html-keyboard-response","151","626171","0.0-11.0-2.150","5ef0a10e3867d33b6bb063bc","xbjovc","DF","50","M","{""name"":""Chrome"",""chrome"":true,""version"":""106.0"",""blink"":true,""windows"":true,""osname"":""Windows"",""osversion"":""10"",""a"":true}","9:12:26","1","4","Test_1","74","j","1","724.1999999880791","1920 x 1080","1920 x 1080","true","1","10","","","","",""
"null","<p style=""font-size: 80px;"">+ 10 points</p>","null","html-keyboard-response","152","628731","0.0-11.0-2.151","5ef0a10e3867d33b6bb063bc","xbjovc","DF","50","M","{""name"":""Chrome"",""chrome"":true,""version"":""106.0"",""blink"":true,""windows"":true,""osname"":""Windows"",""osversion"":""10"",""a"":true}","9:12:26","1","4","Test_2","70","f","1","540.5999999940395","1920 x 1080","1920 x 1080","true","1","10","","","","",""
"null","<p style=""font-size: 80px;"">+ 10 points</p>","null","html-keyboard-response","153","631307","0.0-11.0-2.152","5ef0a10e3867d33b6bb063bc","xbjovc","DF","50","M","{""name"":""Chrome"",""chrome"":true,""version"":""106.0"",""blink"":true,""windows"":true,""osname"":""Windows"",""osversion"":""10"",""a"":true}","9:12:26","1","4","Test_2","70","f","1","561.9000000059605","1920 x 1080","1920 x 1080","true","1","10","","","","",""
"null","<p style=""font-size: 80px;"">+ 10 points</p>","null","html-keyboard-response","154","633873","0.0-11.0-2.153","5ef0a10e3867d33b6bb063bc","xbjovc","DF","50","M","{""name"":""Chrome"",""chrome"":true,""version"":""106.0"",""blink"":true,""windows"":true,""osname"":""Windows"",""osversion"":""10"",""a"":true}","9:12:26","1","4","Test_2","70","f","1","545.7000000178814","1920 x 1080","1920 x 1080","true","1","10","","","","",""
"null","<p style=""font-size: 80px;"">+ 10 points</p>","null","html-keyboard-response","155","636534","0.0-11.0-2.154","5ef0a10e3867d33b6bb063bc","xbjovc","DF","50","M","{""name"":""Chrome"",""chrome"":true,""version"":""106.0"",""blink"":true,""windows"":true,""osname"":""Windows"",""osversion"":""10"",""a"":true}","9:12:26","1","4","Test_1","74","j","1","647","1920 x 1080","1920 x 1080","true","1","10","","","","",""
"null","<p style=""font-size: 80px;"">+ 10 points</p>","null","html-keyboard-response","156","639165","0.0-11.0-2.155","5ef0a10e3867d33b6bb063bc","xbjovc","DF","50","M","{""name"":""Chrome"",""chrome"":true,""version"":""106.0"",""blink"":true,""windows"":true,""osname"":""Windows"",""osversion"":""10"",""a"":true}","9:12:26","1","4","Test_1","74","j","1","603","1920 x 1080","1920 x 1080","true","1","10","","","","",""
"null","<p style=""font-size: 80px;"">+ 10 points</p>","null","html-keyboard-response","157","641731","0.0-11.0-2.156","5ef0a10e3867d33b6bb063bc","xbjovc","DF","50","M","{""name"":""Chrome"",""chrome"":true,""version"":""106.0"",""blink"":true,""windows"":true,""osname"":""Windows"",""osversion"":""10"",""a"":true}","9:12:26","1","4","Test_3","74","j","1","545.2000000178814","1920 x 1080","1920 x 1080","true","1","10","","","","",""
"null","<p style=""font-size: 80px;"">+ 10 points</p>","null","html-keyboard-response","158","644422","0.0-11.0-2.157","5ef0a10e3867d33b6bb063bc","xbjovc","DF","50","M","{""name"":""Chrome"",""chrome"":true,""version"":""106.0"",""blink"":true,""windows"":true,""osname"":""Windows"",""osversion"":""10"",""a"":true}","9:12:26","1","4","Test_4","70","f","1","677","1920 x 1080","1920 x 1080","true","1","10","","","","",""
"null","<p style=""font-size: 80px;"">+ 10 points</p>","null","html-keyboard-response","159","646948","0.0-11.0-2.158","5ef0a10e3867d33b6bb063bc","xbjovc","DF","50","M","{""name"":""Chrome"",""chrome"":true,""version"":""106.0"",""blink"":true,""windows"":true,""osname"":""Windows"",""osversion"":""10"",""a"":true}","9:12:26","1","4","Test_3","74","j","1","515.8000000119209","1920 x 1080","1920 x 1080","true","1","10","","","","",""
"null","<p style=""font-size: 80px;"">+ 10 points</p>","null","html-keyboard-response","160","649669","0.0-11.0-2.159","5ef0a10e3867d33b6bb063bc","xbjovc","DF","50","M","{""name"":""Chrome"",""chrome"":true,""version"":""106.0"",""blink"":true,""windows"":true,""osname"":""Windows"",""osversion"":""10"",""a"":true}","9:12:26","1","4","Test_2","70","f","1","700.5","1920 x 1080","1920 x 1080","true","1","10","","","","",""
"null","<p style=""font-size: 80px;"">+ 10 points</p>","null","html-keyboard-response","161","652358","0.0-11.0-2.160","5ef0a10e3867d33b6bb063bc","xbjovc","DF","50","M","{""name"":""Chrome"",""chrome"":true,""version"":""106.0"",""blink"":true,""windows"":true,""osname"":""Windows"",""osversion"":""10"",""a"":true}","9:12:26","1","4","Test_2","70","f","1","680.1999999880791","1920 x 1080","1920 x 1080","true","1","10","","","","",""
"null","<p style=""font-size: 80px;"">+ 10 points</p>","null","html-keyboard-response","162","655022","0.0-11.0-2.161","5ef0a10e3867d33b6bb063bc","xbjovc","DF","50","M","{""name"":""Chrome"",""chrome"":true,""version"":""106.0"",""blink"":true,""windows"":true,""osname"":""Windows"",""osversion"":""10"",""a"":true}","9:12:26","1","4","Test_3","74","j","1","646","1920 x 1080","1920 x 1080","true","1","10","","","","",""
"null","<p style=""font-size: 80px;"">+ 10 points</p>","null","html-keyboard-response","163","657580","0.0-11.0-2.162","5ef0a10e3867d33b6bb063bc","xbjovc","DF","50","M","{""name"":""Chrome"",""chrome"":true,""version"":""106.0"",""blink"":true,""windows"":true,""osname"":""Windows"",""osversion"":""10"",""a"":true}","9:12:26","1","4","Test_3","74","j","1","538.9000000059605","1920 x 1080","1920 x 1080","true","1","10","","","","",""
"null","<p style=""font-size: 80px;"">+ 10 points</p>","null","html-keyboard-response","164","660360","0.0-11.0-2.163","5ef0a10e3867d33b6bb063bc","xbjovc","DF","50","M","{""name"":""Chrome"",""chrome"":true,""version"":""106.0"",""blink"":true,""windows"":true,""osname"":""Windows"",""osversion"":""10"",""a"":true}","9:12:26","1","4","Test_1","74","j","1","766.6999999880791","1920 x 1080","1920 x 1080","true","1","10","","","","",""
"null","<p style=""font-size: 80px;"">+ 10 points</p>","null","html-keyboard-response","165","662895","0.0-11.0-2.164","5ef0a10e3867d33b6bb063bc","xbjovc","DF","50","M","{""name"":""Chrome"",""chrome"":true,""version"":""106.0"",""blink"":true,""windows"":true,""osname"":""Windows"",""osversion"":""10"",""a"":true}","9:12:26","1","4","Test_3","74","j","1","516.5999999940395","1920 x 1080","1920 x 1080","true","1","10","","","","",""
"null","<p style=""font-size: 80px;"">+ 10 points</p>","null","html-keyboard-response","166","665945","0.0-11.0-2.165","5ef0a10e3867d33b6bb063bc","xbjovc","DF","50","M","{""name"":""Chrome"",""chrome"":true,""version"":""106.0"",""blink"":true,""windows"":true,""osname"":""Windows"",""osversion"":""10"",""a"":true}","9:12:26","1","4","Test_1","74","j","1","1037.2999999821186","1920 x 1080","1920 x 1080","true","1","10","","","","",""
"null","<p style=""font-size: 80px;"">+ 10 points</p>","null","html-keyboard-response","167","668766","0.0-11.0-2.166","5ef0a10e3867d33b6bb063bc","xbjovc","DF","50","M","{""name"":""Chrome"",""chrome"":true,""version"":""106.0"",""blink"":true,""windows"":true,""osname"":""Windows"",""osversion"":""10"",""a"":true}","9:12:26","1","4","Test_4","70","f","1","801.0999999940395","1920 x 1080","1920 x 1080","true","1","10","","","","",""
"null","<p style=""font-size: 80px;"">+ 10 points</p>","null","html-keyboard-response","168","671563","0.0-11.0-2.167","5ef0a10e3867d33b6bb063bc","xbjovc","DF","50","M","{""name"":""Chrome"",""chrome"":true,""version"":""106.0"",""blink"":true,""windows"":true,""osname"":""Windows"",""osversion"":""10"",""a"":true}","9:12:26","1","4","Test_1","74","j","1","781.9000000059605","1920 x 1080","1920 x 1080","true","1","10","","","","",""
"null","<p style=""font-size: 80px;"">+ 10 points</p>","null","html-keyboard-response","169","674120","0.0-11.0-2.168","5ef0a10e3867d33b6bb063bc","xbjovc","DF","50","M","{""name"":""Chrome"",""chrome"":true,""version"":""106.0"",""blink"":true,""windows"":true,""osname"":""Windows"",""osversion"":""10"",""a"":true}","9:12:26","1","4","Test_2","70","f","1","546.7999999821186","1920 x 1080","1920 x 1080","true","1","10","","","","",""
"null","<p style=""font-size: 80px;"">+ 0 points</p>","null","html-keyboard-response","170","676790","0.0-11.0-2.169","5ef0a10e3867d33b6bb063bc","xbjovc","DF","50","M","{""name"":""Chrome"",""chrome"":true,""version"":""106.0"",""blink"":true,""windows"":true,""osname"":""Windows"",""osversion"":""10"",""a"":true}","9:12:26","1","3","Test_2","70","j","0","659.9000000059605","1920 x 1080","1920 x 1080","true","1","0","","","","",""
"null","<p style=""font-size: 80px;"">+ 10 points</p>","null","html-keyboard-response","171","679487","0.0-11.0-2.170","5ef0a10e3867d33b6bb063bc","xbjovc","DF","50","M","{""name"":""Chrome"",""chrome"":true,""version"":""106.0"",""blink"":true,""windows"":true,""osname"":""Windows"",""osversion"":""10"",""a"":true}","9:12:26","1","3","Test_3","70","f","1","678.3999999761581","1920 x 1080","1920 x 1080","true","1","10","","","","",""
"null","<p style=""font-size: 80px;"">+ 10 points</p>","null","html-keyboard-response","172","682321","0.0-11.0-2.171","5ef0a10e3867d33b6bb063bc","xbjovc","DF","50","M","{""name"":""Chrome"",""chrome"":true,""version"":""106.0"",""blink"":true,""windows"":true,""osname"":""Windows"",""osversion"":""10"",""a"":true}","9:12:26","1","3","Test_2","74","j","1","811.4000000059605","1920 x 1080","1920 x 1080","true","1","10","","","","",""
"null","<p style=""font-size: 80px;"">+ 10 points</p>","null","html-keyboard-response","173","684956","0.0-11.0-2.172","5ef0a10e3867d33b6bb063bc","xbjovc","DF","50","M","{""name"":""Chrome"",""chrome"":true,""version"":""106.0"",""blink"":true,""windows"":true,""osname"":""Windows"",""osversion"":""10"",""a"":true}","9:12:26","1","3","Test_1","70","f","1","623.2999999821186","1920 x 1080","1920 x 1080","true","1","10","","","","",""
"null","<p style=""font-size: 80px;"">+ 10 points</p>","null","html-keyboard-response","174","687687","0.0-11.0-2.173","5ef0a10e3867d33b6bb063bc","xbjovc","DF","50","M","{""name"":""Chrome"",""chrome"":true,""version"":""106.0"",""blink"":true,""windows"":true,""osname"":""Windows"",""osversion"":""10"",""a"":true}","9:12:26","1","3","Test_1","70","f","1","717.9000000059605","1920 x 1080","1920 x 1080","true","1","10","","","","",""
"null","<p style=""font-size: 80px;"">+ 10 points</p>","null","html-keyboard-response","175","690297","0.0-11.0-2.174","5ef0a10e3867d33b6bb063bc","xbjovc","DF","50","M","{""name"":""Chrome"",""chrome"":true,""version"":""106.0"",""blink"":true,""windows"":true,""osname"":""Windows"",""osversion"":""10"",""a"":true}","9:12:26","1","3","Test_2","74","j","1","593.5999999940395","1920 x 1080","1920 x 1080","true","1","10","","","","",""
"null","<p style=""font-size: 80px;"">+ 10 points</p>","null","html-keyboard-response","176","692946","0.0-11.0-2.175","5ef0a10e3867d33b6bb063bc","xbjovc","DF","50","M","{""name"":""Chrome"",""chrome"":true,""version"":""106.0"",""blink"":true,""windows"":true,""osname"":""Windows"",""osversion"":""10"",""a"":true}","9:12:26","1","3","Test_4","74","j","1","627.8000000119209","1920 x 1080","1920 x 1080","true","1","10","","","","",""
"null","<p style=""font-size: 80px;"">+ 10 points</p>","null","html-keyboard-response","177","695923","0.0-11.0-2.176","5ef0a10e3867d33b6bb063bc","xbjovc","DF","50","M","{""name"":""Chrome"",""chrome"":true,""version"":""106.0"",""blink"":true,""windows"":true,""osname"":""Windows"",""osversion"":""10"",""a"":true}","9:12:26","1","3","Test_2","74","j","1","951.0999999940395","1920 x 1080","1920 x 1080","true","1","10","","","","",""
"null","<p style=""font-size: 80px;"">+ 10 points</p>","null","html-keyboard-response","178","698611","0.0-11.0-2.177","5ef0a10e3867d33b6bb063bc","xbjovc","DF","50","M","{""name"":""Chrome"",""chrome"":true,""version"":""106.0"",""blink"":true,""windows"":true,""osname"":""Windows"",""osversion"":""10"",""a"":true}","9:12:26","1","3","Test_3","70","f","1","646","1920 x 1080","1920 x 1080","true","1","10","","","","",""
"null","<p style=""font-size: 80px;"">+ 10 points</p>","null","html-keyboard-response","179","701339","0.0-11.0-2.178","5ef0a10e3867d33b6bb063bc","xbjovc","DF","50","M","{""name"":""Chrome"",""chrome"":true,""version"":""106.0"",""blink"":true,""windows"":true,""osname"":""Windows"",""osversion"":""10"",""a"":true}","9:12:26","1","3","Test_3","70","f","1","716.8000000119209","1920 x 1080","1920 x 1080","true","1","10","","","","",""
"null","<p style=""font-size: 80px;"">+ 10 points</p>","null","html-keyboard-response","180","703992","0.0-11.0-2.179","5ef0a10e3867d33b6bb063bc","xbjovc","DF","50","M","{""name"":""Chrome"",""chrome"":true,""version"":""106.0"",""blink"":true,""windows"":true,""osname"":""Windows"",""osversion"":""10"",""a"":true}","9:12:26","1","3","Test_4","74","j","1","640.5","1920 x 1080","1920 x 1080","true","1","10","","","","",""
"null","<p style=""font-size: 80px;"">+ 10 points</p>","null","html-keyboard-response","181","706654","0.0-11.0-2.180","5ef0a10e3867d33b6bb063bc","xbjovc","DF","50","M","{""name"":""Chrome"",""chrome"":true,""version"":""106.0"",""blink"":true,""windows"":true,""osname"":""Windows"",""osversion"":""10"",""a"":true}","9:12:26","1","3","Test_3","70","f","1","642.6999999880791","1920 x 1080","1920 x 1080","true","1","10","","","","",""
"null","<p style=""font-size: 80px;"">+ 10 points</p>","null","html-keyboard-response","182","709520","0.0-11.0-2.181","5ef0a10e3867d33b6bb063bc","xbjovc","DF","50","M","{""name"":""Chrome"",""chrome"":true,""version"":""106.0"",""blink"":true,""windows"":true,""osname"":""Windows"",""osversion"":""10"",""a"":true}","9:12:26","1","3","Test_1","70","f","1","844.5","1920 x 1080","1920 x 1080","true","1","10","","","","",""
"null","<p style=""font-size: 80px;"">+ 10 points</p>","null","html-keyboard-response","183","712157","0.0-11.0-2.182","5ef0a10e3867d33b6bb063bc","xbjovc","DF","50","M","{""name"":""Chrome"",""chrome"":true,""version"":""106.0"",""blink"":true,""windows"":true,""osname"":""Windows"",""osversion"":""10"",""a"":true}","9:12:26","1","3","Test_4","74","j","1","623.0999999940395","1920 x 1080","1920 x 1080","true","1","10","","","","",""
"null","<p style=""font-size: 80px;"">+ 10 points</p>","null","html-keyboard-response","184","714757","0.0-11.0-2.183","5ef0a10e3867d33b6bb063bc","xbjovc","DF","50","M","{""name"":""Chrome"",""chrome"":true,""version"":""106.0"",""blink"":true,""windows"":true,""osname"":""Windows"",""osversion"":""10"",""a"":true}","9:12:26","1","3","Test_4","74","j","1","594","1920 x 1080","1920 x 1080","true","1","10","","","","",""
"null","<p style=""font-size: 80px;"">+ 0 points</p>","null","html-keyboard-response","185","717723","0.0-11.0-2.184","5ef0a10e3867d33b6bb063bc","xbjovc","DF","50","M","{""name"":""Chrome"",""chrome"":true,""version"":""106.0"",""blink"":true,""windows"":true,""osname"":""Windows"",""osversion"":""10"",""a"":true}","9:12:26","1","4","Test_1","70","j","0","950.8000000119209","1920 x 1080","1920 x 1080","true","1","0","","","","",""
"null","<p style=""font-size: 80px;"">+ 10 points</p>","null","html-keyboard-response","186","720406","0.0-11.0-2.185","5ef0a10e3867d33b6bb063bc","xbjovc","DF","50","M","{""name"":""Chrome"",""chrome"":true,""version"":""106.0"",""blink"":true,""windows"":true,""osname"":""Windows"",""osversion"":""10"",""a"":true}","9:12:26","1","4","Test_2","70","f","1","667.5999999940395","1920 x 1080","1920 x 1080","true","1","10","","","","",""
"null","<p style=""font-size: 80px;"">+ 10 points</p>","null","html-keyboard-response","187","723049","0.0-11.0-2.186","5ef0a10e3867d33b6bb063bc","xbjovc","DF","50","M","{""name"":""Chrome"",""chrome"":true,""version"":""106.0"",""blink"":true,""windows"":true,""osname"":""Windows"",""osversion"":""10"",""a"":true}","9:12:26","1","4","Test_1","74","j","1","625.6999999880791","1920 x 1080","1920 x 1080","true","1","10","","","","",""
"null","<p style=""font-size: 80px;"">+ 10 points</p>","null","html-keyboard-response","188","725689","0.0-11.0-2.187","5ef0a10e3867d33b6bb063bc","xbjovc","DF","50","M","{""name"":""Chrome"",""chrome"":true,""version"":""106.0"",""blink"":true,""windows"":true,""osname"":""Windows"",""osversion"":""10"",""a"":true}","9:12:26","1","4","Test_4","70","f","1","624.4000000059605","1920 x 1080","1920 x 1080","true","1","10","","","","",""
