"rt","stimulus","key_press","trial_type","trial_index","time_elapsed","internal_node_id","Prolific_ID","random_ID","initials","age","gender","pc_info","start_time","Phase","Rule","Stimulus","Response","CorrResp","Accuracy","ResponseTime","screen_resolution","window_resolution","focus","relevant","Points","responses","question_order","rev_check","butterfly_check","passed_practice"
"null","<p style=""font-size: 80px;"">+ 10 points</p>","null","html-keyboard-response","1","113625","0.0-7.0-2.0","57725d2dd8e8880001b2fb13","jtmce5","SJR","48","F","{""name"":""Chrome"",""chrome"":true,""version"":""105.0"",""blink"":true,""windows"":true,""osname"":""Windows"",""osversion"":""10"",""a"":true}","9:20:28","0","1","Practice_3","70","f","1","2008.1000000238419","1366 x 768","1366 x 768","true","1","10","","","","",""
"null","<p style=""font-size: 80px;"">+ 10 points</p>","null","html-keyboard-response","2","117116","0.0-7.0-2.1","57725d2dd8e8880001b2fb13","jtmce5","SJR","48","F","{""name"":""Chrome"",""chrome"":true,""version"":""105.0"",""blink"":true,""windows"":true,""osname"":""Windows"",""osversion"":""10"",""a"":true}","9:20:28","0","1","Practice_4","74","j","1","1467.2999999821186","1366 x 768","1366 x 768","true","1","10","","","","",""
"null","<p style=""font-size: 80px;"">+ 10 points</p>","null","html-keyboard-response","3","120555","0.0-7.0-2.2","57725d2dd8e8880001b2fb13","jtmce5","SJR","48","F","{""name"":""Chrome"",""chrome"":true,""version"":""105.0"",""blink"":true,""windows"":true,""osname"":""Windows"",""osversion"":""10"",""a"":true}","9:20:28","0","1","Practice_2","74","j","1","1407.9000000059605","1366 x 768","1366 x 768","true","1","10","","","","",""
"null","<p style=""font-size: 80px;"">+ 0 points</p>","null","html-keyboard-response","4","123815","0.0-7.0-2.3","57725d2dd8e8880001b2fb13","jtmce5","SJR","48","F","{""name"":""Chrome"",""chrome"":true,""version"":""105.0"",""blink"":true,""windows"":true,""osname"":""Windows"",""osversion"":""10"",""a"":true}","9:20:28","0","1","Practice_4","70","j","0","1242.0999999940395","1366 x 768","1366 x 768","true","1","0","","","","",""
"null","<p style=""font-size: 80px;"">+ 10 points</p>","null","html-keyboard-response","5","126628","0.0-7.0-2.4","57725d2dd8e8880001b2fb13","jtmce5","SJR","48","F","{""name"":""Chrome"",""chrome"":true,""version"":""105.0"",""blink"":true,""windows"":true,""osname"":""Windows"",""osversion"":""10"",""a"":true}","9:20:28","0","1","Practice_2","74","j","1","784.5","1366 x 768","1366 x 768","true","1","10","","","","",""
"null","<p style=""font-size: 80px;"">+ 0 points</p>","null","html-keyboard-response","6","129622","0.0-7.0-2.5","57725d2dd8e8880001b2fb13","jtmce5","SJR","48","F","{""name"":""Chrome"",""chrome"":true,""version"":""105.0"",""blink"":true,""windows"":true,""osname"":""Windows"",""osversion"":""10"",""a"":true}","9:20:28","0","1","Practice_1","74","f","0","974.5999999940395","1366 x 768","1366 x 768","true","1","0","","","","",""
"null","<p style=""font-size: 80px;"">+ 10 points</p>","null","html-keyboard-response","7","132522","0.0-7.0-2.6","57725d2dd8e8880001b2fb13","jtmce5","SJR","48","F","{""name"":""Chrome"",""chrome"":true,""version"":""105.0"",""blink"":true,""windows"":true,""osname"":""Windows"",""osversion"":""10"",""a"":true}","9:20:28","0","1","Practice_1","70","f","1","879.1999999880791","1366 x 768","1366 x 768","true","1","10","","","","",""
"null","<p style=""font-size: 80px;"">+ 10 points</p>","null","html-keyboard-response","8","135508","0.0-7.0-2.7","57725d2dd8e8880001b2fb13","jtmce5","SJR","48","F","{""name"":""Chrome"",""chrome"":true,""version"":""105.0"",""blink"":true,""windows"":true,""osname"":""Windows"",""osversion"":""10"",""a"":true}","9:20:28","0","1","Practice_2","74","j","1","911.8000000119209","1366 x 768","1366 x 768","true","1","10","","","","",""
"null","<p style=""font-size: 80px;"">+ 10 points</p>","null","html-keyboard-response","9","138504","0.0-7.0-2.8","57725d2dd8e8880001b2fb13","jtmce5","SJR","48","F","{""name"":""Chrome"",""chrome"":true,""version"":""105.0"",""blink"":true,""windows"":true,""osname"":""Windows"",""osversion"":""10"",""a"":true}","9:20:28","0","1","Practice_2","74","j","1","842.5","1366 x 768","1366 x 768","true","1","10","","","","",""
"null","<p style=""font-size: 80px;"">+ 10 points</p>","null","html-keyboard-response","10","141679","0.0-7.0-2.9","57725d2dd8e8880001b2fb13","jtmce5","SJR","48","F","{""name"":""Chrome"",""chrome"":true,""version"":""105.0"",""blink"":true,""windows"":true,""osname"":""Windows"",""osversion"":""10"",""a"":true}","9:20:28","0","1","Practice_3","70","f","1","1135","1366 x 768","1366 x 768","true","1","10","","","","",""
"null","<p style=""font-size: 80px;"">+ 10 points</p>","null","html-keyboard-response","11","144473","0.0-7.0-2.10","57725d2dd8e8880001b2fb13","jtmce5","SJR","48","F","{""name"":""Chrome"",""chrome"":true,""version"":""105.0"",""blink"":true,""windows"":true,""osname"":""Windows"",""osversion"":""10"",""a"":true}","9:20:28","0","1","Practice_3","70","f","1","763.8000000119209","1366 x 768","1366 x 768","true","1","10","","","","",""
"null","<p style=""font-size: 80px;"">+ 10 points</p>","null","html-keyboard-response","12","147178","0.0-7.0-2.11","57725d2dd8e8880001b2fb13","jtmce5","SJR","48","F","{""name"":""Chrome"",""chrome"":true,""version"":""105.0"",""blink"":true,""windows"":true,""osname"":""Windows"",""osversion"":""10"",""a"":true}","9:20:28","0","1","Practice_3","70","f","1","671.6999999880791","1366 x 768","1366 x 768","true","1","10","","","","",""
"null","<p style=""font-size: 80px;"">+ 10 points</p>","null","html-keyboard-response","13","149898","0.0-7.0-2.12","57725d2dd8e8880001b2fb13","jtmce5","SJR","48","F","{""name"":""Chrome"",""chrome"":true,""version"":""105.0"",""blink"":true,""windows"":true,""osname"":""Windows"",""osversion"":""10"",""a"":true}","9:20:28","0","1","Practice_3","70","f","1","630.0999999940395","1366 x 768","1366 x 768","true","1","10","","","","",""
"null","<p style=""font-size: 80px;"">+ 10 points</p>","null","html-keyboard-response","14","152793","0.0-7.0-2.13","57725d2dd8e8880001b2fb13","jtmce5","SJR","48","F","{""name"":""Chrome"",""chrome"":true,""version"":""105.0"",""blink"":true,""windows"":true,""osname"":""Windows"",""osversion"":""10"",""a"":true}","9:20:28","0","1","Practice_4","74","j","1","863","1366 x 768","1366 x 768","true","1","10","","","","",""
"null","<p style=""font-size: 80px;"">+ 10 points</p>","null","html-keyboard-response","15","156582","0.0-7.0-2.14","57725d2dd8e8880001b2fb13","jtmce5","SJR","48","F","{""name"":""Chrome"",""chrome"":true,""version"":""105.0"",""blink"":true,""windows"":true,""osname"":""Windows"",""osversion"":""10"",""a"":true}","9:20:28","0","1","Practice_1","70","f","1","1384.199999988079","1366 x 768","1366 x 768","true","1","10","","","","",""
"null","<p style=""font-size: 80px;"">+ 0 points</p>","null","html-keyboard-response","16","160142","0.0-7.0-2.15","57725d2dd8e8880001b2fb13","jtmce5","SJR","48","F","{""name"":""Chrome"",""chrome"":true,""version"":""105.0"",""blink"":true,""windows"":true,""osname"":""Windows"",""osversion"":""10"",""a"":true}","9:20:28","0","1","Practice_2","70","j","0","1544.9000000059605","1366 x 768","1366 x 768","true","1","0","","","","",""
"null","<p style=""font-size: 80px;"">+ 10 points</p>","null","html-keyboard-response","17","163046","0.0-7.0-2.16","57725d2dd8e8880001b2fb13","jtmce5","SJR","48","F","{""name"":""Chrome"",""chrome"":true,""version"":""105.0"",""blink"":true,""windows"":true,""osname"":""Windows"",""osversion"":""10"",""a"":true}","9:20:28","0","1","Practice_1","70","f","1","889.2000000178814","1366 x 768","1366 x 768","true","1","10","","","","",""
"null","<p style=""font-size: 80px;"">+ 10 points</p>","null","html-keyboard-response","18","166425","0.0-7.0-2.17","57725d2dd8e8880001b2fb13","jtmce5","SJR","48","F","{""name"":""Chrome"",""chrome"":true,""version"":""105.0"",""blink"":true,""windows"":true,""osname"":""Windows"",""osversion"":""10"",""a"":true}","9:20:28","0","1","Practice_4","74","j","1","1337.9000000059605","1366 x 768","1366 x 768","true","1","10","","","","",""
"null","<p style=""font-size: 80px;"">+ 10 points</p>","null","html-keyboard-response","19","169828","0.0-7.0-2.18","57725d2dd8e8880001b2fb13","jtmce5","SJR","48","F","{""name"":""Chrome"",""chrome"":true,""version"":""105.0"",""blink"":true,""windows"":true,""osname"":""Windows"",""osversion"":""10"",""a"":true}","9:20:28","0","1","Practice_4","74","j","1","1357.0999999940395","1366 x 768","1366 x 768","true","1","10","","","","",""
"null","<p style=""font-size: 80px;"">+ 10 points</p>","null","html-keyboard-response","20","173404","0.0-7.0-2.19","57725d2dd8e8880001b2fb13","jtmce5","SJR","48","F","{""name"":""Chrome"",""chrome"":true,""version"":""105.0"",""blink"":true,""windows"":true,""osname"":""Windows"",""osversion"":""10"",""a"":true}","9:20:28","0","1","Practice_1","70","f","1","1499.7000000178814","1366 x 768","1366 x 768","true","1","10","","","","",""
"null","<p style=""font-size: 80px;"">+ 0 points</p>","null","html-keyboard-response","21","176183","0.0-7.0-2.20","57725d2dd8e8880001b2fb13","jtmce5","SJR","48","F","{""name"":""Chrome"",""chrome"":true,""version"":""105.0"",""blink"":true,""windows"":true,""osname"":""Windows"",""osversion"":""10"",""a"":true}","9:20:28","0","2","Practice_1","70","j","0","761.4000000059605","1366 x 768","1366 x 768","true","1","0","","","","",""
"null","<p style=""font-size: 80px;"">+ 10 points</p>","null","html-keyboard-response","22","180193","0.0-7.0-2.21","57725d2dd8e8880001b2fb13","jtmce5","SJR","48","F","{""name"":""Chrome"",""chrome"":true,""version"":""105.0"",""blink"":true,""windows"":true,""osname"":""Windows"",""osversion"":""10"",""a"":true}","9:20:28","0","2","Practice_4","70","f","1","1979.0999999940395","1366 x 768","1366 x 768","true","1","10","","","","",""
"null","<p style=""font-size: 80px;"">+ 10 points</p>","null","html-keyboard-response","23","183329","0.0-7.0-2.22","57725d2dd8e8880001b2fb13","jtmce5","SJR","48","F","{""name"":""Chrome"",""chrome"":true,""version"":""105.0"",""blink"":true,""windows"":true,""osname"":""Windows"",""osversion"":""10"",""a"":true}","9:20:28","0","2","Practice_3","74","j","1","1117","1366 x 768","1366 x 768","true","1","10","","","","",""
"null","<p style=""font-size: 80px;"">+ 0 points</p>","null","html-keyboard-response","24","186369","0.0-7.0-2.23","57725d2dd8e8880001b2fb13","jtmce5","SJR","48","F","{""name"":""Chrome"",""chrome"":true,""version"":""105.0"",""blink"":true,""windows"":true,""osname"":""Windows"",""osversion"":""10"",""a"":true}","9:20:28","0","2","Practice_2","74","f","0","801.8000000119209","1366 x 768","1366 x 768","true","1","0","","","","",""
"null","<p style=""font-size: 80px;"">+ 10 points</p>","null","html-keyboard-response","25","189373","0.0-7.0-2.24","57725d2dd8e8880001b2fb13","jtmce5","SJR","48","F","{""name"":""Chrome"",""chrome"":true,""version"":""105.0"",""blink"":true,""windows"":true,""osname"":""Windows"",""osversion"":""10"",""a"":true}","9:20:28","0","2","Practice_2","70","f","1","967.6999999880791","1366 x 768","1366 x 768","true","1","10","","","","",""
"null","<p style=""font-size: 80px;"">+ 10 points</p>","null","html-keyboard-response","26","192572","0.0-7.0-2.25","57725d2dd8e8880001b2fb13","jtmce5","SJR","48","F","{""name"":""Chrome"",""chrome"":true,""version"":""105.0"",""blink"":true,""windows"":true,""osname"":""Windows"",""osversion"":""10"",""a"":true}","9:20:28","0","2","Practice_3","74","j","1","1187.300000011921","1366 x 768","1366 x 768","true","1","10","","","","",""
"null","<p style=""font-size: 80px;"">+ 10 points</p>","null","html-keyboard-response","27","195797","0.0-7.0-2.26","57725d2dd8e8880001b2fb13","jtmce5","SJR","48","F","{""name"":""Chrome"",""chrome"":true,""version"":""105.0"",""blink"":true,""windows"":true,""osname"":""Windows"",""osversion"":""10"",""a"":true}","9:20:28","0","2","Practice_1","74","j","1","1186.0999999940395","1366 x 768","1366 x 768","true","1","10","","","","",""
"null","<p style=""font-size: 80px;"">+ 10 points</p>","null","html-keyboard-response","28","199758","0.0-7.0-2.27","57725d2dd8e8880001b2fb13","jtmce5","SJR","48","F","{""name"":""Chrome"",""chrome"":true,""version"":""105.0"",""blink"":true,""windows"":true,""osname"":""Windows"",""osversion"":""10"",""a"":true}","9:20:28","0","2","Practice_4","70","f","1","1945","1366 x 768","1366 x 768","true","1","10","","","","",""
"null","<p style=""font-size: 80px;"">+ 10 points</p>","null","html-keyboard-response","29","203079","0.0-7.0-2.28","57725d2dd8e8880001b2fb13","jtmce5","SJR","48","F","{""name"":""Chrome"",""chrome"":true,""version"":""105.0"",""blink"":true,""windows"":true,""osname"":""Windows"",""osversion"":""10"",""a"":true}","9:20:28","0","2","Practice_2","70","f","1","1301.199999988079","1366 x 768","1366 x 768","true","1","10","","","","",""
"null","<p style=""font-size: 80px;"">+ 10 points</p>","null","html-keyboard-response","30","206493","0.0-7.0-2.29","57725d2dd8e8880001b2fb13","jtmce5","SJR","48","F","{""name"":""Chrome"",""chrome"":true,""version"":""105.0"",""blink"":true,""windows"":true,""osname"":""Windows"",""osversion"":""10"",""a"":true}","9:20:28","0","2","Practice_3","74","j","1","1397.0999999940395","1366 x 768","1366 x 768","true","1","10","","","","",""
"null","<p style=""font-size: 80px;"">+ 10 points</p>","null","html-keyboard-response","31","209595","0.0-7.0-2.30","57725d2dd8e8880001b2fb13","jtmce5","SJR","48","F","{""name"":""Chrome"",""chrome"":true,""version"":""105.0"",""blink"":true,""windows"":true,""osname"":""Windows"",""osversion"":""10"",""a"":true}","9:20:28","0","2","Practice_1","74","j","1","1070.5999999940395","1366 x 768","1366 x 768","true","1","10","","","","",""
"null","<p style=""font-size: 80px;"">+ 10 points</p>","null","html-keyboard-response","32","212699","0.0-7.0-2.31","57725d2dd8e8880001b2fb13","jtmce5","SJR","48","F","{""name"":""Chrome"",""chrome"":true,""version"":""105.0"",""blink"":true,""windows"":true,""osname"":""Windows"",""osversion"":""10"",""a"":true}","9:20:28","0","2","Practice_4","70","f","1","1077.9000000059605","1366 x 768","1366 x 768","true","1","10","","","","",""
"null","<p style=""font-size: 80px;"">+ 10 points</p>","null","html-keyboard-response","33","215567","0.0-7.0-2.32","57725d2dd8e8880001b2fb13","jtmce5","SJR","48","F","{""name"":""Chrome"",""chrome"":true,""version"":""105.0"",""blink"":true,""windows"":true,""osname"":""Windows"",""osversion"":""10"",""a"":true}","9:20:28","0","2","Practice_4","70","f","1","823.1999999880791","1366 x 768","1366 x 768","true","1","10","","","","",""
"null","<p style=""font-size: 80px;"">+ 10 points</p>","null","html-keyboard-response","34","218499","0.0-7.0-2.33","57725d2dd8e8880001b2fb13","jtmce5","SJR","48","F","{""name"":""Chrome"",""chrome"":true,""version"":""105.0"",""blink"":true,""windows"":true,""osname"":""Windows"",""osversion"":""10"",""a"":true}","9:20:28","0","2","Practice_1","74","j","1","892.4000000059605","1366 x 768","1366 x 768","true","1","10","","","","",""
"null","<p style=""font-size: 80px;"">+ 10 points</p>","null","html-keyboard-response","35","221891","0.0-7.0-2.34","57725d2dd8e8880001b2fb13","jtmce5","SJR","48","F","{""name"":""Chrome"",""chrome"":true,""version"":""105.0"",""blink"":true,""windows"":true,""osname"":""Windows"",""osversion"":""10"",""a"":true}","9:20:28","0","2","Practice_3","74","j","1","1360.6000000238419","1366 x 768","1366 x 768","true","1","10","","","","",""
"null","<p style=""font-size: 80px;"">+ 10 points</p>","null","html-keyboard-response","36","225758","0.0-7.0-2.35","57725d2dd8e8880001b2fb13","jtmce5","SJR","48","F","{""name"":""Chrome"",""chrome"":true,""version"":""105.0"",""blink"":true,""windows"":true,""osname"":""Windows"",""osversion"":""10"",""a"":true}","9:20:28","0","2","Practice_2","70","f","1","1794.0999999940395","1366 x 768","1366 x 768","true","1","10","","","","",""
"null","<p style=""font-size: 80px;"">+ 10 points</p>","null","html-keyboard-response","37","228719","0.0-7.0-2.36","57725d2dd8e8880001b2fb13","jtmce5","SJR","48","F","{""name"":""Chrome"",""chrome"":true,""version"":""105.0"",""blink"":true,""windows"":true,""osname"":""Windows"",""osversion"":""10"",""a"":true}","9:20:28","0","2","Practice_4","70","f","1","940.2999999821186","1366 x 768","1366 x 768","true","1","10","","","","",""
"null","<p style=""font-size: 80px;"">+ 10 points</p>","null","html-keyboard-response","38","232275","0.0-7.0-2.37","57725d2dd8e8880001b2fb13","jtmce5","SJR","48","F","{""name"":""Chrome"",""chrome"":true,""version"":""105.0"",""blink"":true,""windows"":true,""osname"":""Windows"",""osversion"":""10"",""a"":true}","9:20:28","0","2","Practice_2","70","f","1","1491.199999988079","1366 x 768","1366 x 768","true","1","10","","","","",""
"null","<p style=""font-size: 80px;"">+ 10 points</p>","null","html-keyboard-response","39","235979","0.0-7.0-2.38","57725d2dd8e8880001b2fb13","jtmce5","SJR","48","F","{""name"":""Chrome"",""chrome"":true,""version"":""105.0"",""blink"":true,""windows"":true,""osname"":""Windows"",""osversion"":""10"",""a"":true}","9:20:28","0","2","Practice_3","74","j","1","1635.2999999821186","1366 x 768","1366 x 768","true","1","10","","","","",""
"null","<p style=""font-size: 80px;"">+ 10 points</p>","null","html-keyboard-response","40","239245","0.0-7.0-2.39","57725d2dd8e8880001b2fb13","jtmce5","SJR","48","F","{""name"":""Chrome"",""chrome"":true,""version"":""105.0"",""blink"":true,""windows"":true,""osname"":""Windows"",""osversion"":""10"",""a"":true}","9:20:28","0","2","Practice_1","74","j","1","1231.300000011921","1366 x 768","1366 x 768","true","1","10","","","","",""
"15336.399999976158","","","survey-multi-choice","127","254639","0.0-8.0","57725d2dd8e8880001b2fb13","jtmce5","SJR","48","F","{""name"":""Chrome"",""chrome"":true,""version"":""105.0"",""blink"":true,""windows"":true,""osname"":""Windows"",""osversion"":""10"",""a"":true}","9:20:28","","","","","","","","","","","1","","{""Q0"":""The red one"",""Q1"":""1""}","[0,1]","1","The red one","2"
"null","<p style=""font-size: 80px;"">+ 0 points</p>","null","html-keyboard-response","1","292561","0.0-11.0-2.0","57725d2dd8e8880001b2fb13","jtmce5","SJR","48","F","{""name"":""Chrome"",""chrome"":true,""version"":""105.0"",""blink"":true,""windows"":true,""osname"":""Windows"",""osversion"":""10"",""a"":true}","9:20:28","1","3","Test_2","70","j","0","2508.4000000059605","1366 x 768","1366 x 768","true","1","0","","","","",""
"null","<p style=""font-size: 80px;"">+ 10 points</p>","null","html-keyboard-response","2","295209","0.0-11.0-2.1","57725d2dd8e8880001b2fb13","jtmce5","SJR","48","F","{""name"":""Chrome"",""chrome"":true,""version"":""105.0"",""blink"":true,""windows"":true,""osname"":""Windows"",""osversion"":""10"",""a"":true}","9:20:28","1","3","Test_2","74","j","1","610.8000000119209","1366 x 768","1366 x 768","true","1","10","","","","",""
"null","<p style=""font-size: 80px;"">+ 0 points</p>","null","html-keyboard-response","3","298403","0.0-11.0-2.2","57725d2dd8e8880001b2fb13","jtmce5","SJR","48","F","{""name"":""Chrome"",""chrome"":true,""version"":""105.0"",""blink"":true,""windows"":true,""osname"":""Windows"",""osversion"":""10"",""a"":true}","9:20:28","1","3","Test_3","74","f","0","1178.199999988079","1366 x 768","1366 x 768","true","1","0","","","","",""
"null","<p style=""font-size: 80px;"">+ 10 points</p>","null","html-keyboard-response","4","302148","0.0-11.0-2.3","57725d2dd8e8880001b2fb13","jtmce5","SJR","48","F","{""name"":""Chrome"",""chrome"":true,""version"":""105.0"",""blink"":true,""windows"":true,""osname"":""Windows"",""osversion"":""10"",""a"":true}","9:20:28","1","3","Test_1","70","f","1","1726.7999999821186","1366 x 768","1366 x 768","true","1","10","","","","",""
"null","<p style=""font-size: 80px;"">+ 10 points</p>","null","html-keyboard-response","5","305445","0.0-11.0-2.4","57725d2dd8e8880001b2fb13","jtmce5","SJR","48","F","{""name"":""Chrome"",""chrome"":true,""version"":""105.0"",""blink"":true,""windows"":true,""osname"":""Windows"",""osversion"":""10"",""a"":true}","9:20:28","1","3","Test_3","70","f","1","1273.4000000059605","1366 x 768","1366 x 768","true","1","10","","","","",""
"null","<p style=""font-size: 80px;"">+ 10 points</p>","null","html-keyboard-response","6","308465","0.0-11.0-2.5","57725d2dd8e8880001b2fb13","jtmce5","SJR","48","F","{""name"":""Chrome"",""chrome"":true,""version"":""105.0"",""blink"":true,""windows"":true,""osname"":""Windows"",""osversion"":""10"",""a"":true}","9:20:28","1","3","Test_1","70","f","1","1006.3999999761581","1366 x 768","1366 x 768","true","1","10","","","","",""
"null","<p style=""font-size: 80px;"">+ 10 points</p>","null","html-keyboard-response","7","311189","0.0-11.0-2.6","57725d2dd8e8880001b2fb13","jtmce5","SJR","48","F","{""name"":""Chrome"",""chrome"":true,""version"":""105.0"",""blink"":true,""windows"":true,""osname"":""Windows"",""osversion"":""10"",""a"":true}","9:20:28","1","3","Test_1","70","f","1","711.1999999880791","1366 x 768","1366 x 768","true","1","10","","","","",""
"null","<p style=""font-size: 80px;"">+ 10 points</p>","null","html-keyboard-response","8","313933","0.0-11.0-2.7","57725d2dd8e8880001b2fb13","jtmce5","SJR","48","F","{""name"":""Chrome"",""chrome"":true,""version"":""105.0"",""blink"":true,""windows"":true,""osname"":""Windows"",""osversion"":""10"",""a"":true}","9:20:28","1","3","Test_1","70","f","1","715.2999999821186","1366 x 768","1366 x 768","true","1","10","","","","",""
"null","<p style=""font-size: 80px;"">+ 10 points</p>","null","html-keyboard-response","9","317320","0.0-11.0-2.8","57725d2dd8e8880001b2fb13","jtmce5","SJR","48","F","{""name"":""Chrome"",""chrome"":true,""version"":""105.0"",""blink"":true,""windows"":true,""osname"":""Windows"",""osversion"":""10"",""a"":true}","9:20:28","1","3","Test_4","74","j","1","1352","1366 x 768","1366 x 768","true","1","10","","","","",""
"null","<p style=""font-size: 80px;"">+ 10 points</p>","null","html-keyboard-response","10","320434","0.0-11.0-2.9","57725d2dd8e8880001b2fb13","jtmce5","SJR","48","F","{""name"":""Chrome"",""chrome"":true,""version"":""105.0"",""blink"":true,""windows"":true,""osname"":""Windows"",""osversion"":""10"",""a"":true}","9:20:28","1","3","Test_2","74","j","1","1091.2000000178814","1366 x 768","1366 x 768","true","1","10","","","","",""
"null","<p style=""font-size: 80px;"">+ 10 points</p>","null","html-keyboard-response","11","323711","0.0-11.0-2.10","57725d2dd8e8880001b2fb13","jtmce5","SJR","48","F","{""name"":""Chrome"",""chrome"":true,""version"":""105.0"",""blink"":true,""windows"":true,""osname"":""Windows"",""osversion"":""10"",""a"":true}","9:20:28","1","3","Test_4","74","j","1","1239.5999999940395","1366 x 768","1366 x 768","true","1","10","","","","",""
"null","<p style=""font-size: 80px;"">+ 10 points</p>","null","html-keyboard-response","12","326720","0.0-11.0-2.11","57725d2dd8e8880001b2fb13","jtmce5","SJR","48","F","{""name"":""Chrome"",""chrome"":true,""version"":""105.0"",""blink"":true,""windows"":true,""osname"":""Windows"",""osversion"":""10"",""a"":true}","9:20:28","1","3","Test_3","70","f","1","986.5","1366 x 768","1366 x 768","true","1","10","","","","",""
"null","<p style=""font-size: 80px;"">+ 10 points</p>","null","html-keyboard-response","13","329504","0.0-11.0-2.12","57725d2dd8e8880001b2fb13","jtmce5","SJR","48","F","{""name"":""Chrome"",""chrome"":true,""version"":""105.0"",""blink"":true,""windows"":true,""osname"":""Windows"",""osversion"":""10"",""a"":true}","9:20:28","1","3","Test_4","74","j","1","767.1999999880791","1366 x 768","1366 x 768","true","1","10","","","","",""
"null","<p style=""font-size: 80px;"">+ 10 points</p>","null","html-keyboard-response","14","332503","0.0-11.0-2.13","57725d2dd8e8880001b2fb13","jtmce5","SJR","48","F","{""name"":""Chrome"",""chrome"":true,""version"":""105.0"",""blink"":true,""windows"":true,""osname"":""Windows"",""osversion"":""10"",""a"":true}","9:20:28","1","3","Test_1","70","f","1","965.2999999821186","1366 x 768","1366 x 768","true","1","10","","","","",""
"null","<p style=""font-size: 80px;"">+ 10 points</p>","null","html-keyboard-response","15","335299","0.0-11.0-2.14","57725d2dd8e8880001b2fb13","jtmce5","SJR","48","F","{""name"":""Chrome"",""chrome"":true,""version"":""105.0"",""blink"":true,""windows"":true,""osname"":""Windows"",""osversion"":""10"",""a"":true}","9:20:28","1","3","Test_2","74","j","1","783","1366 x 768","1366 x 768","true","1","10","","","","",""
"null","<p style=""font-size: 80px;"">+ 10 points</p>","null","html-keyboard-response","16","338195","0.0-11.0-2.15","57725d2dd8e8880001b2fb13","jtmce5","SJR","48","F","{""name"":""Chrome"",""chrome"":true,""version"":""105.0"",""blink"":true,""windows"":true,""osname"":""Windows"",""osversion"":""10"",""a"":true}","9:20:28","1","3","Test_4","74","j","1","873.7999999821186","1366 x 768","1366 x 768","true","1","10","","","","",""
"null","<p style=""font-size: 80px;"">+ 10 points</p>","null","html-keyboard-response","17","341202","0.0-11.0-2.16","57725d2dd8e8880001b2fb13","jtmce5","SJR","48","F","{""name"":""Chrome"",""chrome"":true,""version"":""105.0"",""blink"":true,""windows"":true,""osname"":""Windows"",""osversion"":""10"",""a"":true}","9:20:28","1","3","Test_3","70","f","1","970.8000000119209","1366 x 768","1366 x 768","true","1","10","","","","",""
"null","<p style=""font-size: 80px;"">+ 10 points</p>","null","html-keyboard-response","18","344041","0.0-11.0-2.17","57725d2dd8e8880001b2fb13","jtmce5","SJR","48","F","{""name"":""Chrome"",""chrome"":true,""version"":""105.0"",""blink"":true,""windows"":true,""osname"":""Windows"",""osversion"":""10"",""a"":true}","9:20:28","1","3","Test_4","74","j","1","813.6999999880791","1366 x 768","1366 x 768","true","1","10","","","","",""
"null","<p style=""font-size: 80px;"">+ 10 points</p>","null","html-keyboard-response","19","346955","0.0-11.0-2.18","57725d2dd8e8880001b2fb13","jtmce5","SJR","48","F","{""name"":""Chrome"",""chrome"":true,""version"":""105.0"",""blink"":true,""windows"":true,""osname"":""Windows"",""osversion"":""10"",""a"":true}","9:20:28","1","3","Test_3","70","f","1","879","1366 x 768","1366 x 768","true","1","10","","","","",""
"null","<p style=""font-size: 80px;"">+ 0 points</p>","null","html-keyboard-response","20","349841","0.0-11.0-2.19","57725d2dd8e8880001b2fb13","jtmce5","SJR","48","F","{""name"":""Chrome"",""chrome"":true,""version"":""105.0"",""blink"":true,""windows"":true,""osname"":""Windows"",""osversion"":""10"",""a"":true}","9:20:28","1","4","Test_4","74","f","0","856.5999999940395","1366 x 768","1366 x 768","true","1","0","","","","",""
"null","<p style=""font-size: 80px;"">+ 10 points</p>","null","html-keyboard-response","21","353086","0.0-11.0-2.20","57725d2dd8e8880001b2fb13","jtmce5","SJR","48","F","{""name"":""Chrome"",""chrome"":true,""version"":""105.0"",""blink"":true,""windows"":true,""osname"":""Windows"",""osversion"":""10"",""a"":true}","9:20:28","1","4","Test_3","74","j","1","1224","1366 x 768","1366 x 768","true","1","10","","","","",""
"null","<p style=""font-size: 80px;"">+ 10 points</p>","null","html-keyboard-response","22","356523","0.0-11.0-2.21","57725d2dd8e8880001b2fb13","jtmce5","SJR","48","F","{""name"":""Chrome"",""chrome"":true,""version"":""105.0"",""blink"":true,""windows"":true,""osname"":""Windows"",""osversion"":""10"",""a"":true}","9:20:28","1","4","Test_1","74","j","1","1403.2999999821186","1366 x 768","1366 x 768","true","1","10","","","","",""
"null","<p style=""font-size: 80px;"">+ 10 points</p>","null","html-keyboard-response","23","359513","0.0-11.0-2.22","57725d2dd8e8880001b2fb13","jtmce5","SJR","48","F","{""name"":""Chrome"",""chrome"":true,""version"":""105.0"",""blink"":true,""windows"":true,""osname"":""Windows"",""osversion"":""10"",""a"":true}","9:20:28","1","4","Test_4","70","f","1","972.5999999940395","1366 x 768","1366 x 768","true","1","10","","","","",""
"null","<p style=""font-size: 80px;"">+ 10 points</p>","null","html-keyboard-response","24","362248","0.0-11.0-2.23","57725d2dd8e8880001b2fb13","jtmce5","SJR","48","F","{""name"":""Chrome"",""chrome"":true,""version"":""105.0"",""blink"":true,""windows"":true,""osname"":""Windows"",""osversion"":""10"",""a"":true}","9:20:28","1","4","Test_4","70","f","1","717.7000000178814","1366 x 768","1366 x 768","true","1","10","","","","",""
"null","<p style=""font-size: 80px;"">+ 10 points</p>","null","html-keyboard-response","25","365097","0.0-11.0-2.24","57725d2dd8e8880001b2fb13","jtmce5","SJR","48","F","{""name"":""Chrome"",""chrome"":true,""version"":""105.0"",""blink"":true,""windows"":true,""osname"":""Windows"",""osversion"":""10"",""a"":true}","9:20:28","1","4","Test_4","70","f","1","834.2000000178814","1366 x 768","1366 x 768","true","1","10","","","","",""
"null","<p style=""font-size: 80px;"">+ 10 points</p>","null","html-keyboard-response","26","367880","0.0-11.0-2.25","57725d2dd8e8880001b2fb13","jtmce5","SJR","48","F","{""name"":""Chrome"",""chrome"":true,""version"":""105.0"",""blink"":true,""windows"":true,""osname"":""Windows"",""osversion"":""10"",""a"":true}","9:20:28","1","4","Test_4","70","f","1","766.6000000238419","1366 x 768","1366 x 768","true","1","10","","","","",""
"null","<p style=""font-size: 80px;"">+ 10 points</p>","null","html-keyboard-response","27","371132","0.0-11.0-2.26","57725d2dd8e8880001b2fb13","jtmce5","SJR","48","F","{""name"":""Chrome"",""chrome"":true,""version"":""105.0"",""blink"":true,""windows"":true,""osname"":""Windows"",""osversion"":""10"",""a"":true}","9:20:28","1","4","Test_2","70","f","1","1240.0999999940395","1366 x 768","1366 x 768","true","1","10","","","","",""
"null","<p style=""font-size: 80px;"">+ 10 points</p>","null","html-keyboard-response","28","374456","0.0-11.0-2.27","57725d2dd8e8880001b2fb13","jtmce5","SJR","48","F","{""name"":""Chrome"",""chrome"":true,""version"":""105.0"",""blink"":true,""windows"":true,""osname"":""Windows"",""osversion"":""10"",""a"":true}","9:20:28","1","4","Test_4","70","f","1","1287.5999999940395","1366 x 768","1366 x 768","true","1","10","","","","",""
"null","<p style=""font-size: 80px;"">+ 10 points</p>","null","html-keyboard-response","29","377624","0.0-11.0-2.28","57725d2dd8e8880001b2fb13","jtmce5","SJR","48","F","{""name"":""Chrome"",""chrome"":true,""version"":""105.0"",""blink"":true,""windows"":true,""osname"":""Windows"",""osversion"":""10"",""a"":true}","9:20:28","1","4","Test_1","74","j","1","1136.2999999821186","1366 x 768","1366 x 768","true","1","10","","","","",""
"null","<p style=""font-size: 80px;"">+ 10 points</p>","null","html-keyboard-response","30","380616","0.0-11.0-2.29","57725d2dd8e8880001b2fb13","jtmce5","SJR","48","F","{""name"":""Chrome"",""chrome"":true,""version"":""105.0"",""blink"":true,""windows"":true,""osname"":""Windows"",""osversion"":""10"",""a"":true}","9:20:28","1","4","Test_2","70","f","1","972.8000000119209","1366 x 768","1366 x 768","true","1","10","","","","",""
"null","<p style=""font-size: 80px;"">+ 10 points</p>","null","html-keyboard-response","31","383516","0.0-11.0-2.30","57725d2dd8e8880001b2fb13","jtmce5","SJR","48","F","{""name"":""Chrome"",""chrome"":true,""version"":""105.0"",""blink"":true,""windows"":true,""osname"":""Windows"",""osversion"":""10"",""a"":true}","9:20:28","1","4","Test_2","70","f","1","869.8999999761581","1366 x 768","1366 x 768","true","1","10","","","","",""
"null","<p style=""font-size: 80px;"">+ 10 points</p>","null","html-keyboard-response","32","386018","0.0-11.0-2.31","57725d2dd8e8880001b2fb13","jtmce5","SJR","48","F","{""name"":""Chrome"",""chrome"":true,""version"":""105.0"",""blink"":true,""windows"":true,""osname"":""Windows"",""osversion"":""10"",""a"":true}","9:20:28","1","4","Test_2","70","f","1","489.5","1366 x 768","1366 x 768","true","1","10","","","","",""
"null","<p style=""font-size: 80px;"">+ 10 points</p>","null","html-keyboard-response","33","388712","0.0-11.0-2.32","57725d2dd8e8880001b2fb13","jtmce5","SJR","48","F","{""name"":""Chrome"",""chrome"":true,""version"":""105.0"",""blink"":true,""windows"":true,""osname"":""Windows"",""osversion"":""10"",""a"":true}","9:20:28","1","4","Test_3","74","j","1","668.5","1366 x 768","1366 x 768","true","1","10","","","","",""
"null","<p style=""font-size: 80px;"">+ 10 points</p>","null","html-keyboard-response","34","391597","0.0-11.0-2.33","57725d2dd8e8880001b2fb13","jtmce5","SJR","48","F","{""name"":""Chrome"",""chrome"":true,""version"":""105.0"",""blink"":true,""windows"":true,""osname"":""Windows"",""osversion"":""10"",""a"":true}","9:20:28","1","4","Test_1","74","j","1","859.5","1366 x 768","1366 x 768","true","1","10","","","","",""
"null","<p style=""font-size: 80px;"">+ 10 points</p>","null","html-keyboard-response","35","394542","0.0-11.0-2.34","57725d2dd8e8880001b2fb13","jtmce5","SJR","48","F","{""name"":""Chrome"",""chrome"":true,""version"":""105.0"",""blink"":true,""windows"":true,""osname"":""Windows"",""osversion"":""10"",""a"":true}","9:20:28","1","4","Test_1","74","j","1","901.8000000119209","1366 x 768","1366 x 768","true","1","10","","","","",""
"null","<p style=""font-size: 80px;"">+ 0 points</p>","null","html-keyboard-response","36","397476","0.0-11.0-2.35","57725d2dd8e8880001b2fb13","jtmce5","SJR","48","F","{""name"":""Chrome"",""chrome"":true,""version"":""105.0"",""blink"":true,""windows"":true,""osname"":""Windows"",""osversion"":""10"",""a"":true}","9:20:28","1","4","Test_3","70","j","0","915.1999999880791","1366 x 768","1366 x 768","true","1","0","","","","",""
"null","<p style=""font-size: 80px;"">+ 10 points</p>","null","html-keyboard-response","37","400521","0.0-11.0-2.36","57725d2dd8e8880001b2fb13","jtmce5","SJR","48","F","{""name"":""Chrome"",""chrome"":true,""version"":""105.0"",""blink"":true,""windows"":true,""osname"":""Windows"",""osversion"":""10"",""a"":true}","9:20:28","1","4","Test_2","70","f","1","1027.5999999940395","1366 x 768","1366 x 768","true","1","10","","","","",""
"null","<p style=""font-size: 80px;"">+ 10 points</p>","null","html-keyboard-response","38","403370","0.0-11.0-2.37","57725d2dd8e8880001b2fb13","jtmce5","SJR","48","F","{""name"":""Chrome"",""chrome"":true,""version"":""105.0"",""blink"":true,""windows"":true,""osname"":""Windows"",""osversion"":""10"",""a"":true}","9:20:28","1","4","Test_1","74","j","1","824.4000000059605","1366 x 768","1366 x 768","true","1","10","","","","",""
"null","<p style=""font-size: 80px;"">+ 10 points</p>","null","html-keyboard-response","39","406093","0.0-11.0-2.38","57725d2dd8e8880001b2fb13","jtmce5","SJR","48","F","{""name"":""Chrome"",""chrome"":true,""version"":""105.0"",""blink"":true,""windows"":true,""osname"":""Windows"",""osversion"":""10"",""a"":true}","9:20:28","1","4","Test_3","74","j","1","685.7999999821186","1366 x 768","1366 x 768","true","1","10","","","","",""
"null","<p style=""font-size: 80px;"">+ 10 points</p>","null","html-keyboard-response","40","409266","0.0-11.0-2.39","57725d2dd8e8880001b2fb13","jtmce5","SJR","48","F","{""name"":""Chrome"",""chrome"":true,""version"":""105.0"",""blink"":true,""windows"":true,""osname"":""Windows"",""osversion"":""10"",""a"":true}","9:20:28","1","4","Test_1","74","j","1","1149.4000000059605","1366 x 768","1366 x 768","true","1","10","","","","",""
"null","<p style=""font-size: 80px;"">+ 10 points</p>","null","html-keyboard-response","41","411827","0.0-11.0-2.40","57725d2dd8e8880001b2fb13","jtmce5","SJR","48","F","{""name"":""Chrome"",""chrome"":true,""version"":""105.0"",""blink"":true,""windows"":true,""osname"":""Windows"",""osversion"":""10"",""a"":true}","9:20:28","1","4","Test_2","70","f","1","538.3000000119209","1366 x 768","1366 x 768","true","1","10","","","","",""
"null","<p style=""font-size: 80px;"">+ 10 points</p>","null","html-keyboard-response","42","414876","0.0-11.0-2.41","57725d2dd8e8880001b2fb13","jtmce5","SJR","48","F","{""name"":""Chrome"",""chrome"":true,""version"":""105.0"",""blink"":true,""windows"":true,""osname"":""Windows"",""osversion"":""10"",""a"":true}","9:20:28","1","4","Test_3","74","j","1","1020.9000000059605","1366 x 768","1366 x 768","true","1","10","","","","",""
"null","<p style=""font-size: 80px;"">+ 10 points</p>","null","html-keyboard-response","43","417419","0.0-11.0-2.42","57725d2dd8e8880001b2fb13","jtmce5","SJR","48","F","{""name"":""Chrome"",""chrome"":true,""version"":""105.0"",""blink"":true,""windows"":true,""osname"":""Windows"",""osversion"":""10"",""a"":true}","9:20:28","1","4","Test_3","74","j","1","524.9000000059605","1366 x 768","1366 x 768","true","1","10","","","","",""
"null","<p style=""font-size: 80px;"">+ 0 points</p>","null","html-keyboard-response","44","420211","0.0-11.0-2.43","57725d2dd8e8880001b2fb13","jtmce5","SJR","48","F","{""name"":""Chrome"",""chrome"":true,""version"":""105.0"",""blink"":true,""windows"":true,""osname"":""Windows"",""osversion"":""10"",""a"":true}","9:20:28","1","3","Test_4","70","j","0","778.5","1366 x 768","1366 x 768","true","1","0","","","","",""
"null","<p style=""font-size: 80px;"">+ 0 points</p>","null","html-keyboard-response","45","423755","0.0-11.0-2.44","57725d2dd8e8880001b2fb13","jtmce5","SJR","48","F","{""name"":""Chrome"",""chrome"":true,""version"":""105.0"",""blink"":true,""windows"":true,""osname"":""Windows"",""osversion"":""10"",""a"":true}","9:20:28","1","3","Test_1","74","f","0","1505","1366 x 768","1366 x 768","true","1","0","","","","",""
"null","<p style=""font-size: 80px;"">+ 10 points</p>","null","html-keyboard-response","46","426332","0.0-11.0-2.45","57725d2dd8e8880001b2fb13","jtmce5","SJR","48","F","{""name"":""Chrome"",""chrome"":true,""version"":""105.0"",""blink"":true,""windows"":true,""osname"":""Windows"",""osversion"":""10"",""a"":true}","9:20:28","1","3","Test_1","70","f","1","560.6000000238419","1366 x 768","1366 x 768","true","1","10","","","","",""
"null","<p style=""font-size: 80px;"">+ 10 points</p>","null","html-keyboard-response","47","429007","0.0-11.0-2.46","57725d2dd8e8880001b2fb13","jtmce5","SJR","48","F","{""name"":""Chrome"",""chrome"":true,""version"":""105.0"",""blink"":true,""windows"":true,""osname"":""Windows"",""osversion"":""10"",""a"":true}","9:20:28","1","3","Test_4","74","j","1","640.9000000059605","1366 x 768","1366 x 768","true","1","10","","","","",""
"null","<p style=""font-size: 80px;"">+ 10 points</p>","null","html-keyboard-response","48","431910","0.0-11.0-2.47","57725d2dd8e8880001b2fb13","jtmce5","SJR","48","F","{""name"":""Chrome"",""chrome"":true,""version"":""105.0"",""blink"":true,""windows"":true,""osname"":""Windows"",""osversion"":""10"",""a"":true}","9:20:28","1","3","Test_2","74","j","1","869.8000000119209","1366 x 768","1366 x 768","true","1","10","","","","",""
"null","<p style=""font-size: 80px;"">+ 10 points</p>","null","html-keyboard-response","49","435551","0.0-11.0-2.48","57725d2dd8e8880001b2fb13","jtmce5","SJR","48","F","{""name"":""Chrome"",""chrome"":true,""version"":""105.0"",""blink"":true,""windows"":true,""osname"":""Windows"",""osversion"":""10"",""a"":true}","9:20:28","1","3","Test_3","70","f","1","1627","1366 x 768","1366 x 768","true","1","10","","","","",""
"null","<p style=""font-size: 80px;"">+ 10 points</p>","null","html-keyboard-response","50","438753","0.0-11.0-2.49","57725d2dd8e8880001b2fb13","jtmce5","SJR","48","F","{""name"":""Chrome"",""chrome"":true,""version"":""105.0"",""blink"":true,""windows"":true,""osname"":""Windows"",""osversion"":""10"",""a"":true}","9:20:28","1","3","Test_2","74","j","1","1191.2999999821186","1366 x 768","1366 x 768","true","1","10","","","","",""
"null","<p style=""font-size: 80px;"">+ 10 points</p>","null","html-keyboard-response","51","441641","0.0-11.0-2.50","57725d2dd8e8880001b2fb13","jtmce5","SJR","48","F","{""name"":""Chrome"",""chrome"":true,""version"":""105.0"",""blink"":true,""windows"":true,""osname"":""Windows"",""osversion"":""10"",""a"":true}","9:20:28","1","3","Test_2","74","j","1","868.0999999940395","1366 x 768","1366 x 768","true","1","10","","","","",""
"null","<p style=""font-size: 80px;"">+ 10 points</p>","null","html-keyboard-response","52","444496","0.0-11.0-2.51","57725d2dd8e8880001b2fb13","jtmce5","SJR","48","F","{""name"":""Chrome"",""chrome"":true,""version"":""105.0"",""blink"":true,""windows"":true,""osname"":""Windows"",""osversion"":""10"",""a"":true}","9:20:28","1","3","Test_2","74","j","1","836.0999999940395","1366 x 768","1366 x 768","true","1","10","","","","",""
"null","<p style=""font-size: 80px;"">+ 10 points</p>","null","html-keyboard-response","53","447553","0.0-11.0-2.52","57725d2dd8e8880001b2fb13","jtmce5","SJR","48","F","{""name"":""Chrome"",""chrome"":true,""version"":""105.0"",""blink"":true,""windows"":true,""osname"":""Windows"",""osversion"":""10"",""a"":true}","9:20:28","1","3","Test_3","70","f","1","1034.7999999821186","1366 x 768","1366 x 768","true","1","10","","","","",""
"null","<p style=""font-size: 80px;"">+ 10 points</p>","null","html-keyboard-response","54","450560","0.0-11.0-2.53","57725d2dd8e8880001b2fb13","jtmce5","SJR","48","F","{""name"":""Chrome"",""chrome"":true,""version"":""105.0"",""blink"":true,""windows"":true,""osname"":""Windows"",""osversion"":""10"",""a"":true}","9:20:28","1","3","Test_4","74","j","1","971.5","1366 x 768","1366 x 768","true","1","10","","","","",""
"null","<p style=""font-size: 80px;"">+ 10 points</p>","null","html-keyboard-response","55","453499","0.0-11.0-2.54","57725d2dd8e8880001b2fb13","jtmce5","SJR","48","F","{""name"":""Chrome"",""chrome"":true,""version"":""105.0"",""blink"":true,""windows"":true,""osname"":""Windows"",""osversion"":""10"",""a"":true}","9:20:28","1","3","Test_2","74","j","1","921.2000000178814","1366 x 768","1366 x 768","true","1","10","","","","",""
"null","<p style=""font-size: 80px;"">+ 10 points</p>","null","html-keyboard-response","56","456613","0.0-11.0-2.55","57725d2dd8e8880001b2fb13","jtmce5","SJR","48","F","{""name"":""Chrome"",""chrome"":true,""version"":""105.0"",""blink"":true,""windows"":true,""osname"":""Windows"",""osversion"":""10"",""a"":true}","9:20:28","1","3","Test_3","70","f","1","1096.300000011921","1366 x 768","1366 x 768","true","1","10","","","","",""
"null","<p style=""font-size: 80px;"">+ 10 points</p>","null","html-keyboard-response","57","459450","0.0-11.0-2.56","57725d2dd8e8880001b2fb13","jtmce5","SJR","48","F","{""name"":""Chrome"",""chrome"":true,""version"":""105.0"",""blink"":true,""windows"":true,""osname"":""Windows"",""osversion"":""10"",""a"":true}","9:20:28","1","3","Test_3","70","f","1","822.5","1366 x 768","1366 x 768","true","1","10","","","","",""
"null","<p style=""font-size: 80px;"">+ 10 points</p>","null","html-keyboard-response","58","462351","0.0-11.0-2.57","57725d2dd8e8880001b2fb13","jtmce5","SJR","48","F","{""name"":""Chrome"",""chrome"":true,""version"":""105.0"",""blink"":true,""windows"":true,""osname"":""Windows"",""osversion"":""10"",""a"":true}","9:20:28","1","3","Test_4","74","j","1","874.2000000178814","1366 x 768","1366 x 768","true","1","10","","","","",""
"null","<p style=""font-size: 80px;"">+ 10 points</p>","null","html-keyboard-response","59","464922","0.0-11.0-2.58","57725d2dd8e8880001b2fb13","jtmce5","SJR","48","F","{""name"":""Chrome"",""chrome"":true,""version"":""105.0"",""blink"":true,""windows"":true,""osname"":""Windows"",""osversion"":""10"",""a"":true}","9:20:28","1","3","Test_4","74","j","1","545.4000000059605","1366 x 768","1366 x 768","true","1","10","","","","",""
"null","<p style=""font-size: 80px;"">+ 10 points</p>","null","html-keyboard-response","60","467495","0.0-11.0-2.59","57725d2dd8e8880001b2fb13","jtmce5","SJR","48","F","{""name"":""Chrome"",""chrome"":true,""version"":""105.0"",""blink"":true,""windows"":true,""osname"":""Windows"",""osversion"":""10"",""a"":true}","9:20:28","1","3","Test_1","70","f","1","553.6999999880791","1366 x 768","1366 x 768","true","1","10","","","","",""
"null","<p style=""font-size: 80px;"">+ 0 points</p>","null","html-keyboard-response","61","470473","0.0-11.0-2.60","57725d2dd8e8880001b2fb13","jtmce5","SJR","48","F","{""name"":""Chrome"",""chrome"":true,""version"":""105.0"",""blink"":true,""windows"":true,""osname"":""Windows"",""osversion"":""10"",""a"":true}","9:20:28","1","4","Test_2","74","f","0","956.2999999821186","1366 x 768","1366 x 768","true","1","0","","","","",""
"null","<p style=""font-size: 80px;"">+ 10 points</p>","null","html-keyboard-response","62","473368","0.0-11.0-2.61","57725d2dd8e8880001b2fb13","jtmce5","SJR","48","F","{""name"":""Chrome"",""chrome"":true,""version"":""105.0"",""blink"":true,""windows"":true,""osname"":""Windows"",""osversion"":""10"",""a"":true}","9:20:28","1","4","Test_2","70","f","1","877.4000000059605","1366 x 768","1366 x 768","true","1","10","","","","",""
"null","<p style=""font-size: 80px;"">+ 10 points</p>","null","html-keyboard-response","63","475906","0.0-11.0-2.62","57725d2dd8e8880001b2fb13","jtmce5","SJR","48","F","{""name"":""Chrome"",""chrome"":true,""version"":""105.0"",""blink"":true,""windows"":true,""osname"":""Windows"",""osversion"":""10"",""a"":true}","9:20:28","1","4","Test_2","70","f","1","507.59999999403954","1366 x 768","1366 x 768","true","1","10","","","","",""
"null","<p style=""font-size: 80px;"">+ 10 points</p>","null","html-keyboard-response","64","478558","0.0-11.0-2.63","57725d2dd8e8880001b2fb13","jtmce5","SJR","48","F","{""name"":""Chrome"",""chrome"":true,""version"":""105.0"",""blink"":true,""windows"":true,""osname"":""Windows"",""osversion"":""10"",""a"":true}","9:20:28","1","4","Test_1","74","j","1","617.5999999940395","1366 x 768","1366 x 768","true","1","10","","","","",""
"null","<p style=""font-size: 80px;"">+ 10 points</p>","null","html-keyboard-response","65","481100","0.0-11.0-2.64","57725d2dd8e8880001b2fb13","jtmce5","SJR","48","F","{""name"":""Chrome"",""chrome"":true,""version"":""105.0"",""blink"":true,""windows"":true,""osname"":""Windows"",""osversion"":""10"",""a"":true}","9:20:28","1","4","Test_3","74","j","1","525.4000000059605","1366 x 768","1366 x 768","true","1","10","","","","",""
"null","<p style=""font-size: 80px;"">+ 10 points</p>","null","html-keyboard-response","66","483596","0.0-11.0-2.65","57725d2dd8e8880001b2fb13","jtmce5","SJR","48","F","{""name"":""Chrome"",""chrome"":true,""version"":""105.0"",""blink"":true,""windows"":true,""osname"":""Windows"",""osversion"":""10"",""a"":true}","9:20:28","1","4","Test_3","74","j","1","478.69999998807907","1366 x 768","1366 x 768","true","1","10","","","","",""
"null","<p style=""font-size: 80px;"">+ 10 points</p>","null","html-keyboard-response","67","486563","0.0-11.0-2.66","57725d2dd8e8880001b2fb13","jtmce5","SJR","48","F","{""name"":""Chrome"",""chrome"":true,""version"":""105.0"",""blink"":true,""windows"":true,""osname"":""Windows"",""osversion"":""10"",""a"":true}","9:20:28","1","4","Test_1","74","j","1","951.3000000119209","1366 x 768","1366 x 768","true","1","10","","","","",""
"null","<p style=""font-size: 80px;"">+ 10 points</p>","null","html-keyboard-response","68","489341","0.0-11.0-2.67","57725d2dd8e8880001b2fb13","jtmce5","SJR","48","F","{""name"":""Chrome"",""chrome"":true,""version"":""105.0"",""blink"":true,""windows"":true,""osname"":""Windows"",""osversion"":""10"",""a"":true}","9:20:28","1","4","Test_3","74","j","1","752.4000000059605","1366 x 768","1366 x 768","true","1","10","","","","",""
"null","<p style=""font-size: 80px;"">+ 10 points</p>","null","html-keyboard-response","69","492559","0.0-11.0-2.68","57725d2dd8e8880001b2fb13","jtmce5","SJR","48","F","{""name"":""Chrome"",""chrome"":true,""version"":""105.0"",""blink"":true,""windows"":true,""osname"":""Windows"",""osversion"":""10"",""a"":true}","9:20:28","1","4","Test_1","74","j","1","1189.0999999940395","1366 x 768","1366 x 768","true","1","10","","","","",""
"null","<p style=""font-size: 80px;"">+ 10 points</p>","null","html-keyboard-response","70","495545","0.0-11.0-2.69","57725d2dd8e8880001b2fb13","jtmce5","SJR","48","F","{""name"":""Chrome"",""chrome"":true,""version"":""105.0"",""blink"":true,""windows"":true,""osname"":""Windows"",""osversion"":""10"",""a"":true}","9:20:28","1","4","Test_2","70","f","1","956.6999999880791","1366 x 768","1366 x 768","true","1","10","","","","",""
"null","<p style=""font-size: 80px;"">+ 10 points</p>","null","html-keyboard-response","71","498557","0.0-11.0-2.70","57725d2dd8e8880001b2fb13","jtmce5","SJR","48","F","{""name"":""Chrome"",""chrome"":true,""version"":""105.0"",""blink"":true,""windows"":true,""osname"":""Windows"",""osversion"":""10"",""a"":true}","9:20:28","1","4","Test_4","70","f","1","1004.0999999940395","1366 x 768","1366 x 768","true","1","10","","","","",""
"null","<p style=""font-size: 80px;"">+ 10 points</p>","null","html-keyboard-response","72","502163","0.0-11.0-2.71","57725d2dd8e8880001b2fb13","jtmce5","SJR","48","F","{""name"":""Chrome"",""chrome"":true,""version"":""105.0"",""blink"":true,""windows"":true,""osname"":""Windows"",""osversion"":""10"",""a"":true}","9:20:28","1","4","Test_4","70","f","1","1594.4000000059605","1366 x 768","1366 x 768","true","1","10","","","","",""
"null","<p style=""font-size: 80px;"">+ 10 points</p>","null","html-keyboard-response","73","505332","0.0-11.0-2.72","57725d2dd8e8880001b2fb13","jtmce5","SJR","48","F","{""name"":""Chrome"",""chrome"":true,""version"":""105.0"",""blink"":true,""windows"":true,""osname"":""Windows"",""osversion"":""10"",""a"":true}","9:20:28","1","4","Test_4","70","f","1","1130.7999999821186","1366 x 768","1366 x 768","true","1","10","","","","",""
"null","<p style=""font-size: 80px;"">+ 10 points</p>","null","html-keyboard-response","74","508138","0.0-11.0-2.73","57725d2dd8e8880001b2fb13","jtmce5","SJR","48","F","{""name"":""Chrome"",""chrome"":true,""version"":""105.0"",""blink"":true,""windows"":true,""osname"":""Windows"",""osversion"":""10"",""a"":true}","9:20:28","1","4","Test_1","74","j","1","782.7999999821186","1366 x 768","1366 x 768","true","1","10","","","","",""
"null","<p style=""font-size: 80px;"">+ 10 points</p>","null","html-keyboard-response","75","510818","0.0-11.0-2.74","57725d2dd8e8880001b2fb13","jtmce5","SJR","48","F","{""name"":""Chrome"",""chrome"":true,""version"":""105.0"",""blink"":true,""windows"":true,""osname"":""Windows"",""osversion"":""10"",""a"":true}","9:20:28","1","4","Test_2","70","f","1","652.7999999821186","1366 x 768","1366 x 768","true","1","10","","","","",""
"null","<p style=""font-size: 80px;"">+ 10 points</p>","null","html-keyboard-response","76","514012","0.0-11.0-2.75","57725d2dd8e8880001b2fb13","jtmce5","SJR","48","F","{""name"":""Chrome"",""chrome"":true,""version"":""105.0"",""blink"":true,""windows"":true,""osname"":""Windows"",""osversion"":""10"",""a"":true}","9:20:28","1","4","Test_4","70","f","1","1163.699999988079","1366 x 768","1366 x 768","true","1","10","","","","",""
"null","<p style=""font-size: 80px;"">+ 10 points</p>","null","html-keyboard-response","77","516719","0.0-11.0-2.76","57725d2dd8e8880001b2fb13","jtmce5","SJR","48","F","{""name"":""Chrome"",""chrome"":true,""version"":""105.0"",""blink"":true,""windows"":true,""osname"":""Windows"",""osversion"":""10"",""a"":true}","9:20:28","1","4","Test_3","74","j","1","669.4000000059605","1366 x 768","1366 x 768","true","1","10","","","","",""
"null","<p style=""font-size: 80px;"">+ 10 points</p>","null","html-keyboard-response","78","519653","0.0-11.0-2.77","57725d2dd8e8880001b2fb13","jtmce5","SJR","48","F","{""name"":""Chrome"",""chrome"":true,""version"":""105.0"",""blink"":true,""windows"":true,""osname"":""Windows"",""osversion"":""10"",""a"":true}","9:20:28","1","4","Test_2","70","f","1","914.6999999880791","1366 x 768","1366 x 768","true","1","10","","","","",""
"null","<p style=""font-size: 80px;"">+ 10 points</p>","null","html-keyboard-response","79","522268","0.0-11.0-2.78","57725d2dd8e8880001b2fb13","jtmce5","SJR","48","F","{""name"":""Chrome"",""chrome"":true,""version"":""105.0"",""blink"":true,""windows"":true,""osname"":""Windows"",""osversion"":""10"",""a"":true}","9:20:28","1","4","Test_3","74","j","1","600.1999999880791","1366 x 768","1366 x 768","true","1","10","","","","",""
"null","<p style=""font-size: 80px;"">+ 10 points</p>","null","html-keyboard-response","80","525407","0.0-11.0-2.79","57725d2dd8e8880001b2fb13","jtmce5","SJR","48","F","{""name"":""Chrome"",""chrome"":true,""version"":""105.0"",""blink"":true,""windows"":true,""osname"":""Windows"",""osversion"":""10"",""a"":true}","9:20:28","1","4","Test_4","70","f","1","1113.3999999761581","1366 x 768","1366 x 768","true","1","10","","","","",""
"null","<p style=""font-size: 80px;"">+ 10 points</p>","null","html-keyboard-response","81","528382","0.0-11.0-2.80","57725d2dd8e8880001b2fb13","jtmce5","SJR","48","F","{""name"":""Chrome"",""chrome"":true,""version"":""105.0"",""blink"":true,""windows"":true,""osname"":""Windows"",""osversion"":""10"",""a"":true}","9:20:28","1","4","Test_1","74","j","1","962.5999999940395","1366 x 768","1366 x 768","true","1","10","","","","",""
"null","<p style=""font-size: 80px;"">+ 10 points</p>","null","html-keyboard-response","82","531616","0.0-11.0-2.81","57725d2dd8e8880001b2fb13","jtmce5","SJR","48","F","{""name"":""Chrome"",""chrome"":true,""version"":""105.0"",""blink"":true,""windows"":true,""osname"":""Windows"",""osversion"":""10"",""a"":true}","9:20:28","1","4","Test_1","74","j","1","1209.800000011921","1366 x 768","1366 x 768","true","1","10","","","","",""
"null","<p style=""font-size: 80px;"">+ 0 points</p>","null","html-keyboard-response","83","534548","0.0-11.0-2.82","57725d2dd8e8880001b2fb13","jtmce5","SJR","48","F","{""name"":""Chrome"",""chrome"":true,""version"":""105.0"",""blink"":true,""windows"":true,""osname"":""Windows"",""osversion"":""10"",""a"":true}","9:20:28","1","3","Test_3","74","f","0","903.8000000119209","1366 x 768","1366 x 768","true","1","0","","","","",""
"null","<p style=""font-size: 80px;"">+ 10 points</p>","null","html-keyboard-response","84","537305","0.0-11.0-2.83","57725d2dd8e8880001b2fb13","jtmce5","SJR","48","F","{""name"":""Chrome"",""chrome"":true,""version"":""105.0"",""blink"":true,""windows"":true,""osname"":""Windows"",""osversion"":""10"",""a"":true}","9:20:28","1","3","Test_3","70","f","1","740.8000000119209","1366 x 768","1366 x 768","true","1","10","","","","",""
"null","<p style=""font-size: 80px;"">+ 10 points</p>","null","html-keyboard-response","85","540409","0.0-11.0-2.84","57725d2dd8e8880001b2fb13","jtmce5","SJR","48","F","{""name"":""Chrome"",""chrome"":true,""version"":""105.0"",""blink"":true,""windows"":true,""osname"":""Windows"",""osversion"":""10"",""a"":true}","9:20:28","1","3","Test_2","74","j","1","1086.199999988079","1366 x 768","1366 x 768","true","1","10","","","","",""
"null","<p style=""font-size: 80px;"">+ 10 points</p>","null","html-keyboard-response","86","543079","0.0-11.0-2.85","57725d2dd8e8880001b2fb13","jtmce5","SJR","48","F","{""name"":""Chrome"",""chrome"":true,""version"":""105.0"",""blink"":true,""windows"":true,""osname"":""Windows"",""osversion"":""10"",""a"":true}","9:20:28","1","3","Test_1","70","f","1","629.8000000119209","1366 x 768","1366 x 768","true","1","10","","","","",""
"null","<p style=""font-size: 80px;"">+ 10 points</p>","null","html-keyboard-response","87","545679","0.0-11.0-2.86","57725d2dd8e8880001b2fb13","jtmce5","SJR","48","F","{""name"":""Chrome"",""chrome"":true,""version"":""105.0"",""blink"":true,""windows"":true,""osname"":""Windows"",""osversion"":""10"",""a"":true}","9:20:28","1","3","Test_4","74","j","1","572.3000000119209","1366 x 768","1366 x 768","true","1","10","","","","",""
"null","<p style=""font-size: 80px;"">+ 10 points</p>","null","html-keyboard-response","88","548537","0.0-11.0-2.87","57725d2dd8e8880001b2fb13","jtmce5","SJR","48","F","{""name"":""Chrome"",""chrome"":true,""version"":""105.0"",""blink"":true,""windows"":true,""osname"":""Windows"",""osversion"":""10"",""a"":true}","9:20:28","1","3","Test_2","74","j","1","831.2000000178814","1366 x 768","1366 x 768","true","1","10","","","","",""
"null","<p style=""font-size: 80px;"">+ 10 points</p>","null","html-keyboard-response","89","551275","0.0-11.0-2.88","57725d2dd8e8880001b2fb13","jtmce5","SJR","48","F","{""name"":""Chrome"",""chrome"":true,""version"":""105.0"",""blink"":true,""windows"":true,""osname"":""Windows"",""osversion"":""10"",""a"":true}","9:20:28","1","3","Test_1","70","f","1","718.9000000059605","1366 x 768","1366 x 768","true","1","10","","","","",""
"null","<p style=""font-size: 80px;"">+ 10 points</p>","null","html-keyboard-response","90","554318","0.0-11.0-2.89","57725d2dd8e8880001b2fb13","jtmce5","SJR","48","F","{""name"":""Chrome"",""chrome"":true,""version"":""105.0"",""blink"":true,""windows"":true,""osname"":""Windows"",""osversion"":""10"",""a"":true}","9:20:28","1","3","Test_3","70","f","1","1002.6999999880791","1366 x 768","1366 x 768","true","1","10","","","","",""
"null","<p style=""font-size: 80px;"">+ 10 points</p>","null","html-keyboard-response","91","557452","0.0-11.0-2.90","57725d2dd8e8880001b2fb13","jtmce5","SJR","48","F","{""name"":""Chrome"",""chrome"":true,""version"":""105.0"",""blink"":true,""windows"":true,""osname"":""Windows"",""osversion"":""10"",""a"":true}","9:20:28","1","3","Test_3","70","f","1","1101.5999999940395","1366 x 768","1366 x 768","true","1","10","","","","",""
"null","<p style=""font-size: 80px;"">+ 10 points</p>","null","html-keyboard-response","92","560178","0.0-11.0-2.91","57725d2dd8e8880001b2fb13","jtmce5","SJR","48","F","{""name"":""Chrome"",""chrome"":true,""version"":""105.0"",""blink"":true,""windows"":true,""osname"":""Windows"",""osversion"":""10"",""a"":true}","9:20:28","1","3","Test_1","70","f","1","715.0999999940395","1366 x 768","1366 x 768","true","1","10","","","","",""
"null","<p style=""font-size: 80px;"">+ 10 points</p>","null","html-keyboard-response","93","562812","0.0-11.0-2.92","57725d2dd8e8880001b2fb13","jtmce5","SJR","48","F","{""name"":""Chrome"",""chrome"":true,""version"":""105.0"",""blink"":true,""windows"":true,""osname"":""Windows"",""osversion"":""10"",""a"":true}","9:20:28","1","3","Test_4","74","j","1","608.0999999940395","1366 x 768","1366 x 768","true","1","10","","","","",""
"null","<p style=""font-size: 80px;"">+ 10 points</p>","null","html-keyboard-response","94","565505","0.0-11.0-2.93","57725d2dd8e8880001b2fb13","jtmce5","SJR","48","F","{""name"":""Chrome"",""chrome"":true,""version"":""105.0"",""blink"":true,""windows"":true,""osname"":""Windows"",""osversion"":""10"",""a"":true}","9:20:28","1","3","Test_2","74","j","1","668.7999999821186","1366 x 768","1366 x 768","true","1","10","","","","",""
"null","<p style=""font-size: 80px;"">+ 10 points</p>","null","html-keyboard-response","95","568140","0.0-11.0-2.94","57725d2dd8e8880001b2fb13","jtmce5","SJR","48","F","{""name"":""Chrome"",""chrome"":true,""version"":""105.0"",""blink"":true,""windows"":true,""osname"":""Windows"",""osversion"":""10"",""a"":true}","9:20:28","1","3","Test_1","70","f","1","604.3999999761581","1366 x 768","1366 x 768","true","1","10","","","","",""
"null","<p style=""font-size: 80px;"">+ 10 points</p>","null","html-keyboard-response","96","570756","0.0-11.0-2.95","57725d2dd8e8880001b2fb13","jtmce5","SJR","48","F","{""name"":""Chrome"",""chrome"":true,""version"":""105.0"",""blink"":true,""windows"":true,""osname"":""Windows"",""osversion"":""10"",""a"":true}","9:20:28","1","3","Test_4","74","j","1","588.9000000059605","1366 x 768","1366 x 768","true","1","10","","","","",""
"null","<p style=""font-size: 80px;"">+ 10 points</p>","null","html-keyboard-response","97","573280","0.0-11.0-2.96","57725d2dd8e8880001b2fb13","jtmce5","SJR","48","F","{""name"":""Chrome"",""chrome"":true,""version"":""105.0"",""blink"":true,""windows"":true,""osname"":""Windows"",""osversion"":""10"",""a"":true}","9:20:28","1","3","Test_4","74","j","1","510.80000001192093","1366 x 768","1366 x 768","true","1","10","","","","",""
"null","<p style=""font-size: 80px;"">+ 10 points</p>","null","html-keyboard-response","98","576201","0.0-11.0-2.97","57725d2dd8e8880001b2fb13","jtmce5","SJR","48","F","{""name"":""Chrome"",""chrome"":true,""version"":""105.0"",""blink"":true,""windows"":true,""osname"":""Windows"",""osversion"":""10"",""a"":true}","9:20:28","1","3","Test_2","74","j","1","890.5","1366 x 768","1366 x 768","true","1","10","","","","",""
"null","<p style=""font-size: 80px;"">+ 10 points</p>","null","html-keyboard-response","99","578842","0.0-11.0-2.98","57725d2dd8e8880001b2fb13","jtmce5","SJR","48","F","{""name"":""Chrome"",""chrome"":true,""version"":""105.0"",""blink"":true,""windows"":true,""osname"":""Windows"",""osversion"":""10"",""a"":true}","9:20:28","1","3","Test_1","70","f","1","606.4000000059605","1366 x 768","1366 x 768","true","1","10","","","","",""
"null","<p style=""font-size: 80px;"">+ 10 points</p>","null","html-keyboard-response","100","581750","0.0-11.0-2.99","57725d2dd8e8880001b2fb13","jtmce5","SJR","48","F","{""name"":""Chrome"",""chrome"":true,""version"":""105.0"",""blink"":true,""windows"":true,""osname"":""Windows"",""osversion"":""10"",""a"":true}","9:20:28","1","3","Test_2","74","j","1","875.0999999940395","1366 x 768","1366 x 768","true","1","10","","","","",""
"null","<p style=""font-size: 80px;"">+ 10 points</p>","null","html-keyboard-response","101","584686","0.0-11.0-2.100","57725d2dd8e8880001b2fb13","jtmce5","SJR","48","F","{""name"":""Chrome"",""chrome"":true,""version"":""105.0"",""blink"":true,""windows"":true,""osname"":""Windows"",""osversion"":""10"",""a"":true}","9:20:28","1","3","Test_4","74","j","1","923","1366 x 768","1366 x 768","true","1","10","","","","",""
"null","<p style=""font-size: 80px;"">+ 10 points</p>","null","html-keyboard-response","102","587409","0.0-11.0-2.101","57725d2dd8e8880001b2fb13","jtmce5","SJR","48","F","{""name"":""Chrome"",""chrome"":true,""version"":""105.0"",""blink"":true,""windows"":true,""osname"":""Windows"",""osversion"":""10"",""a"":true}","9:20:28","1","3","Test_3","70","f","1","696.3000000119209","1366 x 768","1366 x 768","true","1","10","","","","",""
"null","<p style=""font-size: 80px;"">+ 0 points</p>","null","html-keyboard-response","103","590276","0.0-11.0-2.102","57725d2dd8e8880001b2fb13","jtmce5","SJR","48","F","{""name"":""Chrome"",""chrome"":true,""version"":""105.0"",""blink"":true,""windows"":true,""osname"":""Windows"",""osversion"":""10"",""a"":true}","9:20:28","1","4","Test_1","70","j","0","843.5999999940395","1366 x 768","1366 x 768","true","1","0","","","","",""
"null","<p style=""font-size: 80px;"">+ 10 points</p>","null","html-keyboard-response","104","593022","0.0-11.0-2.103","57725d2dd8e8880001b2fb13","jtmce5","SJR","48","F","{""name"":""Chrome"",""chrome"":true,""version"":""105.0"",""blink"":true,""windows"":true,""osname"":""Windows"",""osversion"":""10"",""a"":true}","9:20:28","1","4","Test_1","74","j","1","728.2000000178814","1366 x 768","1366 x 768","true","1","10","","","","",""
"null","<p style=""font-size: 80px;"">+ 10 points</p>","null","html-keyboard-response","105","595719","0.0-11.0-2.104","57725d2dd8e8880001b2fb13","jtmce5","SJR","48","F","{""name"":""Chrome"",""chrome"":true,""version"":""105.0"",""blink"":true,""windows"":true,""osname"":""Windows"",""osversion"":""10"",""a"":true}","9:20:28","1","4","Test_1","74","j","1","668.9000000059605","1366 x 768","1366 x 768","true","1","10","","","","",""
"null","<p style=""font-size: 80px;"">+ 10 points</p>","null","html-keyboard-response","106","598436","0.0-11.0-2.105","57725d2dd8e8880001b2fb13","jtmce5","SJR","48","F","{""name"":""Chrome"",""chrome"":true,""version"":""105.0"",""blink"":true,""windows"":true,""osname"":""Windows"",""osversion"":""10"",""a"":true}","9:20:28","1","4","Test_1","74","j","1","692.6000000238419","1366 x 768","1366 x 768","true","1","10","","","","",""
"null","<p style=""font-size: 80px;"">+ 10 points</p>","null","html-keyboard-response","107","600962","0.0-11.0-2.106","57725d2dd8e8880001b2fb13","jtmce5","SJR","48","F","{""name"":""Chrome"",""chrome"":true,""version"":""105.0"",""blink"":true,""windows"":true,""osname"":""Windows"",""osversion"":""10"",""a"":true}","9:20:28","1","4","Test_2","70","f","1","506.40000000596046","1366 x 768","1366 x 768","true","1","10","","","","",""
"null","<p style=""font-size: 80px;"">+ 10 points</p>","null","html-keyboard-response","108","603929","0.0-11.0-2.107","57725d2dd8e8880001b2fb13","jtmce5","SJR","48","F","{""name"":""Chrome"",""chrome"":true,""version"":""105.0"",""blink"":true,""windows"":true,""osname"":""Windows"",""osversion"":""10"",""a"":true}","9:20:28","1","4","Test_4","70","f","1","945","1366 x 768","1366 x 768","true","1","10","","","","",""
"null","<p style=""font-size: 80px;"">+ 10 points</p>","null","html-keyboard-response","109","606676","0.0-11.0-2.108","57725d2dd8e8880001b2fb13","jtmce5","SJR","48","F","{""name"":""Chrome"",""chrome"":true,""version"":""105.0"",""blink"":true,""windows"":true,""osname"":""Windows"",""osversion"":""10"",""a"":true}","9:20:28","1","4","Test_2","70","f","1","734.4000000059605","1366 x 768","1366 x 768","true","1","10","","","","",""
"null","<p style=""font-size: 80px;"">+ 0 points</p>","null","html-keyboard-response","110","658404","0.0-11.0-2.109","57725d2dd8e8880001b2fb13","jtmce5","SJR","48","F","{""name"":""Chrome"",""chrome"":true,""version"":""105.0"",""blink"":true,""windows"":true,""osname"":""Windows"",""osversion"":""10"",""a"":true}","9:20:28","1","4","Test_3","70","j","0","1219.5999999940395","1366 x 768","1366 x 768","true","1","0","","","","",""
"null","<p style=""font-size: 80px;"">+ 10 points</p>","null","html-keyboard-response","111","661392","0.0-11.0-2.110","57725d2dd8e8880001b2fb13","jtmce5","SJR","48","F","{""name"":""Chrome"",""chrome"":true,""version"":""105.0"",""blink"":true,""windows"":true,""osname"":""Windows"",""osversion"":""10"",""a"":true}","9:20:28","1","4","Test_2","70","f","1","969.1999999880791","1366 x 768","1366 x 768","true","1","10","","","","",""
"null","<p style=""font-size: 80px;"">+ 10 points</p>","null","html-keyboard-response","112","663895","0.0-11.0-2.111","57725d2dd8e8880001b2fb13","jtmce5","SJR","48","F","{""name"":""Chrome"",""chrome"":true,""version"":""105.0"",""blink"":true,""windows"":true,""osname"":""Windows"",""osversion"":""10"",""a"":true}","9:20:28","1","4","Test_3","74","j","1","474.30000001192093","1366 x 768","1366 x 768","true","1","10","","","","",""
"null","<p style=""font-size: 80px;"">+ 10 points</p>","null","html-keyboard-response","113","666472","0.0-11.0-2.112","57725d2dd8e8880001b2fb13","jtmce5","SJR","48","F","{""name"":""Chrome"",""chrome"":true,""version"":""105.0"",""blink"":true,""windows"":true,""osname"":""Windows"",""osversion"":""10"",""a"":true}","9:20:28","1","4","Test_3","74","j","1","554.8000000119209","1366 x 768","1366 x 768","true","1","10","","","","",""
"null","<p style=""font-size: 80px;"">+ 10 points</p>","null","html-keyboard-response","114","668989","0.0-11.0-2.113","57725d2dd8e8880001b2fb13","jtmce5","SJR","48","F","{""name"":""Chrome"",""chrome"":true,""version"":""105.0"",""blink"":true,""windows"":true,""osname"":""Windows"",""osversion"":""10"",""a"":true}","9:20:28","1","4","Test_3","74","j","1","479.19999998807907","1366 x 768","1366 x 768","true","1","10","","","","",""
"null","<p style=""font-size: 80px;"">+ 10 points</p>","null","html-keyboard-response","115","671720","0.0-11.0-2.114","57725d2dd8e8880001b2fb13","jtmce5","SJR","48","F","{""name"":""Chrome"",""chrome"":true,""version"":""105.0"",""blink"":true,""windows"":true,""osname"":""Windows"",""osversion"":""10"",""a"":true}","9:20:28","1","4","Test_4","70","f","1","708.5","1366 x 768","1366 x 768","true","1","10","","","","",""
"null","<p style=""font-size: 80px;"">+ 10 points</p>","null","html-keyboard-response","116","674775","0.0-11.0-2.115","57725d2dd8e8880001b2fb13","jtmce5","SJR","48","F","{""name"":""Chrome"",""chrome"":true,""version"":""105.0"",""blink"":true,""windows"":true,""osname"":""Windows"",""osversion"":""10"",""a"":true}","9:20:28","1","4","Test_1","74","j","1","1027.699999988079","1366 x 768","1366 x 768","true","1","10","","","","",""
"null","<p style=""font-size: 80px;"">+ 10 points</p>","null","html-keyboard-response","117","677605","0.0-11.0-2.116","57725d2dd8e8880001b2fb13","jtmce5","SJR","48","F","{""name"":""Chrome"",""chrome"":true,""version"":""105.0"",""blink"":true,""windows"":true,""osname"":""Windows"",""osversion"":""10"",""a"":true}","9:20:28","1","4","Test_4","70","f","1","803.3000000119209","1366 x 768","1366 x 768","true","1","10","","","","",""
"null","<p style=""font-size: 80px;"">+ 10 points</p>","null","html-keyboard-response","118","680619","0.0-11.0-2.117","57725d2dd8e8880001b2fb13","jtmce5","SJR","48","F","{""name"":""Chrome"",""chrome"":true,""version"":""105.0"",""blink"":true,""windows"":true,""osname"":""Windows"",""osversion"":""10"",""a"":true}","9:20:28","1","4","Test_4","70","f","1","979.5999999940395","1366 x 768","1366 x 768","true","1","10","","","","",""
"null","<p style=""font-size: 80px;"">+ 10 points</p>","null","html-keyboard-response","119","683576","0.0-11.0-2.118","57725d2dd8e8880001b2fb13","jtmce5","SJR","48","F","{""name"":""Chrome"",""chrome"":true,""version"":""105.0"",""blink"":true,""windows"":true,""osname"":""Windows"",""osversion"":""10"",""a"":true}","9:20:28","1","4","Test_3","74","j","1","924.2000000178814","1366 x 768","1366 x 768","true","1","10","","","","",""
"null","<p style=""font-size: 80px;"">+ 10 points</p>","null","html-keyboard-response","120","686534","0.0-11.0-2.119","57725d2dd8e8880001b2fb13","jtmce5","SJR","48","F","{""name"":""Chrome"",""chrome"":true,""version"":""105.0"",""blink"":true,""windows"":true,""osname"":""Windows"",""osversion"":""10"",""a"":true}","9:20:28","1","4","Test_4","70","f","1","929.9000000059605","1366 x 768","1366 x 768","true","1","10","","","","",""
"null","<p style=""font-size: 80px;"">+ 10 points</p>","null","html-keyboard-response","121","689303","0.0-11.0-2.120","57725d2dd8e8880001b2fb13","jtmce5","SJR","48","F","{""name"":""Chrome"",""chrome"":true,""version"":""105.0"",""blink"":true,""windows"":true,""osname"":""Windows"",""osversion"":""10"",""a"":true}","9:20:28","1","4","Test_2","70","f","1","737.1999999880791","1366 x 768","1366 x 768","true","1","10","","","","",""
"null","<p style=""font-size: 80px;"">+ 10 points</p>","null","html-keyboard-response","122","691932","0.0-11.0-2.121","57725d2dd8e8880001b2fb13","jtmce5","SJR","48","F","{""name"":""Chrome"",""chrome"":true,""version"":""105.0"",""blink"":true,""windows"":true,""osname"":""Windows"",""osversion"":""10"",""a"":true}","9:20:28","1","4","Test_2","70","f","1","609.0999999940395","1366 x 768","1366 x 768","true","1","10","","","","",""
"null","<p style=""font-size: 80px;"">+ 10 points</p>","null","html-keyboard-response","123","694997","0.0-11.0-2.122","57725d2dd8e8880001b2fb13","jtmce5","SJR","48","F","{""name"":""Chrome"",""chrome"":true,""version"":""105.0"",""blink"":true,""windows"":true,""osname"":""Windows"",""osversion"":""10"",""a"":true}","9:20:28","1","4","Test_4","70","f","1","1040.5999999940395","1366 x 768","1366 x 768","true","1","10","","","","",""
"null","<p style=""font-size: 80px;"">+ 10 points</p>","null","html-keyboard-response","124","697932","0.0-11.0-2.123","57725d2dd8e8880001b2fb13","jtmce5","SJR","48","F","{""name"":""Chrome"",""chrome"":true,""version"":""105.0"",""blink"":true,""windows"":true,""osname"":""Windows"",""osversion"":""10"",""a"":true}","9:20:28","1","4","Test_1","74","j","1","916.7999999821186","1366 x 768","1366 x 768","true","1","10","","","","",""
"null","<p style=""font-size: 80px;"">+ 0 points</p>","null","html-keyboard-response","125","700879","0.0-11.0-2.124","57725d2dd8e8880001b2fb13","jtmce5","SJR","48","F","{""name"":""Chrome"",""chrome"":true,""version"":""105.0"",""blink"":true,""windows"":true,""osname"":""Windows"",""osversion"":""10"",""a"":true}","9:20:28","1","3","Test_1","74","f","0","926.7000000178814","1366 x 768","1366 x 768","true","1","0","","","","",""
"null","<p style=""font-size: 80px;"">+ 10 points</p>","null","html-keyboard-response","126","703853","0.0-11.0-2.125","57725d2dd8e8880001b2fb13","jtmce5","SJR","48","F","{""name"":""Chrome"",""chrome"":true,""version"":""105.0"",""blink"":true,""windows"":true,""osname"":""Windows"",""osversion"":""10"",""a"":true}","9:20:28","1","3","Test_3","70","f","1","958.6999999880791","1366 x 768","1366 x 768","true","1","10","","","","",""
"null","<p style=""font-size: 80px;"">+ 10 points</p>","null","html-keyboard-response","127","706668","0.0-11.0-2.126","57725d2dd8e8880001b2fb13","jtmce5","SJR","48","F","{""name"":""Chrome"",""chrome"":true,""version"":""105.0"",""blink"":true,""windows"":true,""osname"":""Windows"",""osversion"":""10"",""a"":true}","9:20:28","1","3","Test_1","70","f","1","798.9000000059605","1366 x 768","1366 x 768","true","1","10","","","","",""
"null","<p style=""font-size: 80px;"">+ 10 points</p>","null","html-keyboard-response","128","709207","0.0-11.0-2.127","57725d2dd8e8880001b2fb13","jtmce5","SJR","48","F","{""name"":""Chrome"",""chrome"":true,""version"":""105.0"",""blink"":true,""windows"":true,""osname"":""Windows"",""osversion"":""10"",""a"":true}","9:20:28","1","3","Test_1","70","f","1","514.3000000119209","1366 x 768","1366 x 768","true","1","10","","","","",""
"null","<p style=""font-size: 80px;"">+ 10 points</p>","null","html-keyboard-response","129","712014","0.0-11.0-2.128","57725d2dd8e8880001b2fb13","jtmce5","SJR","48","F","{""name"":""Chrome"",""chrome"":true,""version"":""105.0"",""blink"":true,""windows"":true,""osname"":""Windows"",""osversion"":""10"",""a"":true}","9:20:28","1","3","Test_2","74","j","1","768.5999999940395","1366 x 768","1366 x 768","true","1","10","","","","",""
"null","<p style=""font-size: 80px;"">+ 10 points</p>","null","html-keyboard-response","130","715396","0.0-11.0-2.129","57725d2dd8e8880001b2fb13","jtmce5","SJR","48","F","{""name"":""Chrome"",""chrome"":true,""version"":""105.0"",""blink"":true,""windows"":true,""osname"":""Windows"",""osversion"":""10"",""a"":true}","9:20:28","1","3","Test_3","70","f","1","1352.699999988079","1366 x 768","1366 x 768","true","1","10","","","","",""
"null","<p style=""font-size: 80px;"">+ 10 points</p>","null","html-keyboard-response","131","718071","0.0-11.0-2.130","57725d2dd8e8880001b2fb13","jtmce5","SJR","48","F","{""name"":""Chrome"",""chrome"":true,""version"":""105.0"",""blink"":true,""windows"":true,""osname"":""Windows"",""osversion"":""10"",""a"":true}","9:20:28","1","3","Test_4","74","j","1","654","1366 x 768","1366 x 768","true","1","10","","","","",""
"null","<p style=""font-size: 80px;"">+ 10 points</p>","null","html-keyboard-response","132","720800","0.0-11.0-2.131","57725d2dd8e8880001b2fb13","jtmce5","SJR","48","F","{""name"":""Chrome"",""chrome"":true,""version"":""105.0"",""blink"":true,""windows"":true,""osname"":""Windows"",""osversion"":""10"",""a"":true}","9:20:28","1","3","Test_3","70","f","1","699.3000000119209","1366 x 768","1366 x 768","true","1","10","","","","",""
"null","<p style=""font-size: 80px;"">+ 10 points</p>","null","html-keyboard-response","133","723412","0.0-11.0-2.132","57725d2dd8e8880001b2fb13","jtmce5","SJR","48","F","{""name"":""Chrome"",""chrome"":true,""version"":""105.0"",""blink"":true,""windows"":true,""osname"":""Windows"",""osversion"":""10"",""a"":true}","9:20:28","1","3","Test_1","70","f","1","587.6999999880791","1366 x 768","1366 x 768","true","1","10","","","","",""
"null","<p style=""font-size: 80px;"">+ 10 points</p>","null","html-keyboard-response","134","726328","0.0-11.0-2.133","57725d2dd8e8880001b2fb13","jtmce5","SJR","48","F","{""name"":""Chrome"",""chrome"":true,""version"":""105.0"",""blink"":true,""windows"":true,""osname"":""Windows"",""osversion"":""10"",""a"":true}","9:20:28","1","3","Test_2","74","j","1","887","1366 x 768","1366 x 768","true","1","10","","","","",""
"null","<p style=""font-size: 80px;"">+ 10 points</p>","null","html-keyboard-response","135","729115","0.0-11.0-2.134","57725d2dd8e8880001b2fb13","jtmce5","SJR","48","F","{""name"":""Chrome"",""chrome"":true,""version"":""105.0"",""blink"":true,""windows"":true,""osname"":""Windows"",""osversion"":""10"",""a"":true}","9:20:28","1","3","Test_4","74","j","1","766.5999999940395","1366 x 768","1366 x 768","true","1","10","","","","",""
"null","<p style=""font-size: 80px;"">+ 10 points</p>","null","html-keyboard-response","136","732012","0.0-11.0-2.135","57725d2dd8e8880001b2fb13","jtmce5","SJR","48","F","{""name"":""Chrome"",""chrome"":true,""version"":""105.0"",""blink"":true,""windows"":true,""osname"":""Windows"",""osversion"":""10"",""a"":true}","9:20:28","1","3","Test_2","74","j","1","870","1366 x 768","1366 x 768","true","1","10","","","","",""
"null","<p style=""font-size: 80px;"">+ 10 points</p>","null","html-keyboard-response","137","734992","0.0-11.0-2.136","57725d2dd8e8880001b2fb13","jtmce5","SJR","48","F","{""name"":""Chrome"",""chrome"":true,""version"":""105.0"",""blink"":true,""windows"":true,""osname"":""Windows"",""osversion"":""10"",""a"":true}","9:20:28","1","3","Test_3","70","f","1","967.1999999880791","1366 x 768","1366 x 768","true","1","10","","","","",""
"null","<p style=""font-size: 80px;"">+ 10 points</p>","null","html-keyboard-response","138","738109","0.0-11.0-2.137","57725d2dd8e8880001b2fb13","jtmce5","SJR","48","F","{""name"":""Chrome"",""chrome"":true,""version"":""105.0"",""blink"":true,""windows"":true,""osname"":""Windows"",""osversion"":""10"",""a"":true}","9:20:28","1","3","Test_4","74","j","1","1082.5","1366 x 768","1366 x 768","true","1","10","","","","",""
"null","<p style=""font-size: 80px;"">+ 10 points</p>","null","html-keyboard-response","139","740897","0.0-11.0-2.138","57725d2dd8e8880001b2fb13","jtmce5","SJR","48","F","{""name"":""Chrome"",""chrome"":true,""version"":""105.0"",""blink"":true,""windows"":true,""osname"":""Windows"",""osversion"":""10"",""a"":true}","9:20:28","1","3","Test_1","70","f","1","750.2000000178814","1366 x 768","1366 x 768","true","1","10","","","","",""
"null","<p style=""font-size: 80px;"">+ 10 points</p>","null","html-keyboard-response","140","743436","0.0-11.0-2.139","57725d2dd8e8880001b2fb13","jtmce5","SJR","48","F","{""name"":""Chrome"",""chrome"":true,""version"":""105.0"",""blink"":true,""windows"":true,""osname"":""Windows"",""osversion"":""10"",""a"":true}","9:20:28","1","3","Test_4","74","j","1","510","1366 x 768","1366 x 768","true","1","10","","","","",""
"null","<p style=""font-size: 80px;"">+ 10 points</p>","null","html-keyboard-response","141","745944","0.0-11.0-2.140","57725d2dd8e8880001b2fb13","jtmce5","SJR","48","F","{""name"":""Chrome"",""chrome"":true,""version"":""105.0"",""blink"":true,""windows"":true,""osname"":""Windows"",""osversion"":""10"",""a"":true}","9:20:28","1","3","Test_4","74","j","1","485.59999999403954","1366 x 768","1366 x 768","true","1","10","","","","",""
"null","<p style=""font-size: 80px;"">+ 10 points</p>","null","html-keyboard-response","142","748665","0.0-11.0-2.141","57725d2dd8e8880001b2fb13","jtmce5","SJR","48","F","{""name"":""Chrome"",""chrome"":true,""version"":""105.0"",""blink"":true,""windows"":true,""osname"":""Windows"",""osversion"":""10"",""a"":true}","9:20:28","1","3","Test_3","70","f","1","689.7000000178814","1366 x 768","1366 x 768","true","1","10","","","","",""
"null","<p style=""font-size: 80px;"">+ 0 points</p>","null","html-keyboard-response","143","751350","0.0-11.0-2.142","57725d2dd8e8880001b2fb13","jtmce5","SJR","48","F","{""name"":""Chrome"",""chrome"":true,""version"":""105.0"",""blink"":true,""windows"":true,""osname"":""Windows"",""osversion"":""10"",""a"":true}","9:20:28","1","4","Test_1","70","j","0","671","1366 x 768","1366 x 768","true","1","0","","","","",""
"null","<p style=""font-size: 80px;"">+ 10 points</p>","null","html-keyboard-response","144","754352","0.0-11.0-2.143","57725d2dd8e8880001b2fb13","jtmce5","SJR","48","F","{""name"":""Chrome"",""chrome"":true,""version"":""105.0"",""blink"":true,""windows"":true,""osname"":""Windows"",""osversion"":""10"",""a"":true}","9:20:28","1","4","Test_4","70","f","1","979.1999999880791","1366 x 768","1366 x 768","true","1","10","","","","",""
"null","<p style=""font-size: 80px;"">+ 10 points</p>","null","html-keyboard-response","145","756834","0.0-11.0-2.144","57725d2dd8e8880001b2fb13","jtmce5","SJR","48","F","{""name"":""Chrome"",""chrome"":true,""version"":""105.0"",""blink"":true,""windows"":true,""osname"":""Windows"",""osversion"":""10"",""a"":true}","9:20:28","1","4","Test_3","74","j","1","459.09999999403954","1366 x 768","1366 x 768","true","1","10","","","","",""
"null","<p style=""font-size: 80px;"">+ 0 points</p>","null","html-keyboard-response","146","759358","0.0-11.0-2.145","57725d2dd8e8880001b2fb13","jtmce5","SJR","48","F","{""name"":""Chrome"",""chrome"":true,""version"":""105.0"",""blink"":true,""windows"":true,""osname"":""Windows"",""osversion"":""10"",""a"":true}","9:20:28","1","4","Test_4","74","f","0","509.5","1366 x 768","1366 x 768","true","1","0","","","","",""
"null","<p style=""font-size: 80px;"">+ 10 points</p>","null","html-keyboard-response","147","763132","0.0-11.0-2.146","57725d2dd8e8880001b2fb13","jtmce5","SJR","48","F","{""name"":""Chrome"",""chrome"":true,""version"":""105.0"",""blink"":true,""windows"":true,""osname"":""Windows"",""osversion"":""10"",""a"":true}","9:20:28","1","4","Test_1","74","j","1","1740.199999988079","1366 x 768","1366 x 768","true","1","10","","","","",""
"null","<p style=""font-size: 80px;"">+ 10 points</p>","null","html-keyboard-response","148","765728","0.0-11.0-2.147","57725d2dd8e8880001b2fb13","jtmce5","SJR","48","F","{""name"":""Chrome"",""chrome"":true,""version"":""105.0"",""blink"":true,""windows"":true,""osname"":""Windows"",""osversion"":""10"",""a"":true}","9:20:28","1","4","Test_2","70","f","1","576.8000000119209","1366 x 768","1366 x 768","true","1","10","","","","",""
"null","<p style=""font-size: 80px;"">+ 10 points</p>","null","html-keyboard-response","149","768223","0.0-11.0-2.148","57725d2dd8e8880001b2fb13","jtmce5","SJR","48","F","{""name"":""Chrome"",""chrome"":true,""version"":""105.0"",""blink"":true,""windows"":true,""osname"":""Windows"",""osversion"":""10"",""a"":true}","9:20:28","1","4","Test_2","70","f","1","467.59999999403954","1366 x 768","1366 x 768","true","1","10","","","","",""
"null","<p style=""font-size: 80px;"">+ 10 points</p>","null","html-keyboard-response","150","771085","0.0-11.0-2.149","57725d2dd8e8880001b2fb13","jtmce5","SJR","48","F","{""name"":""Chrome"",""chrome"":true,""version"":""105.0"",""blink"":true,""windows"":true,""osname"":""Windows"",""osversion"":""10"",""a"":true}","9:20:28","1","4","Test_3","74","j","1","826","1366 x 768","1366 x 768","true","1","10","","","","",""
"null","<p style=""font-size: 80px;"">+ 10 points</p>","null","html-keyboard-response","151","774223","0.0-11.0-2.150","57725d2dd8e8880001b2fb13","jtmce5","SJR","48","F","{""name"":""Chrome"",""chrome"":true,""version"":""105.0"",""blink"":true,""windows"":true,""osname"":""Windows"",""osversion"":""10"",""a"":true}","9:20:28","1","4","Test_4","70","f","1","1118.5","1366 x 768","1366 x 768","true","1","10","","","","",""
"null","<p style=""font-size: 80px;"">+ 10 points</p>","null","html-keyboard-response","152","776899","0.0-11.0-2.151","57725d2dd8e8880001b2fb13","jtmce5","SJR","48","F","{""name"":""Chrome"",""chrome"":true,""version"":""105.0"",""blink"":true,""windows"":true,""osname"":""Windows"",""osversion"":""10"",""a"":true}","9:20:28","1","4","Test_2","70","f","1","664.2999999821186","1366 x 768","1366 x 768","true","1","10","","","","",""
"null","<p style=""font-size: 80px;"">+ 10 points</p>","null","html-keyboard-response","153","779437","0.0-11.0-2.152","57725d2dd8e8880001b2fb13","jtmce5","SJR","48","F","{""name"":""Chrome"",""chrome"":true,""version"":""105.0"",""blink"":true,""windows"":true,""osname"":""Windows"",""osversion"":""10"",""a"":true}","9:20:28","1","4","Test_3","74","j","1","508.2000000178814","1366 x 768","1366 x 768","true","1","10","","","","",""
"null","<p style=""font-size: 80px;"">+ 10 points</p>","null","html-keyboard-response","154","782550","0.0-11.0-2.153","57725d2dd8e8880001b2fb13","jtmce5","SJR","48","F","{""name"":""Chrome"",""chrome"":true,""version"":""105.0"",""blink"":true,""windows"":true,""osname"":""Windows"",""osversion"":""10"",""a"":true}","9:20:28","1","4","Test_3","74","j","1","1074.5","1366 x 768","1366 x 768","true","1","10","","","","",""
"null","<p style=""font-size: 80px;"">+ 10 points</p>","null","html-keyboard-response","155","785127","0.0-11.0-2.154","57725d2dd8e8880001b2fb13","jtmce5","SJR","48","F","{""name"":""Chrome"",""chrome"":true,""version"":""105.0"",""blink"":true,""windows"":true,""osname"":""Windows"",""osversion"":""10"",""a"":true}","9:20:28","1","4","Test_3","74","j","1","557.5","1366 x 768","1366 x 768","true","1","10","","","","",""
"null","<p style=""font-size: 80px;"">+ 10 points</p>","null","html-keyboard-response","156","787861","0.0-11.0-2.155","57725d2dd8e8880001b2fb13","jtmce5","SJR","48","F","{""name"":""Chrome"",""chrome"":true,""version"":""105.0"",""blink"":true,""windows"":true,""osname"":""Windows"",""osversion"":""10"",""a"":true}","9:20:28","1","4","Test_2","70","f","1","717.9000000059605","1366 x 768","1366 x 768","true","1","10","","","","",""
"null","<p style=""font-size: 80px;"">+ 10 points</p>","null","html-keyboard-response","157","790525","0.0-11.0-2.156","57725d2dd8e8880001b2fb13","jtmce5","SJR","48","F","{""name"":""Chrome"",""chrome"":true,""version"":""105.0"",""blink"":true,""windows"":true,""osname"":""Windows"",""osversion"":""10"",""a"":true}","9:20:28","1","4","Test_2","70","f","1","631.2999999821186","1366 x 768","1366 x 768","true","1","10","","","","",""
"null","<p style=""font-size: 80px;"">+ 10 points</p>","null","html-keyboard-response","158","793223","0.0-11.0-2.157","57725d2dd8e8880001b2fb13","jtmce5","SJR","48","F","{""name"":""Chrome"",""chrome"":true,""version"":""105.0"",""blink"":true,""windows"":true,""osname"":""Windows"",""osversion"":""10"",""a"":true}","9:20:28","1","4","Test_1","74","j","1","684","1366 x 768","1366 x 768","true","1","10","","","","",""
"null","<p style=""font-size: 80px;"">+ 10 points</p>","null","html-keyboard-response","159","795947","0.0-11.0-2.158","57725d2dd8e8880001b2fb13","jtmce5","SJR","48","F","{""name"":""Chrome"",""chrome"":true,""version"":""105.0"",""blink"":true,""windows"":true,""osname"":""Windows"",""osversion"":""10"",""a"":true}","9:20:28","1","4","Test_1","74","j","1","708.4000000059605","1366 x 768","1366 x 768","true","1","10","","","","",""
"null","<p style=""font-size: 80px;"">+ 10 points</p>","null","html-keyboard-response","160","799316","0.0-11.0-2.159","57725d2dd8e8880001b2fb13","jtmce5","SJR","48","F","{""name"":""Chrome"",""chrome"":true,""version"":""105.0"",""blink"":true,""windows"":true,""osname"":""Windows"",""osversion"":""10"",""a"":true}","9:20:28","1","4","Test_1","74","j","1","1334","1366 x 768","1366 x 768","true","1","10","","","","",""
"null","<p style=""font-size: 80px;"">+ 10 points</p>","null","html-keyboard-response","161","801883","0.0-11.0-2.160","57725d2dd8e8880001b2fb13","jtmce5","SJR","48","F","{""name"":""Chrome"",""chrome"":true,""version"":""105.0"",""blink"":true,""windows"":true,""osname"":""Windows"",""osversion"":""10"",""a"":true}","9:20:28","1","4","Test_2","70","f","1","538.3000000119209","1366 x 768","1366 x 768","true","1","10","","","","",""
"null","<p style=""font-size: 80px;"">+ 10 points</p>","null","html-keyboard-response","162","804470","0.0-11.0-2.161","57725d2dd8e8880001b2fb13","jtmce5","SJR","48","F","{""name"":""Chrome"",""chrome"":true,""version"":""105.0"",""blink"":true,""windows"":true,""osname"":""Windows"",""osversion"":""10"",""a"":true}","9:20:28","1","4","Test_3","74","j","1","563.2999999821186","1366 x 768","1366 x 768","true","1","10","","","","",""
"null","<p style=""font-size: 80px;"">+ 10 points</p>","null","html-keyboard-response","163","807263","0.0-11.0-2.162","57725d2dd8e8880001b2fb13","jtmce5","SJR","48","F","{""name"":""Chrome"",""chrome"":true,""version"":""105.0"",""blink"":true,""windows"":true,""osname"":""Windows"",""osversion"":""10"",""a"":true}","9:20:28","1","4","Test_1","74","j","1","768.5","1366 x 768","1366 x 768","true","1","10","","","","",""
"null","<p style=""font-size: 80px;"">+ 10 points</p>","null","html-keyboard-response","164","810066","0.0-11.0-2.163","57725d2dd8e8880001b2fb13","jtmce5","SJR","48","F","{""name"":""Chrome"",""chrome"":true,""version"":""105.0"",""blink"":true,""windows"":true,""osname"":""Windows"",""osversion"":""10"",""a"":true}","9:20:28","1","4","Test_4","70","f","1","778.3999999761581","1366 x 768","1366 x 768","true","1","10","","","","",""
"null","<p style=""font-size: 80px;"">+ 10 points</p>","null","html-keyboard-response","165","812834","0.0-11.0-2.164","57725d2dd8e8880001b2fb13","jtmce5","SJR","48","F","{""name"":""Chrome"",""chrome"":true,""version"":""105.0"",""blink"":true,""windows"":true,""osname"":""Windows"",""osversion"":""10"",""a"":true}","9:20:28","1","4","Test_4","70","f","1","736.5","1366 x 768","1366 x 768","true","1","10","","","","",""
"null","<p style=""font-size: 80px;"">+ 0 points</p>","null","html-keyboard-response","166","815498","0.0-11.0-2.165","57725d2dd8e8880001b2fb13","jtmce5","SJR","48","F","{""name"":""Chrome"",""chrome"":true,""version"":""105.0"",""blink"":true,""windows"":true,""osname"":""Windows"",""osversion"":""10"",""a"":true}","9:20:28","1","3","Test_3","74","f","0","626.0999999940395","1366 x 768","1366 x 768","true","1","0","","","","",""
"null","<p style=""font-size: 80px;"">+ 10 points</p>","null","html-keyboard-response","167","818091","0.0-11.0-2.166","57725d2dd8e8880001b2fb13","jtmce5","SJR","48","F","{""name"":""Chrome"",""chrome"":true,""version"":""105.0"",""blink"":true,""windows"":true,""osname"":""Windows"",""osversion"":""10"",""a"":true}","9:20:28","1","3","Test_1","70","f","1","573.7000000178814","1366 x 768","1366 x 768","true","1","10","","","","",""
"null","<p style=""font-size: 80px;"">+ 10 points</p>","null","html-keyboard-response","168","821102","0.0-11.0-2.167","57725d2dd8e8880001b2fb13","jtmce5","SJR","48","F","{""name"":""Chrome"",""chrome"":true,""version"":""105.0"",""blink"":true,""windows"":true,""osname"":""Windows"",""osversion"":""10"",""a"":true}","9:20:28","1","3","Test_3","70","f","1","991.4000000059605","1366 x 768","1366 x 768","true","1","10","","","","",""
"null","<p style=""font-size: 80px;"">+ 10 points</p>","null","html-keyboard-response","169","823858","0.0-11.0-2.168","57725d2dd8e8880001b2fb13","jtmce5","SJR","48","F","{""name"":""Chrome"",""chrome"":true,""version"":""105.0"",""blink"":true,""windows"":true,""osname"":""Windows"",""osversion"":""10"",""a"":true}","9:20:28","1","3","Test_3","70","f","1","745.1999999880791","1366 x 768","1366 x 768","true","1","10","","","","",""
"null","<p style=""font-size: 80px;"">+ 10 points</p>","null","html-keyboard-response","170","826856","0.0-11.0-2.169","57725d2dd8e8880001b2fb13","jtmce5","SJR","48","F","{""name"":""Chrome"",""chrome"":true,""version"":""105.0"",""blink"":true,""windows"":true,""osname"":""Windows"",""osversion"":""10"",""a"":true}","9:20:28","1","3","Test_2","74","j","1","975.2000000178814","1366 x 768","1366 x 768","true","1","10","","","","",""
"null","<p style=""font-size: 80px;"">+ 10 points</p>","null","html-keyboard-response","171","829451","0.0-11.0-2.170","57725d2dd8e8880001b2fb13","jtmce5","SJR","48","F","{""name"":""Chrome"",""chrome"":true,""version"":""105.0"",""blink"":true,""windows"":true,""osname"":""Windows"",""osversion"":""10"",""a"":true}","9:20:28","1","3","Test_1","70","f","1","564.5999999940395","1366 x 768","1366 x 768","true","1","10","","","","",""
"null","<p style=""font-size: 80px;"">+ 10 points</p>","null","html-keyboard-response","172","832284","0.0-11.0-2.171","57725d2dd8e8880001b2fb13","jtmce5","SJR","48","F","{""name"":""Chrome"",""chrome"":true,""version"":""105.0"",""blink"":true,""windows"":true,""osname"":""Windows"",""osversion"":""10"",""a"":true}","9:20:28","1","3","Test_3","70","f","1","805.6999999880791","1366 x 768","1366 x 768","true","1","10","","","","",""
"null","<p style=""font-size: 80px;"">+ 10 points</p>","null","html-keyboard-response","173","834947","0.0-11.0-2.172","57725d2dd8e8880001b2fb13","jtmce5","SJR","48","F","{""name"":""Chrome"",""chrome"":true,""version"":""105.0"",""blink"":true,""windows"":true,""osname"":""Windows"",""osversion"":""10"",""a"":true}","9:20:28","1","3","Test_1","70","f","1","632","1366 x 768","1366 x 768","true","1","10","","","","",""
"null","<p style=""font-size: 80px;"">+ 10 points</p>","null","html-keyboard-response","174","837453","0.0-11.0-2.173","57725d2dd8e8880001b2fb13","jtmce5","SJR","48","F","{""name"":""Chrome"",""chrome"":true,""version"":""105.0"",""blink"":true,""windows"":true,""osname"":""Windows"",""osversion"":""10"",""a"":true}","9:20:28","1","3","Test_1","70","f","1","481","1366 x 768","1366 x 768","true","1","10","","","","",""
"null","<p style=""font-size: 80px;"">+ 10 points</p>","null","html-keyboard-response","175","840100","0.0-11.0-2.174","57725d2dd8e8880001b2fb13","jtmce5","SJR","48","F","{""name"":""Chrome"",""chrome"":true,""version"":""105.0"",""blink"":true,""windows"":true,""osname"":""Windows"",""osversion"":""10"",""a"":true}","9:20:28","1","3","Test_2","74","j","1","620.3000000119209","1366 x 768","1366 x 768","true","1","10","","","","",""
"null","<p style=""font-size: 80px;"">+ 10 points</p>","null","html-keyboard-response","176","842832","0.0-11.0-2.175","57725d2dd8e8880001b2fb13","jtmce5","SJR","48","F","{""name"":""Chrome"",""chrome"":true,""version"":""105.0"",""blink"":true,""windows"":true,""osname"":""Windows"",""osversion"":""10"",""a"":true}","9:20:28","1","3","Test_4","74","j","1","708.7999999821186","1366 x 768","1366 x 768","true","1","10","","","","",""
"null","<p style=""font-size: 80px;"">+ 10 points</p>","null","html-keyboard-response","177","845536","0.0-11.0-2.176","57725d2dd8e8880001b2fb13","jtmce5","SJR","48","F","{""name"":""Chrome"",""chrome"":true,""version"":""105.0"",""blink"":true,""windows"":true,""osname"":""Windows"",""osversion"":""10"",""a"":true}","9:20:28","1","3","Test_2","74","j","1","678.2000000178814","1366 x 768","1366 x 768","true","1","10","","","","",""
"null","<p style=""font-size: 80px;"">+ 10 points</p>","null","html-keyboard-response","178","848094","0.0-11.0-2.177","57725d2dd8e8880001b2fb13","jtmce5","SJR","48","F","{""name"":""Chrome"",""chrome"":true,""version"":""105.0"",""blink"":true,""windows"":true,""osname"":""Windows"",""osversion"":""10"",""a"":true}","9:20:28","1","3","Test_4","74","j","1","539","1366 x 768","1366 x 768","true","1","10","","","","",""
"null","<p style=""font-size: 80px;"">+ 10 points</p>","null","html-keyboard-response","179","850863","0.0-11.0-2.178","57725d2dd8e8880001b2fb13","jtmce5","SJR","48","F","{""name"":""Chrome"",""chrome"":true,""version"":""105.0"",""blink"":true,""windows"":true,""osname"":""Windows"",""osversion"":""10"",""a"":true}","9:20:28","1","3","Test_2","74","j","1","751.5999999940395","1366 x 768","1366 x 768","true","1","10","","","","",""
"null","<p style=""font-size: 80px;"">+ 10 points</p>","null","html-keyboard-response","180","853615","0.0-11.0-2.179","57725d2dd8e8880001b2fb13","jtmce5","SJR","48","F","{""name"":""Chrome"",""chrome"":true,""version"":""105.0"",""blink"":true,""windows"":true,""osname"":""Windows"",""osversion"":""10"",""a"":true}","9:20:28","1","3","Test_2","74","j","1","726.5","1366 x 768","1366 x 768","true","1","10","","","","",""
"null","<p style=""font-size: 80px;"">+ 10 points</p>","null","html-keyboard-response","181","856571","0.0-11.0-2.180","57725d2dd8e8880001b2fb13","jtmce5","SJR","48","F","{""name"":""Chrome"",""chrome"":true,""version"":""105.0"",""blink"":true,""windows"":true,""osname"":""Windows"",""osversion"":""10"",""a"":true}","9:20:28","1","3","Test_4","74","j","1","936","1366 x 768","1366 x 768","true","1","10","","","","",""
"null","<p style=""font-size: 80px;"">+ 10 points</p>","null","html-keyboard-response","182","859268","0.0-11.0-2.181","57725d2dd8e8880001b2fb13","jtmce5","SJR","48","F","{""name"":""Chrome"",""chrome"":true,""version"":""105.0"",""blink"":true,""windows"":true,""osname"":""Windows"",""osversion"":""10"",""a"":true}","9:20:28","1","3","Test_1","70","f","1","676.9000000059605","1366 x 768","1366 x 768","true","1","10","","","","",""
"null","<p style=""font-size: 80px;"">+ 0 points</p>","null","html-keyboard-response","183","861911","0.0-11.0-2.182","57725d2dd8e8880001b2fb13","jtmce5","SJR","48","F","{""name"":""Chrome"",""chrome"":true,""version"":""105.0"",""blink"":true,""windows"":true,""osname"":""Windows"",""osversion"":""10"",""a"":true}","9:20:28","1","4","Test_1","70","j","0","618.9000000059605","1366 x 768","1366 x 768","true","1","0","","","","",""
"null","<p style=""font-size: 80px;"">+ 10 points</p>","null","html-keyboard-response","184","864762","0.0-11.0-2.183","57725d2dd8e8880001b2fb13","jtmce5","SJR","48","F","{""name"":""Chrome"",""chrome"":true,""version"":""105.0"",""blink"":true,""windows"":true,""osname"":""Windows"",""osversion"":""10"",""a"":true}","9:20:28","1","4","Test_1","74","j","1","784.8999999761581","1366 x 768","1366 x 768","true","1","10","","","","",""
"null","<p style=""font-size: 80px;"">+ 10 points</p>","null","html-keyboard-response","185","867262","0.0-11.0-2.184","57725d2dd8e8880001b2fb13","jtmce5","SJR","48","F","{""name"":""Chrome"",""chrome"":true,""version"":""105.0"",""blink"":true,""windows"":true,""osname"":""Windows"",""osversion"":""10"",""a"":true}","9:20:28","1","4","Test_3","74","j","1","483.90000000596046","1366 x 768","1366 x 768","true","1","10","","","","",""
"null","<p style=""font-size: 80px;"">+ 0 points</p>","null","html-keyboard-response","186","869994","0.0-11.0-2.185","57725d2dd8e8880001b2fb13","jtmce5","SJR","48","F","{""name"":""Chrome"",""chrome"":true,""version"":""105.0"",""blink"":true,""windows"":true,""osname"":""Windows"",""osversion"":""10"",""a"":true}","9:20:28","1","4","Test_4","74","f","0","712.6999999880791","1366 x 768","1366 x 768","true","1","0","","","","",""
"null","<p style=""font-size: 80px;"">+ 10 points</p>","null","html-keyboard-response","187","872618","0.0-11.0-2.186","57725d2dd8e8880001b2fb13","jtmce5","SJR","48","F","{""name"":""Chrome"",""chrome"":true,""version"":""105.0"",""blink"":true,""windows"":true,""osname"":""Windows"",""osversion"":""10"",""a"":true}","9:20:28","1","4","Test_3","74","j","1","595","1366 x 768","1366 x 768","true","1","10","","","","",""
"null","<p style=""font-size: 80px;"">+ 10 points</p>","null","html-keyboard-response","188","875548","0.0-11.0-2.187","57725d2dd8e8880001b2fb13","jtmce5","SJR","48","F","{""name"":""Chrome"",""chrome"":true,""version"":""105.0"",""blink"":true,""windows"":true,""osname"":""Windows"",""osversion"":""10"",""a"":true}","9:20:28","1","4","Test_1","74","j","1","912.5999999940395","1366 x 768","1366 x 768","true","1","10","","","","",""
