"rt","stimulus","key_press","trial_type","trial_index","time_elapsed","internal_node_id","Prolific_ID","random_ID","initials","age","gender","pc_info","start_time","Phase","Rule","Stimulus","Response","CorrResp","Accuracy","ResponseTime","screen_resolution","window_resolution","focus","relevant","Points","responses","question_order","rev_check","butterfly_check","passed_practice"
"null","<p style=""font-size: 80px;"">+ 10 points</p>","null","html-keyboard-response","1","129888","0.0-7.0-2.0","5c90d58b1bfaba0016dc35f0","qkp60h","JW","62","M","{""name"":""Chrome"",""chrome"":true,""version"":""106.0"",""blink"":true,""windows"":true,""osname"":""Windows"",""osversion"":""7"",""a"":true}","9:39:16","0","1","Practice_3","70","f","1","1867","1920 x 1080","1920 x 1080","true","1","10","","","","",""
"null","<p style=""font-size: 80px;"">+ 0 points</p>","null","html-keyboard-response","2","133023","0.0-7.0-2.1","5c90d58b1bfaba0016dc35f0","qkp60h","JW","62","M","{""name"":""Chrome"",""chrome"":true,""version"":""106.0"",""blink"":true,""windows"":true,""osname"":""Windows"",""osversion"":""7"",""a"":true}","9:39:16","0","1","Practice_1","74","f","0","1129.9000000059605","1920 x 1080","1920 x 1080","true","1","0","","","","",""
"null","<p style=""font-size: 80px;"">+ 10 points</p>","null","html-keyboard-response","3","136198","0.0-7.0-2.2","5c90d58b1bfaba0016dc35f0","qkp60h","JW","62","M","{""name"":""Chrome"",""chrome"":true,""version"":""106.0"",""blink"":true,""windows"":true,""osname"":""Windows"",""osversion"":""7"",""a"":true}","9:39:16","0","1","Practice_1","70","f","1","1171.7999999821186","1920 x 1080","1920 x 1080","true","1","10","","","","",""
"null","<p style=""font-size: 80px;"">+ 0 points</p>","null","html-keyboard-response","4","139575","0.0-7.0-2.3","5c90d58b1bfaba0016dc35f0","qkp60h","JW","62","M","{""name"":""Chrome"",""chrome"":true,""version"":""106.0"",""blink"":true,""windows"":true,""osname"":""Windows"",""osversion"":""7"",""a"":true}","9:39:16","0","1","Practice_2","70","j","0","1372.9000000059605","1920 x 1080","1920 x 1080","true","1","0","","","","",""
"null","<p style=""font-size: 80px;"">+ 10 points</p>","null","html-keyboard-response","5","143086","0.0-7.0-2.4","5c90d58b1bfaba0016dc35f0","qkp60h","JW","62","M","{""name"":""Chrome"",""chrome"":true,""version"":""106.0"",""blink"":true,""windows"":true,""osname"":""Windows"",""osversion"":""7"",""a"":true}","9:39:16","0","1","Practice_1","70","f","1","1507.2999999821186","1920 x 1080","1920 x 1080","true","1","10","","","","",""
"null","<p style=""font-size: 80px;"">+ 10 points</p>","null","html-keyboard-response","6","146774","0.0-7.0-2.5","5c90d58b1bfaba0016dc35f0","qkp60h","JW","62","M","{""name"":""Chrome"",""chrome"":true,""version"":""106.0"",""blink"":true,""windows"":true,""osname"":""Windows"",""osversion"":""7"",""a"":true}","9:39:16","0","1","Practice_4","74","j","1","1684.0999999940395","1920 x 1080","1920 x 1080","true","1","10","","","","",""
"null","<p style=""font-size: 80px;"">+ 0 points</p>","null","html-keyboard-response","7","149967","0.0-7.0-2.6","5c90d58b1bfaba0016dc35f0","qkp60h","JW","62","M","{""name"":""Chrome"",""chrome"":true,""version"":""106.0"",""blink"":true,""windows"":true,""osname"":""Windows"",""osversion"":""7"",""a"":true}","9:39:16","0","1","Practice_1","74","f","0","1188.0999999940395","1920 x 1080","1920 x 1080","true","1","0","","","","",""
"null","<p style=""font-size: 80px;"">+ 10 points</p>","null","html-keyboard-response","8","153255","0.0-7.0-2.7","5c90d58b1bfaba0016dc35f0","qkp60h","JW","62","M","{""name"":""Chrome"",""chrome"":true,""version"":""106.0"",""blink"":true,""windows"":true,""osname"":""Windows"",""osversion"":""7"",""a"":true}","9:39:16","0","1","Practice_3","70","f","1","1283.5999999940395","1920 x 1080","1920 x 1080","true","1","10","","","","",""
"null","<p style=""font-size: 80px;"">+ 10 points</p>","null","html-keyboard-response","9","156574","0.0-7.0-2.8","5c90d58b1bfaba0016dc35f0","qkp60h","JW","62","M","{""name"":""Chrome"",""chrome"":true,""version"":""106.0"",""blink"":true,""windows"":true,""osname"":""Windows"",""osversion"":""7"",""a"":true}","9:39:16","0","1","Practice_2","74","j","1","1315.5","1920 x 1080","1920 x 1080","true","1","10","","","","",""
"null","<p style=""font-size: 80px;"">+ 10 points</p>","null","html-keyboard-response","10","160158","0.0-7.0-2.9","5c90d58b1bfaba0016dc35f0","qkp60h","JW","62","M","{""name"":""Chrome"",""chrome"":true,""version"":""106.0"",""blink"":true,""windows"":true,""osname"":""Windows"",""osversion"":""7"",""a"":true}","9:39:16","0","1","Practice_4","74","j","1","1580.699999988079","1920 x 1080","1920 x 1080","true","1","10","","","","",""
"null","<p style=""font-size: 80px;"">+ 10 points</p>","null","html-keyboard-response","11","163605","0.0-7.0-2.10","5c90d58b1bfaba0016dc35f0","qkp60h","JW","62","M","{""name"":""Chrome"",""chrome"":true,""version"":""106.0"",""blink"":true,""windows"":true,""osname"":""Windows"",""osversion"":""7"",""a"":true}","9:39:16","0","1","Practice_4","74","j","1","1443.9000000059605","1920 x 1080","1920 x 1080","true","1","10","","","","",""
"null","<p style=""font-size: 80px;"">+ 10 points</p>","null","html-keyboard-response","12","167557","0.0-7.0-2.11","5c90d58b1bfaba0016dc35f0","qkp60h","JW","62","M","{""name"":""Chrome"",""chrome"":true,""version"":""106.0"",""blink"":true,""windows"":true,""osname"":""Windows"",""osversion"":""7"",""a"":true}","9:39:16","0","1","Practice_2","74","j","1","1948.7999999821186","1920 x 1080","1920 x 1080","true","1","10","","","","",""
"null","<p style=""font-size: 80px;"">+ 10 points</p>","null","html-keyboard-response","13","170350","0.0-7.0-2.12","5c90d58b1bfaba0016dc35f0","qkp60h","JW","62","M","{""name"":""Chrome"",""chrome"":true,""version"":""106.0"",""blink"":true,""windows"":true,""osname"":""Windows"",""osversion"":""7"",""a"":true}","9:39:16","0","1","Practice_2","74","j","1","788.9000000059605","1920 x 1080","1920 x 1080","true","1","10","","","","",""
"null","<p style=""font-size: 80px;"">+ 10 points</p>","null","html-keyboard-response","14","173374","0.0-7.0-2.13","5c90d58b1bfaba0016dc35f0","qkp60h","JW","62","M","{""name"":""Chrome"",""chrome"":true,""version"":""106.0"",""blink"":true,""windows"":true,""osname"":""Windows"",""osversion"":""7"",""a"":true}","9:39:16","0","1","Practice_3","70","f","1","1020.5","1920 x 1080","1920 x 1080","true","1","10","","","","",""
"null","<p style=""font-size: 80px;"">+ 10 points</p>","null","html-keyboard-response","15","176150","0.0-7.0-2.14","5c90d58b1bfaba0016dc35f0","qkp60h","JW","62","M","{""name"":""Chrome"",""chrome"":true,""version"":""106.0"",""blink"":true,""windows"":true,""osname"":""Windows"",""osversion"":""7"",""a"":true}","9:39:16","0","1","Practice_3","70","f","1","772.2000000178814","1920 x 1080","1920 x 1080","true","1","10","","","","",""
"null","<p style=""font-size: 80px;"">+ 10 points</p>","null","html-keyboard-response","16","179029","0.0-7.0-2.15","5c90d58b1bfaba0016dc35f0","qkp60h","JW","62","M","{""name"":""Chrome"",""chrome"":true,""version"":""106.0"",""blink"":true,""windows"":true,""osname"":""Windows"",""osversion"":""7"",""a"":true}","9:39:16","0","1","Practice_4","74","j","1","875.8000000119209","1920 x 1080","1920 x 1080","true","1","10","","","","",""
"null","<p style=""font-size: 80px;"">+ 10 points</p>","null","html-keyboard-response","17","181934","0.0-7.0-2.16","5c90d58b1bfaba0016dc35f0","qkp60h","JW","62","M","{""name"":""Chrome"",""chrome"":true,""version"":""106.0"",""blink"":true,""windows"":true,""osname"":""Windows"",""osversion"":""7"",""a"":true}","9:39:16","0","1","Practice_1","70","f","1","901.1999999880791","1920 x 1080","1920 x 1080","true","1","10","","","","",""
"null","<p style=""font-size: 80px;"">+ 10 points</p>","null","html-keyboard-response","18","184621","0.0-7.0-2.17","5c90d58b1bfaba0016dc35f0","qkp60h","JW","62","M","{""name"":""Chrome"",""chrome"":true,""version"":""106.0"",""blink"":true,""windows"":true,""osname"":""Windows"",""osversion"":""7"",""a"":true}","9:39:16","0","1","Practice_2","74","j","1","683.6000000238419","1920 x 1080","1920 x 1080","true","1","10","","","","",""
"null","<p style=""font-size: 80px;"">+ 10 points</p>","null","html-keyboard-response","19","187957","0.0-7.0-2.18","5c90d58b1bfaba0016dc35f0","qkp60h","JW","62","M","{""name"":""Chrome"",""chrome"":true,""version"":""106.0"",""blink"":true,""windows"":true,""osname"":""Windows"",""osversion"":""7"",""a"":true}","9:39:16","0","1","Practice_4","74","j","1","1332.6000000238419","1920 x 1080","1920 x 1080","true","1","10","","","","",""
"null","<p style=""font-size: 80px;"">+ 10 points</p>","null","html-keyboard-response","20","190830","0.0-7.0-2.19","5c90d58b1bfaba0016dc35f0","qkp60h","JW","62","M","{""name"":""Chrome"",""chrome"":true,""version"":""106.0"",""blink"":true,""windows"":true,""osname"":""Windows"",""osversion"":""7"",""a"":true}","9:39:16","0","1","Practice_3","70","f","1","868.2999999821186","1920 x 1080","1920 x 1080","true","1","10","","","","",""
"null","<p style=""font-size: 80px;"">+ 0 points</p>","null","html-keyboard-response","21","193478","0.0-7.0-2.20","5c90d58b1bfaba0016dc35f0","qkp60h","JW","62","M","{""name"":""Chrome"",""chrome"":true,""version"":""106.0"",""blink"":true,""windows"":true,""osname"":""Windows"",""osversion"":""7"",""a"":true}","9:39:16","0","2","Practice_4","74","f","0","644.3000000119209","1920 x 1080","1920 x 1080","true","1","0","","","","",""
"null","<p style=""font-size: 80px;"">+ 0 points</p>","null","html-keyboard-response","22","196910","0.0-7.0-2.21","5c90d58b1bfaba0016dc35f0","qkp60h","JW","62","M","{""name"":""Chrome"",""chrome"":true,""version"":""106.0"",""blink"":true,""windows"":true,""osname"":""Windows"",""osversion"":""7"",""a"":true}","9:39:16","0","2","Practice_2","74","f","0","1427.9000000059605","1920 x 1080","1920 x 1080","true","1","0","","","","",""
"null","<p style=""font-size: 80px;"">+ 10 points</p>","null","html-keyboard-response","23","199869","0.0-7.0-2.22","5c90d58b1bfaba0016dc35f0","qkp60h","JW","62","M","{""name"":""Chrome"",""chrome"":true,""version"":""106.0"",""blink"":true,""windows"":true,""osname"":""Windows"",""osversion"":""7"",""a"":true}","9:39:16","0","2","Practice_4","70","f","1","955.6999999880791","1920 x 1080","1920 x 1080","true","1","10","","","","",""
"null","<p style=""font-size: 80px;"">+ 10 points</p>","null","html-keyboard-response","24","202925","0.0-7.0-2.23","5c90d58b1bfaba0016dc35f0","qkp60h","JW","62","M","{""name"":""Chrome"",""chrome"":true,""version"":""106.0"",""blink"":true,""windows"":true,""osname"":""Windows"",""osversion"":""7"",""a"":true}","9:39:16","0","2","Practice_3","74","j","1","1049.5","1920 x 1080","1920 x 1080","true","1","10","","","","",""
"null","<p style=""font-size: 80px;"">+ 10 points</p>","null","html-keyboard-response","25","206637","0.0-7.0-2.24","5c90d58b1bfaba0016dc35f0","qkp60h","JW","62","M","{""name"":""Chrome"",""chrome"":true,""version"":""106.0"",""blink"":true,""windows"":true,""osname"":""Windows"",""osversion"":""7"",""a"":true}","9:39:16","0","2","Practice_1","74","j","1","1708.5","1920 x 1080","1920 x 1080","true","1","10","","","","",""
"null","<p style=""font-size: 80px;"">+ 10 points</p>","null","html-keyboard-response","26","209813","0.0-7.0-2.25","5c90d58b1bfaba0016dc35f0","qkp60h","JW","62","M","{""name"":""Chrome"",""chrome"":true,""version"":""106.0"",""blink"":true,""windows"":true,""osname"":""Windows"",""osversion"":""7"",""a"":true}","9:39:16","0","2","Practice_1","74","j","1","1172.199999988079","1920 x 1080","1920 x 1080","true","1","10","","","","",""
"null","<p style=""font-size: 80px;"">+ 10 points</p>","null","html-keyboard-response","27","212566","0.0-7.0-2.26","5c90d58b1bfaba0016dc35f0","qkp60h","JW","62","M","{""name"":""Chrome"",""chrome"":true,""version"":""106.0"",""blink"":true,""windows"":true,""osname"":""Windows"",""osversion"":""7"",""a"":true}","9:39:16","0","2","Practice_2","70","f","1","747.8000000119209","1920 x 1080","1920 x 1080","true","1","10","","","","",""
"null","<p style=""font-size: 80px;"">+ 10 points</p>","null","html-keyboard-response","28","215749","0.0-7.0-2.27","5c90d58b1bfaba0016dc35f0","qkp60h","JW","62","M","{""name"":""Chrome"",""chrome"":true,""version"":""106.0"",""blink"":true,""windows"":true,""osname"":""Windows"",""osversion"":""7"",""a"":true}","9:39:16","0","2","Practice_2","70","f","1","1179.5","1920 x 1080","1920 x 1080","true","1","10","","","","",""
"null","<p style=""font-size: 80px;"">+ 10 points</p>","null","html-keyboard-response","29","218989","0.0-7.0-2.28","5c90d58b1bfaba0016dc35f0","qkp60h","JW","62","M","{""name"":""Chrome"",""chrome"":true,""version"":""106.0"",""blink"":true,""windows"":true,""osname"":""Windows"",""osversion"":""7"",""a"":true}","9:39:16","0","2","Practice_3","74","j","1","1236.5999999940395","1920 x 1080","1920 x 1080","true","1","10","","","","",""
"null","<p style=""font-size: 80px;"">+ 10 points</p>","null","html-keyboard-response","30","222461","0.0-7.0-2.29","5c90d58b1bfaba0016dc35f0","qkp60h","JW","62","M","{""name"":""Chrome"",""chrome"":true,""version"":""106.0"",""blink"":true,""windows"":true,""osname"":""Windows"",""osversion"":""7"",""a"":true}","9:39:16","0","2","Practice_2","70","f","1","1468.199999988079","1920 x 1080","1920 x 1080","true","1","10","","","","",""
"null","<p style=""font-size: 80px;"">+ 10 points</p>","null","html-keyboard-response","31","225684","0.0-7.0-2.30","5c90d58b1bfaba0016dc35f0","qkp60h","JW","62","M","{""name"":""Chrome"",""chrome"":true,""version"":""106.0"",""blink"":true,""windows"":true,""osname"":""Windows"",""osversion"":""7"",""a"":true}","9:39:16","0","2","Practice_4","70","f","1","1220","1920 x 1080","1920 x 1080","true","1","10","","","","",""
"null","<p style=""font-size: 80px;"">+ 10 points</p>","null","html-keyboard-response","32","229029","0.0-7.0-2.31","5c90d58b1bfaba0016dc35f0","qkp60h","JW","62","M","{""name"":""Chrome"",""chrome"":true,""version"":""106.0"",""blink"":true,""windows"":true,""osname"":""Windows"",""osversion"":""7"",""a"":true}","9:39:16","0","2","Practice_1","74","j","1","1340.8999999761581","1920 x 1080","1920 x 1080","true","1","10","","","","",""
"null","<p style=""font-size: 80px;"">+ 10 points</p>","null","html-keyboard-response","33","232397","0.0-7.0-2.32","5c90d58b1bfaba0016dc35f0","qkp60h","JW","62","M","{""name"":""Chrome"",""chrome"":true,""version"":""106.0"",""blink"":true,""windows"":true,""osname"":""Windows"",""osversion"":""7"",""a"":true}","9:39:16","0","2","Practice_2","70","f","1","1363.5","1920 x 1080","1920 x 1080","true","1","10","","","","",""
"null","<p style=""font-size: 80px;"">+ 10 points</p>","null","html-keyboard-response","34","235661","0.0-7.0-2.33","5c90d58b1bfaba0016dc35f0","qkp60h","JW","62","M","{""name"":""Chrome"",""chrome"":true,""version"":""106.0"",""blink"":true,""windows"":true,""osname"":""Windows"",""osversion"":""7"",""a"":true}","9:39:16","0","2","Practice_1","74","j","1","1260.4000000059605","1920 x 1080","1920 x 1080","true","1","10","","","","",""
"null","<p style=""font-size: 80px;"">+ 10 points</p>","null","html-keyboard-response","35","238845","0.0-7.0-2.34","5c90d58b1bfaba0016dc35f0","qkp60h","JW","62","M","{""name"":""Chrome"",""chrome"":true,""version"":""106.0"",""blink"":true,""windows"":true,""osname"":""Windows"",""osversion"":""7"",""a"":true}","9:39:16","0","2","Practice_4","70","f","1","1180.4000000059605","1920 x 1080","1920 x 1080","true","1","10","","","","",""
"null","<p style=""font-size: 80px;"">+ 10 points</p>","null","html-keyboard-response","36","242173","0.0-7.0-2.35","5c90d58b1bfaba0016dc35f0","qkp60h","JW","62","M","{""name"":""Chrome"",""chrome"":true,""version"":""106.0"",""blink"":true,""windows"":true,""osname"":""Windows"",""osversion"":""7"",""a"":true}","9:39:16","0","2","Practice_4","70","f","1","1324.199999988079","1920 x 1080","1920 x 1080","true","1","10","","","","",""
"null","<p style=""font-size: 80px;"">+ 10 points</p>","null","html-keyboard-response","37","245284","0.0-7.0-2.36","5c90d58b1bfaba0016dc35f0","qkp60h","JW","62","M","{""name"":""Chrome"",""chrome"":true,""version"":""106.0"",""blink"":true,""windows"":true,""osname"":""Windows"",""osversion"":""7"",""a"":true}","9:39:16","0","2","Practice_3","74","j","1","1107.800000011921","1920 x 1080","1920 x 1080","true","1","10","","","","",""
"null","<p style=""font-size: 80px;"">+ 10 points</p>","null","html-keyboard-response","38","248374","0.0-7.0-2.37","5c90d58b1bfaba0016dc35f0","qkp60h","JW","62","M","{""name"":""Chrome"",""chrome"":true,""version"":""106.0"",""blink"":true,""windows"":true,""osname"":""Windows"",""osversion"":""7"",""a"":true}","9:39:16","0","2","Practice_3","74","j","1","1084.6000000238419","1920 x 1080","1920 x 1080","true","1","10","","","","",""
"null","<p style=""font-size: 80px;"">+ 10 points</p>","null","html-keyboard-response","39","251414","0.0-7.0-2.38","5c90d58b1bfaba0016dc35f0","qkp60h","JW","62","M","{""name"":""Chrome"",""chrome"":true,""version"":""106.0"",""blink"":true,""windows"":true,""osname"":""Windows"",""osversion"":""7"",""a"":true}","9:39:16","0","2","Practice_3","74","j","1","1035.3999999761581","1920 x 1080","1920 x 1080","true","1","10","","","","",""
"null","<p style=""font-size: 80px;"">+ 10 points</p>","null","html-keyboard-response","40","254534","0.0-7.0-2.39","5c90d58b1bfaba0016dc35f0","qkp60h","JW","62","M","{""name"":""Chrome"",""chrome"":true,""version"":""106.0"",""blink"":true,""windows"":true,""osname"":""Windows"",""osversion"":""7"",""a"":true}","9:39:16","0","2","Practice_1","74","j","1","1116.4000000059605","1920 x 1080","1920 x 1080","true","1","10","","","","",""
"28316.59999999404","","","survey-multi-choice","127","282854","0.0-8.0","5c90d58b1bfaba0016dc35f0","qkp60h","JW","62","M","{""name"":""Chrome"",""chrome"":true,""version"":""106.0"",""blink"":true,""windows"":true,""osname"":""Windows"",""osversion"":""7"",""a"":true}","9:39:16","","","","","","","","","","","1","","{""Q0"":""The red one"",""Q1"":""1""}","[0,1]","1","The red one","2"
"null","<p style=""font-size: 80px;"">+ 0 points</p>","null","html-keyboard-response","1","297181","0.0-11.0-2.0","5c90d58b1bfaba0016dc35f0","qkp60h","JW","62","M","{""name"":""Chrome"",""chrome"":true,""version"":""106.0"",""blink"":true,""windows"":true,""osname"":""Windows"",""osversion"":""7"",""a"":true}","9:39:16","1","3","Test_4","70","j","0","1404.1000000238419","1920 x 1080","1920 x 1080","true","1","0","","","","",""
"null","<p style=""font-size: 80px;"">+ 10 points</p>","null","html-keyboard-response","2","300461","0.0-11.0-2.1","5c90d58b1bfaba0016dc35f0","qkp60h","JW","62","M","{""name"":""Chrome"",""chrome"":true,""version"":""106.0"",""blink"":true,""windows"":true,""osname"":""Windows"",""osversion"":""7"",""a"":true}","9:39:16","1","3","Test_4","74","j","1","1275.2000000178814","1920 x 1080","1920 x 1080","true","1","10","","","","",""
"null","<p style=""font-size: 80px;"">+ 10 points</p>","null","html-keyboard-response","3","303917","0.0-11.0-2.2","5c90d58b1bfaba0016dc35f0","qkp60h","JW","62","M","{""name"":""Chrome"",""chrome"":true,""version"":""106.0"",""blink"":true,""windows"":true,""osname"":""Windows"",""osversion"":""7"",""a"":true}","9:39:16","1","3","Test_3","70","f","1","1451","1920 x 1080","1920 x 1080","true","1","10","","","","",""
"null","<p style=""font-size: 80px;"">+ 10 points</p>","null","html-keyboard-response","4","307366","0.0-11.0-2.3","5c90d58b1bfaba0016dc35f0","qkp60h","JW","62","M","{""name"":""Chrome"",""chrome"":true,""version"":""106.0"",""blink"":true,""windows"":true,""osname"":""Windows"",""osversion"":""7"",""a"":true}","9:39:16","1","3","Test_1","70","f","1","1443.199999988079","1920 x 1080","1920 x 1080","true","1","10","","","","",""
"null","<p style=""font-size: 80px;"">+ 0 points</p>","null","html-keyboard-response","5","310661","0.0-11.0-2.4","5c90d58b1bfaba0016dc35f0","qkp60h","JW","62","M","{""name"":""Chrome"",""chrome"":true,""version"":""106.0"",""blink"":true,""windows"":true,""osname"":""Windows"",""osversion"":""7"",""a"":true}","9:39:16","1","3","Test_3","74","f","0","1290.2999999821186","1920 x 1080","1920 x 1080","true","1","0","","","","",""
"null","<p style=""font-size: 80px;"">+ 10 points</p>","null","html-keyboard-response","6","314277","0.0-11.0-2.5","5c90d58b1bfaba0016dc35f0","qkp60h","JW","62","M","{""name"":""Chrome"",""chrome"":true,""version"":""106.0"",""blink"":true,""windows"":true,""osname"":""Windows"",""osversion"":""7"",""a"":true}","9:39:16","1","3","Test_1","70","f","1","1611.2999999821186","1920 x 1080","1920 x 1080","true","1","10","","","","",""
"null","<p style=""font-size: 80px;"">+ 10 points</p>","null","html-keyboard-response","7","317341","0.0-11.0-2.6","5c90d58b1bfaba0016dc35f0","qkp60h","JW","62","M","{""name"":""Chrome"",""chrome"":true,""version"":""106.0"",""blink"":true,""windows"":true,""osname"":""Windows"",""osversion"":""7"",""a"":true}","9:39:16","1","3","Test_4","74","j","1","1059","1920 x 1080","1920 x 1080","true","1","10","","","","",""
"null","<p style=""font-size: 80px;"">+ 10 points</p>","null","html-keyboard-response","8","320813","0.0-11.0-2.7","5c90d58b1bfaba0016dc35f0","qkp60h","JW","62","M","{""name"":""Chrome"",""chrome"":true,""version"":""106.0"",""blink"":true,""windows"":true,""osname"":""Windows"",""osversion"":""7"",""a"":true}","9:39:16","1","3","Test_2","74","j","1","1467.0999999940395","1920 x 1080","1920 x 1080","true","1","10","","","","",""
"null","<p style=""font-size: 80px;"">+ 0 points</p>","null","html-keyboard-response","9","324789","0.0-11.0-2.8","5c90d58b1bfaba0016dc35f0","qkp60h","JW","62","M","{""name"":""Chrome"",""chrome"":true,""version"":""106.0"",""blink"":true,""windows"":true,""osname"":""Windows"",""osversion"":""7"",""a"":true}","9:39:16","1","3","Test_2","70","j","0","1970.5999999940395","1920 x 1080","1920 x 1080","true","1","0","","","","",""
"null","<p style=""font-size: 80px;"">+ 10 points</p>","null","html-keyboard-response","10","328189","0.0-11.0-2.9","5c90d58b1bfaba0016dc35f0","qkp60h","JW","62","M","{""name"":""Chrome"",""chrome"":true,""version"":""106.0"",""blink"":true,""windows"":true,""osname"":""Windows"",""osversion"":""7"",""a"":true}","9:39:16","1","3","Test_2","74","j","1","1395.5","1920 x 1080","1920 x 1080","true","1","10","","","","",""
"null","<p style=""font-size: 80px;"">+ 10 points</p>","null","html-keyboard-response","11","331421","0.0-11.0-2.10","5c90d58b1bfaba0016dc35f0","qkp60h","JW","62","M","{""name"":""Chrome"",""chrome"":true,""version"":""106.0"",""blink"":true,""windows"":true,""osname"":""Windows"",""osversion"":""7"",""a"":true}","9:39:16","1","3","Test_3","70","f","1","1227.4000000059605","1920 x 1080","1920 x 1080","true","1","10","","","","",""
"null","<p style=""font-size: 80px;"">+ 0 points</p>","null","html-keyboard-response","12","334397","0.0-11.0-2.11","5c90d58b1bfaba0016dc35f0","qkp60h","JW","62","M","{""name"":""Chrome"",""chrome"":true,""version"":""106.0"",""blink"":true,""windows"":true,""osname"":""Windows"",""osversion"":""7"",""a"":true}","9:39:16","1","3","Test_1","74","f","0","970.9000000059605","1920 x 1080","1920 x 1080","true","1","0","","","","",""
"null","<p style=""font-size: 80px;"">+ 10 points</p>","null","html-keyboard-response","13","337341","0.0-11.0-2.12","5c90d58b1bfaba0016dc35f0","qkp60h","JW","62","M","{""name"":""Chrome"",""chrome"":true,""version"":""106.0"",""blink"":true,""windows"":true,""osname"":""Windows"",""osversion"":""7"",""a"":true}","9:39:16","1","3","Test_1","70","f","1","938.7999999821186","1920 x 1080","1920 x 1080","true","1","10","","","","",""
"null","<p style=""font-size: 80px;"">+ 10 points</p>","null","html-keyboard-response","14","340548","0.0-11.0-2.13","5c90d58b1bfaba0016dc35f0","qkp60h","JW","62","M","{""name"":""Chrome"",""chrome"":true,""version"":""106.0"",""blink"":true,""windows"":true,""osname"":""Windows"",""osversion"":""7"",""a"":true}","9:39:16","1","3","Test_3","70","f","1","1202.5","1920 x 1080","1920 x 1080","true","1","10","","","","",""
"null","<p style=""font-size: 80px;"">+ 10 points</p>","null","html-keyboard-response","15","343509","0.0-11.0-2.14","5c90d58b1bfaba0016dc35f0","qkp60h","JW","62","M","{""name"":""Chrome"",""chrome"":true,""version"":""106.0"",""blink"":true,""windows"":true,""osname"":""Windows"",""osversion"":""7"",""a"":true}","9:39:16","1","3","Test_2","74","j","1","955.4000000059605","1920 x 1080","1920 x 1080","true","1","10","","","","",""
"null","<p style=""font-size: 80px;"">+ 0 points</p>","null","html-keyboard-response","16","347176","0.0-11.0-2.15","5c90d58b1bfaba0016dc35f0","qkp60h","JW","62","M","{""name"":""Chrome"",""chrome"":true,""version"":""106.0"",""blink"":true,""windows"":true,""osname"":""Windows"",""osversion"":""7"",""a"":true}","9:39:16","1","4","Test_3","70","j","0","1658.800000011921","1920 x 1080","1920 x 1080","true","1","0","","","","",""
"null","<p style=""font-size: 80px;"">+ 0 points</p>","null","html-keyboard-response","17","350853","0.0-11.0-2.16","5c90d58b1bfaba0016dc35f0","qkp60h","JW","62","M","{""name"":""Chrome"",""chrome"":true,""version"":""106.0"",""blink"":true,""windows"":true,""osname"":""Windows"",""osversion"":""7"",""a"":true}","9:39:16","1","4","Test_4","74","f","0","1662.9000000059605","1920 x 1080","1920 x 1080","true","1","0","","","","",""
"null","<p style=""font-size: 80px;"">+ 0 points</p>","null","html-keyboard-response","18","353973","0.0-11.0-2.17","5c90d58b1bfaba0016dc35f0","qkp60h","JW","62","M","{""name"":""Chrome"",""chrome"":true,""version"":""106.0"",""blink"":true,""windows"":true,""osname"":""Windows"",""osversion"":""7"",""a"":true}","9:39:16","1","4","Test_3","70","j","0","1114.8999999761581","1920 x 1080","1920 x 1080","true","1","0","","","","",""
"null","<p style=""font-size: 80px;"">+ 0 points</p>","null","html-keyboard-response","19","356788","0.0-11.0-2.18","5c90d58b1bfaba0016dc35f0","qkp60h","JW","62","M","{""name"":""Chrome"",""chrome"":true,""version"":""106.0"",""blink"":true,""windows"":true,""osname"":""Windows"",""osversion"":""7"",""a"":true}","9:39:16","1","4","Test_2","74","f","0","810.5999999940395","1920 x 1080","1920 x 1080","true","1","0","","","","",""
"null","<p style=""font-size: 80px;"">+ 10 points</p>","null","html-keyboard-response","20","359844","0.0-11.0-2.19","5c90d58b1bfaba0016dc35f0","qkp60h","JW","62","M","{""name"":""Chrome"",""chrome"":true,""version"":""106.0"",""blink"":true,""windows"":true,""osname"":""Windows"",""osversion"":""7"",""a"":true}","9:39:16","1","4","Test_2","70","f","1","1051.5","1920 x 1080","1920 x 1080","true","1","10","","","","",""
"null","<p style=""font-size: 80px;"">+ 10 points</p>","null","html-keyboard-response","21","363628","0.0-11.0-2.20","5c90d58b1bfaba0016dc35f0","qkp60h","JW","62","M","{""name"":""Chrome"",""chrome"":true,""version"":""106.0"",""blink"":true,""windows"":true,""osname"":""Windows"",""osversion"":""7"",""a"":true}","9:39:16","1","4","Test_1","74","j","1","1779.300000011921","1920 x 1080","1920 x 1080","true","1","10","","","","",""
"null","<p style=""font-size: 80px;"">+ 10 points</p>","null","html-keyboard-response","22","367789","0.0-11.0-2.21","5c90d58b1bfaba0016dc35f0","qkp60h","JW","62","M","{""name"":""Chrome"",""chrome"":true,""version"":""106.0"",""blink"":true,""windows"":true,""osname"":""Windows"",""osversion"":""7"",""a"":true}","9:39:16","1","4","Test_3","74","j","1","2155.0999999940395","1920 x 1080","1920 x 1080","true","1","10","","","","",""
"null","<p style=""font-size: 80px;"">+ 10 points</p>","null","html-keyboard-response","23","371037","0.0-11.0-2.22","5c90d58b1bfaba0016dc35f0","qkp60h","JW","62","M","{""name"":""Chrome"",""chrome"":true,""version"":""106.0"",""blink"":true,""windows"":true,""osname"":""Windows"",""osversion"":""7"",""a"":true}","9:39:16","1","4","Test_4","70","f","1","1242.699999988079","1920 x 1080","1920 x 1080","true","1","10","","","","",""
"null","<p style=""font-size: 80px;"">+ 10 points</p>","null","html-keyboard-response","24","373957","0.0-11.0-2.23","5c90d58b1bfaba0016dc35f0","qkp60h","JW","62","M","{""name"":""Chrome"",""chrome"":true,""version"":""106.0"",""blink"":true,""windows"":true,""osname"":""Windows"",""osversion"":""7"",""a"":true}","9:39:16","1","4","Test_1","74","j","1","914.5","1920 x 1080","1920 x 1080","true","1","10","","","","",""
"null","<p style=""font-size: 80px;"">+ 10 points</p>","null","html-keyboard-response","25","377053","0.0-11.0-2.24","5c90d58b1bfaba0016dc35f0","qkp60h","JW","62","M","{""name"":""Chrome"",""chrome"":true,""version"":""106.0"",""blink"":true,""windows"":true,""osname"":""Windows"",""osversion"":""7"",""a"":true}","9:39:16","1","4","Test_4","70","f","1","1091.199999988079","1920 x 1080","1920 x 1080","true","1","10","","","","",""
"null","<p style=""font-size: 80px;"">+ 10 points</p>","null","html-keyboard-response","26","380549","0.0-11.0-2.25","5c90d58b1bfaba0016dc35f0","qkp60h","JW","62","M","{""name"":""Chrome"",""chrome"":true,""version"":""106.0"",""blink"":true,""windows"":true,""osname"":""Windows"",""osversion"":""7"",""a"":true}","9:39:16","1","4","Test_3","74","j","1","1491.2999999821186","1920 x 1080","1920 x 1080","true","1","10","","","","",""
"null","<p style=""font-size: 80px;"">+ 10 points</p>","null","html-keyboard-response","27","383637","0.0-11.0-2.26","5c90d58b1bfaba0016dc35f0","qkp60h","JW","62","M","{""name"":""Chrome"",""chrome"":true,""version"":""106.0"",""blink"":true,""windows"":true,""osname"":""Windows"",""osversion"":""7"",""a"":true}","9:39:16","1","4","Test_1","74","j","1","1082.7000000178814","1920 x 1080","1920 x 1080","true","1","10","","","","",""
"null","<p style=""font-size: 80px;"">+ 10 points</p>","null","html-keyboard-response","28","386805","0.0-11.0-2.27","5c90d58b1bfaba0016dc35f0","qkp60h","JW","62","M","{""name"":""Chrome"",""chrome"":true,""version"":""106.0"",""blink"":true,""windows"":true,""osname"":""Windows"",""osversion"":""7"",""a"":true}","9:39:16","1","4","Test_4","70","f","1","1162.9000000059605","1920 x 1080","1920 x 1080","true","1","10","","","","",""
"null","<p style=""font-size: 80px;"">+ 10 points</p>","null","html-keyboard-response","29","390196","0.0-11.0-2.28","5c90d58b1bfaba0016dc35f0","qkp60h","JW","62","M","{""name"":""Chrome"",""chrome"":true,""version"":""106.0"",""blink"":true,""windows"":true,""osname"":""Windows"",""osversion"":""7"",""a"":true}","9:39:16","1","4","Test_2","70","f","1","1386.0999999940395","1920 x 1080","1920 x 1080","true","1","10","","","","",""
"null","<p style=""font-size: 80px;"">+ 10 points</p>","null","html-keyboard-response","30","392933","0.0-11.0-2.29","5c90d58b1bfaba0016dc35f0","qkp60h","JW","62","M","{""name"":""Chrome"",""chrome"":true,""version"":""106.0"",""blink"":true,""windows"":true,""osname"":""Windows"",""osversion"":""7"",""a"":true}","9:39:16","1","4","Test_4","70","f","1","731.5999999940395","1920 x 1080","1920 x 1080","true","1","10","","","","",""
"null","<p style=""font-size: 80px;"">+ 10 points</p>","null","html-keyboard-response","31","396581","0.0-11.0-2.30","5c90d58b1bfaba0016dc35f0","qkp60h","JW","62","M","{""name"":""Chrome"",""chrome"":true,""version"":""106.0"",""blink"":true,""windows"":true,""osname"":""Windows"",""osversion"":""7"",""a"":true}","9:39:16","1","4","Test_2","70","f","1","1642","1920 x 1080","1920 x 1080","true","1","10","","","","",""
"null","<p style=""font-size: 80px;"">+ 10 points</p>","null","html-keyboard-response","32","399533","0.0-11.0-2.31","5c90d58b1bfaba0016dc35f0","qkp60h","JW","62","M","{""name"":""Chrome"",""chrome"":true,""version"":""106.0"",""blink"":true,""windows"":true,""osname"":""Windows"",""osversion"":""7"",""a"":true}","9:39:16","1","4","Test_2","70","f","1","946.6999999880791","1920 x 1080","1920 x 1080","true","1","10","","","","",""
"null","<p style=""font-size: 80px;"">+ 0 points</p>","null","html-keyboard-response","33","402989","0.0-11.0-2.32","5c90d58b1bfaba0016dc35f0","qkp60h","JW","62","M","{""name"":""Chrome"",""chrome"":true,""version"":""106.0"",""blink"":true,""windows"":true,""osname"":""Windows"",""osversion"":""7"",""a"":true}","9:39:16","1","4","Test_1","70","j","0","1451.0999999940395","1920 x 1080","1920 x 1080","true","1","0","","","","",""
"null","<p style=""font-size: 80px;"">+ 10 points</p>","null","html-keyboard-response","34","405956","0.0-11.0-2.33","5c90d58b1bfaba0016dc35f0","qkp60h","JW","62","M","{""name"":""Chrome"",""chrome"":true,""version"":""106.0"",""blink"":true,""windows"":true,""osname"":""Windows"",""osversion"":""7"",""a"":true}","9:39:16","1","4","Test_3","74","j","1","962.3000000119209","1920 x 1080","1920 x 1080","true","1","10","","","","",""
"null","<p style=""font-size: 80px;"">+ 10 points</p>","null","html-keyboard-response","35","409084","0.0-11.0-2.34","5c90d58b1bfaba0016dc35f0","qkp60h","JW","62","M","{""name"":""Chrome"",""chrome"":true,""version"":""106.0"",""blink"":true,""windows"":true,""osname"":""Windows"",""osversion"":""7"",""a"":true}","9:39:16","1","4","Test_3","74","j","1","1123.4000000059605","1920 x 1080","1920 x 1080","true","1","10","","","","",""
"null","<p style=""font-size: 80px;"">+ 0 points</p>","null","html-keyboard-response","36","412012","0.0-11.0-2.35","5c90d58b1bfaba0016dc35f0","qkp60h","JW","62","M","{""name"":""Chrome"",""chrome"":true,""version"":""106.0"",""blink"":true,""windows"":true,""osname"":""Windows"",""osversion"":""7"",""a"":true}","9:39:16","1","4","Test_4","74","f","0","923.0999999940395","1920 x 1080","1920 x 1080","true","1","0","","","","",""
"null","<p style=""font-size: 80px;"">+ 0 points</p>","null","html-keyboard-response","37","415012","0.0-11.0-2.36","5c90d58b1bfaba0016dc35f0","qkp60h","JW","62","M","{""name"":""Chrome"",""chrome"":true,""version"":""106.0"",""blink"":true,""windows"":true,""osname"":""Windows"",""osversion"":""7"",""a"":true}","9:39:16","1","3","Test_3","74","f","0","995.0999999940395","1920 x 1080","1920 x 1080","true","1","0","","","","",""
"null","<p style=""font-size: 80px;"">+ 10 points</p>","null","html-keyboard-response","38","418037","0.0-11.0-2.37","5c90d58b1bfaba0016dc35f0","qkp60h","JW","62","M","{""name"":""Chrome"",""chrome"":true,""version"":""106.0"",""blink"":true,""windows"":true,""osname"":""Windows"",""osversion"":""7"",""a"":true}","9:39:16","1","3","Test_3","70","f","1","1018.4000000059605","1920 x 1080","1920 x 1080","true","1","10","","","","",""
"null","<p style=""font-size: 80px;"">+ 10 points</p>","null","html-keyboard-response","39","421229","0.0-11.0-2.38","5c90d58b1bfaba0016dc35f0","qkp60h","JW","62","M","{""name"":""Chrome"",""chrome"":true,""version"":""106.0"",""blink"":true,""windows"":true,""osname"":""Windows"",""osversion"":""7"",""a"":true}","9:39:16","1","3","Test_2","74","j","1","1186.5999999940395","1920 x 1080","1920 x 1080","true","1","10","","","","",""
"null","<p style=""font-size: 80px;"">+ 10 points</p>","null","html-keyboard-response","40","424364","0.0-11.0-2.39","5c90d58b1bfaba0016dc35f0","qkp60h","JW","62","M","{""name"":""Chrome"",""chrome"":true,""version"":""106.0"",""blink"":true,""windows"":true,""osname"":""Windows"",""osversion"":""7"",""a"":true}","9:39:16","1","3","Test_2","74","j","1","1130.0999999940395","1920 x 1080","1920 x 1080","true","1","10","","","","",""
"null","<p style=""font-size: 80px;"">+ 0 points</p>","null","html-keyboard-response","41","427044","0.0-11.0-2.40","5c90d58b1bfaba0016dc35f0","qkp60h","JW","62","M","{""name"":""Chrome"",""chrome"":true,""version"":""106.0"",""blink"":true,""windows"":true,""osname"":""Windows"",""osversion"":""7"",""a"":true}","9:39:16","1","3","Test_1","74","f","0","675.3000000119209","1920 x 1080","1920 x 1080","true","1","0","","","","",""
"null","<p style=""font-size: 80px;"">+ 10 points</p>","null","html-keyboard-response","42","430581","0.0-11.0-2.41","5c90d58b1bfaba0016dc35f0","qkp60h","JW","62","M","{""name"":""Chrome"",""chrome"":true,""version"":""106.0"",""blink"":true,""windows"":true,""osname"":""Windows"",""osversion"":""7"",""a"":true}","9:39:16","1","3","Test_4","74","j","1","1530.699999988079","1920 x 1080","1920 x 1080","true","1","10","","","","",""
"null","<p style=""font-size: 80px;"">+ 10 points</p>","null","html-keyboard-response","43","433661","0.0-11.0-2.42","5c90d58b1bfaba0016dc35f0","qkp60h","JW","62","M","{""name"":""Chrome"",""chrome"":true,""version"":""106.0"",""blink"":true,""windows"":true,""osname"":""Windows"",""osversion"":""7"",""a"":true}","9:39:16","1","3","Test_1","70","f","1","1074.4000000059605","1920 x 1080","1920 x 1080","true","1","10","","","","",""
"null","<p style=""font-size: 80px;"">+ 10 points</p>","null","html-keyboard-response","44","437101","0.0-11.0-2.43","5c90d58b1bfaba0016dc35f0","qkp60h","JW","62","M","{""name"":""Chrome"",""chrome"":true,""version"":""106.0"",""blink"":true,""windows"":true,""osname"":""Windows"",""osversion"":""7"",""a"":true}","9:39:16","1","3","Test_1","70","f","1","1434.5","1920 x 1080","1920 x 1080","true","1","10","","","","",""
"null","<p style=""font-size: 80px;"">+ 10 points</p>","null","html-keyboard-response","45","439780","0.0-11.0-2.44","5c90d58b1bfaba0016dc35f0","qkp60h","JW","62","M","{""name"":""Chrome"",""chrome"":true,""version"":""106.0"",""blink"":true,""windows"":true,""osname"":""Windows"",""osversion"":""7"",""a"":true}","9:39:16","1","3","Test_2","74","j","1","674.2000000178814","1920 x 1080","1920 x 1080","true","1","10","","","","",""
"null","<p style=""font-size: 80px;"">+ 10 points</p>","null","html-keyboard-response","46","443572","0.0-11.0-2.45","5c90d58b1bfaba0016dc35f0","qkp60h","JW","62","M","{""name"":""Chrome"",""chrome"":true,""version"":""106.0"",""blink"":true,""windows"":true,""osname"":""Windows"",""osversion"":""7"",""a"":true}","9:39:16","1","3","Test_2","74","j","1","1787.199999988079","1920 x 1080","1920 x 1080","true","1","10","","","","",""
"null","<p style=""font-size: 80px;"">+ 0 points</p>","null","html-keyboard-response","47","447029","0.0-11.0-2.46","5c90d58b1bfaba0016dc35f0","qkp60h","JW","62","M","{""name"":""Chrome"",""chrome"":true,""version"":""106.0"",""blink"":true,""windows"":true,""osname"":""Windows"",""osversion"":""7"",""a"":true}","9:39:16","1","3","Test_3","74","f","0","1450.5999999940395","1920 x 1080","1920 x 1080","true","1","0","","","","",""
"null","<p style=""font-size: 80px;"">+ 10 points</p>","null","html-keyboard-response","48","449973","0.0-11.0-2.47","5c90d58b1bfaba0016dc35f0","qkp60h","JW","62","M","{""name"":""Chrome"",""chrome"":true,""version"":""106.0"",""blink"":true,""windows"":true,""osname"":""Windows"",""osversion"":""7"",""a"":true}","9:39:16","1","3","Test_1","70","f","1","938.9000000059605","1920 x 1080","1920 x 1080","true","1","10","","","","",""
"null","<p style=""font-size: 80px;"">+ 10 points</p>","null","html-keyboard-response","49","452813","0.0-11.0-2.48","5c90d58b1bfaba0016dc35f0","qkp60h","JW","62","M","{""name"":""Chrome"",""chrome"":true,""version"":""106.0"",""blink"":true,""windows"":true,""osname"":""Windows"",""osversion"":""7"",""a"":true}","9:39:16","1","3","Test_1","70","f","1","834.5","1920 x 1080","1920 x 1080","true","1","10","","","","",""
"null","<p style=""font-size: 80px;"">+ 10 points</p>","null","html-keyboard-response","50","455932","0.0-11.0-2.49","5c90d58b1bfaba0016dc35f0","qkp60h","JW","62","M","{""name"":""Chrome"",""chrome"":true,""version"":""106.0"",""blink"":true,""windows"":true,""osname"":""Windows"",""osversion"":""7"",""a"":true}","9:39:16","1","3","Test_3","70","f","1","1114.0999999940395","1920 x 1080","1920 x 1080","true","1","10","","","","",""
"null","<p style=""font-size: 80px;"">+ 10 points</p>","null","html-keyboard-response","51","458860","0.0-11.0-2.50","5c90d58b1bfaba0016dc35f0","qkp60h","JW","62","M","{""name"":""Chrome"",""chrome"":true,""version"":""106.0"",""blink"":true,""windows"":true,""osname"":""Windows"",""osversion"":""7"",""a"":true}","9:39:16","1","3","Test_4","74","j","1","922.6999999880791","1920 x 1080","1920 x 1080","true","1","10","","","","",""
"null","<p style=""font-size: 80px;"">+ 10 points</p>","null","html-keyboard-response","52","461852","0.0-11.0-2.51","5c90d58b1bfaba0016dc35f0","qkp60h","JW","62","M","{""name"":""Chrome"",""chrome"":true,""version"":""106.0"",""blink"":true,""windows"":true,""osname"":""Windows"",""osversion"":""7"",""a"":true}","9:39:16","1","3","Test_4","74","j","1","987","1920 x 1080","1920 x 1080","true","1","10","","","","",""
"null","<p style=""font-size: 80px;"">+ 10 points</p>","null","html-keyboard-response","53","465028","0.0-11.0-2.52","5c90d58b1bfaba0016dc35f0","qkp60h","JW","62","M","{""name"":""Chrome"",""chrome"":true,""version"":""106.0"",""blink"":true,""windows"":true,""osname"":""Windows"",""osversion"":""7"",""a"":true}","9:39:16","1","3","Test_3","70","f","1","1170.5","1920 x 1080","1920 x 1080","true","1","10","","","","",""
"null","<p style=""font-size: 80px;"">+ 10 points</p>","null","html-keyboard-response","54","468676","0.0-11.0-2.53","5c90d58b1bfaba0016dc35f0","qkp60h","JW","62","M","{""name"":""Chrome"",""chrome"":true,""version"":""106.0"",""blink"":true,""windows"":true,""osname"":""Windows"",""osversion"":""7"",""a"":true}","9:39:16","1","3","Test_4","74","j","1","1642.300000011921","1920 x 1080","1920 x 1080","true","1","10","","","","",""
"null","<p style=""font-size: 80px;"">+ 0 points</p>","null","html-keyboard-response","55","471804","0.0-11.0-2.54","5c90d58b1bfaba0016dc35f0","qkp60h","JW","62","M","{""name"":""Chrome"",""chrome"":true,""version"":""106.0"",""blink"":true,""windows"":true,""osname"":""Windows"",""osversion"":""7"",""a"":true}","9:39:16","1","4","Test_2","74","f","0","1123.2000000178814","1920 x 1080","1920 x 1080","true","1","0","","","","",""
"null","<p style=""font-size: 80px;"">+ 10 points</p>","null","html-keyboard-response","56","474852","0.0-11.0-2.55","5c90d58b1bfaba0016dc35f0","qkp60h","JW","62","M","{""name"":""Chrome"",""chrome"":true,""version"":""106.0"",""blink"":true,""windows"":true,""osname"":""Windows"",""osversion"":""7"",""a"":true}","9:39:16","1","4","Test_2","70","f","1","1043.0999999940395","1920 x 1080","1920 x 1080","true","1","10","","","","",""
"null","<p style=""font-size: 80px;"">+ 10 points</p>","null","html-keyboard-response","57","478908","0.0-11.0-2.56","5c90d58b1bfaba0016dc35f0","qkp60h","JW","62","M","{""name"":""Chrome"",""chrome"":true,""version"":""106.0"",""blink"":true,""windows"":true,""osname"":""Windows"",""osversion"":""7"",""a"":true}","9:39:16","1","4","Test_4","70","f","1","2050.800000011921","1920 x 1080","1920 x 1080","true","1","10","","","","",""
"null","<p style=""font-size: 80px;"">+ 10 points</p>","null","html-keyboard-response","58","481916","0.0-11.0-2.57","5c90d58b1bfaba0016dc35f0","qkp60h","JW","62","M","{""name"":""Chrome"",""chrome"":true,""version"":""106.0"",""blink"":true,""windows"":true,""osname"":""Windows"",""osversion"":""7"",""a"":true}","9:39:16","1","4","Test_2","70","f","1","1002.5","1920 x 1080","1920 x 1080","true","1","10","","","","",""
"null","<p style=""font-size: 80px;"">+ 0 points</p>","null","html-keyboard-response","59","485220","0.0-11.0-2.58","5c90d58b1bfaba0016dc35f0","qkp60h","JW","62","M","{""name"":""Chrome"",""chrome"":true,""version"":""106.0"",""blink"":true,""windows"":true,""osname"":""Windows"",""osversion"":""7"",""a"":true}","9:39:16","1","4","Test_4","74","f","0","1298.4000000059605","1920 x 1080","1920 x 1080","true","1","0","","","","",""
"null","<p style=""font-size: 80px;"">+ 10 points</p>","null","html-keyboard-response","60","488300","0.0-11.0-2.59","5c90d58b1bfaba0016dc35f0","qkp60h","JW","62","M","{""name"":""Chrome"",""chrome"":true,""version"":""106.0"",""blink"":true,""windows"":true,""osname"":""Windows"",""osversion"":""7"",""a"":true}","9:39:16","1","4","Test_2","70","f","1","1073.800000011921","1920 x 1080","1920 x 1080","true","1","10","","","","",""
"null","<p style=""font-size: 80px;"">+ 10 points</p>","null","html-keyboard-response","61","490924","0.0-11.0-2.60","5c90d58b1bfaba0016dc35f0","qkp60h","JW","62","M","{""name"":""Chrome"",""chrome"":true,""version"":""106.0"",""blink"":true,""windows"":true,""osname"":""Windows"",""osversion"":""7"",""a"":true}","9:39:16","1","4","Test_1","74","j","1","618.9000000059605","1920 x 1080","1920 x 1080","true","1","10","","","","",""
"null","<p style=""font-size: 80px;"">+ 10 points</p>","null","html-keyboard-response","62","494028","0.0-11.0-2.61","5c90d58b1bfaba0016dc35f0","qkp60h","JW","62","M","{""name"":""Chrome"",""chrome"":true,""version"":""106.0"",""blink"":true,""windows"":true,""osname"":""Windows"",""osversion"":""7"",""a"":true}","9:39:16","1","4","Test_3","74","j","1","1098.5999999940395","1920 x 1080","1920 x 1080","true","1","10","","","","",""
"null","<p style=""font-size: 80px;"">+ 10 points</p>","null","html-keyboard-response","63","497053","0.0-11.0-2.62","5c90d58b1bfaba0016dc35f0","qkp60h","JW","62","M","{""name"":""Chrome"",""chrome"":true,""version"":""106.0"",""blink"":true,""windows"":true,""osname"":""Windows"",""osversion"":""7"",""a"":true}","9:39:16","1","4","Test_3","74","j","1","1018.7999999821186","1920 x 1080","1920 x 1080","true","1","10","","","","",""
"null","<p style=""font-size: 80px;"">+ 10 points</p>","null","html-keyboard-response","64","499829","0.0-11.0-2.63","5c90d58b1bfaba0016dc35f0","qkp60h","JW","62","M","{""name"":""Chrome"",""chrome"":true,""version"":""106.0"",""blink"":true,""windows"":true,""osname"":""Windows"",""osversion"":""7"",""a"":true}","9:39:16","1","4","Test_4","70","f","1","770.3000000119209","1920 x 1080","1920 x 1080","true","1","10","","","","",""
"null","<p style=""font-size: 80px;"">+ 10 points</p>","null","html-keyboard-response","65","502996","0.0-11.0-2.64","5c90d58b1bfaba0016dc35f0","qkp60h","JW","62","M","{""name"":""Chrome"",""chrome"":true,""version"":""106.0"",""blink"":true,""windows"":true,""osname"":""Windows"",""osversion"":""7"",""a"":true}","9:39:16","1","4","Test_1","74","j","1","1162.2000000178814","1920 x 1080","1920 x 1080","true","1","10","","","","",""
"null","<p style=""font-size: 80px;"">+ 10 points</p>","null","html-keyboard-response","66","505620","0.0-11.0-2.65","5c90d58b1bfaba0016dc35f0","qkp60h","JW","62","M","{""name"":""Chrome"",""chrome"":true,""version"":""106.0"",""blink"":true,""windows"":true,""osname"":""Windows"",""osversion"":""7"",""a"":true}","9:39:16","1","4","Test_2","70","f","1","618.8000000119209","1920 x 1080","1920 x 1080","true","1","10","","","","",""
"null","<p style=""font-size: 80px;"">+ 10 points</p>","null","html-keyboard-response","67","508580","0.0-11.0-2.66","5c90d58b1bfaba0016dc35f0","qkp60h","JW","62","M","{""name"":""Chrome"",""chrome"":true,""version"":""106.0"",""blink"":true,""windows"":true,""osname"":""Windows"",""osversion"":""7"",""a"":true}","9:39:16","1","4","Test_1","74","j","1","954.9000000059605","1920 x 1080","1920 x 1080","true","1","10","","","","",""
"null","<p style=""font-size: 80px;"">+ 10 points</p>","null","html-keyboard-response","68","511260","0.0-11.0-2.67","5c90d58b1bfaba0016dc35f0","qkp60h","JW","62","M","{""name"":""Chrome"",""chrome"":true,""version"":""106.0"",""blink"":true,""windows"":true,""osname"":""Windows"",""osversion"":""7"",""a"":true}","9:39:16","1","4","Test_2","70","f","1","674.5999999940395","1920 x 1080","1920 x 1080","true","1","10","","","","",""
"null","<p style=""font-size: 80px;"">+ 10 points</p>","null","html-keyboard-response","69","514756","0.0-11.0-2.68","5c90d58b1bfaba0016dc35f0","qkp60h","JW","62","M","{""name"":""Chrome"",""chrome"":true,""version"":""106.0"",""blink"":true,""windows"":true,""osname"":""Windows"",""osversion"":""7"",""a"":true}","9:39:16","1","4","Test_4","70","f","1","1490.4000000059605","1920 x 1080","1920 x 1080","true","1","10","","","","",""
"null","<p style=""font-size: 80px;"">+ 10 points</p>","null","html-keyboard-response","70","518020","0.0-11.0-2.69","5c90d58b1bfaba0016dc35f0","qkp60h","JW","62","M","{""name"":""Chrome"",""chrome"":true,""version"":""106.0"",""blink"":true,""windows"":true,""osname"":""Windows"",""osversion"":""7"",""a"":true}","9:39:16","1","4","Test_1","74","j","1","1258.0999999940395","1920 x 1080","1920 x 1080","true","1","10","","","","",""
"null","<p style=""font-size: 80px;"">+ 10 points</p>","null","html-keyboard-response","71","521837","0.0-11.0-2.70","5c90d58b1bfaba0016dc35f0","qkp60h","JW","62","M","{""name"":""Chrome"",""chrome"":true,""version"":""106.0"",""blink"":true,""windows"":true,""osname"":""Windows"",""osversion"":""7"",""a"":true}","9:39:16","1","4","Test_3","74","j","1","1811.2000000178814","1920 x 1080","1920 x 1080","true","1","10","","","","",""
"null","<p style=""font-size: 80px;"">+ 10 points</p>","null","html-keyboard-response","72","525332","0.0-11.0-2.71","5c90d58b1bfaba0016dc35f0","qkp60h","JW","62","M","{""name"":""Chrome"",""chrome"":true,""version"":""106.0"",""blink"":true,""windows"":true,""osname"":""Windows"",""osversion"":""7"",""a"":true}","9:39:16","1","4","Test_3","74","j","1","1489.5999999940395","1920 x 1080","1920 x 1080","true","1","10","","","","",""
"null","<p style=""font-size: 80px;"">+ 10 points</p>","null","html-keyboard-response","73","527996","0.0-11.0-2.72","5c90d58b1bfaba0016dc35f0","qkp60h","JW","62","M","{""name"":""Chrome"",""chrome"":true,""version"":""106.0"",""blink"":true,""windows"":true,""osname"":""Windows"",""osversion"":""7"",""a"":true}","9:39:16","1","4","Test_4","70","f","1","658.5","1920 x 1080","1920 x 1080","true","1","10","","","","",""
"null","<p style=""font-size: 80px;"">+ 10 points</p>","null","html-keyboard-response","74","530963","0.0-11.0-2.73","5c90d58b1bfaba0016dc35f0","qkp60h","JW","62","M","{""name"":""Chrome"",""chrome"":true,""version"":""106.0"",""blink"":true,""windows"":true,""osname"":""Windows"",""osversion"":""7"",""a"":true}","9:39:16","1","4","Test_3","74","j","1","962.1000000238419","1920 x 1080","1920 x 1080","true","1","10","","","","",""
"null","<p style=""font-size: 80px;"">+ 10 points</p>","null","html-keyboard-response","75","534332","0.0-11.0-2.74","5c90d58b1bfaba0016dc35f0","qkp60h","JW","62","M","{""name"":""Chrome"",""chrome"":true,""version"":""106.0"",""blink"":true,""windows"":true,""osname"":""Windows"",""osversion"":""7"",""a"":true}","9:39:16","1","4","Test_1","74","j","1","1363.2000000178814","1920 x 1080","1920 x 1080","true","1","10","","","","",""
"null","<p style=""font-size: 80px;"">+ 10 points</p>","null","html-keyboard-response","76","537331","0.0-11.0-2.75","5c90d58b1bfaba0016dc35f0","qkp60h","JW","62","M","{""name"":""Chrome"",""chrome"":true,""version"":""106.0"",""blink"":true,""windows"":true,""osname"":""Windows"",""osversion"":""7"",""a"":true}","9:39:16","1","4","Test_4","70","f","1","993.6999999880791","1920 x 1080","1920 x 1080","true","1","10","","","","",""
"null","<p style=""font-size: 80px;"">+ 0 points</p>","null","html-keyboard-response","77","540388","0.0-11.0-2.76","5c90d58b1bfaba0016dc35f0","qkp60h","JW","62","M","{""name"":""Chrome"",""chrome"":true,""version"":""106.0"",""blink"":true,""windows"":true,""osname"":""Windows"",""osversion"":""7"",""a"":true}","9:39:16","1","3","Test_1","74","f","0","1050.7999999821186","1920 x 1080","1920 x 1080","true","1","0","","","","",""
"null","<p style=""font-size: 80px;"">+ 10 points</p>","null","html-keyboard-response","78","543435","0.0-11.0-2.77","5c90d58b1bfaba0016dc35f0","qkp60h","JW","62","M","{""name"":""Chrome"",""chrome"":true,""version"":""106.0"",""blink"":true,""windows"":true,""osname"":""Windows"",""osversion"":""7"",""a"":true}","9:39:16","1","3","Test_3","70","f","1","1042.5","1920 x 1080","1920 x 1080","true","1","10","","","","",""
"null","<p style=""font-size: 80px;"">+ 10 points</p>","null","html-keyboard-response","79","546571","0.0-11.0-2.78","5c90d58b1bfaba0016dc35f0","qkp60h","JW","62","M","{""name"":""Chrome"",""chrome"":true,""version"":""106.0"",""blink"":true,""windows"":true,""osname"":""Windows"",""osversion"":""7"",""a"":true}","9:39:16","1","3","Test_1","70","f","1","1132.699999988079","1920 x 1080","1920 x 1080","true","1","10","","","","",""
"null","<p style=""font-size: 80px;"">+ 0 points</p>","null","html-keyboard-response","80","550099","0.0-11.0-2.79","5c90d58b1bfaba0016dc35f0","qkp60h","JW","62","M","{""name"":""Chrome"",""chrome"":true,""version"":""106.0"",""blink"":true,""windows"":true,""osname"":""Windows"",""osversion"":""7"",""a"":true}","9:39:16","1","3","Test_2","70","j","0","1524.5","1920 x 1080","1920 x 1080","true","1","0","","","","",""
"null","<p style=""font-size: 80px;"">+ 10 points</p>","null","html-keyboard-response","81","553395","0.0-11.0-2.80","5c90d58b1bfaba0016dc35f0","qkp60h","JW","62","M","{""name"":""Chrome"",""chrome"":true,""version"":""106.0"",""blink"":true,""windows"":true,""osname"":""Windows"",""osversion"":""7"",""a"":true}","9:39:16","1","3","Test_3","70","f","1","1292.2000000178814","1920 x 1080","1920 x 1080","true","1","10","","","","",""
"null","<p style=""font-size: 80px;"">+ 10 points</p>","null","html-keyboard-response","82","556811","0.0-11.0-2.81","5c90d58b1bfaba0016dc35f0","qkp60h","JW","62","M","{""name"":""Chrome"",""chrome"":true,""version"":""106.0"",""blink"":true,""windows"":true,""osname"":""Windows"",""osversion"":""7"",""a"":true}","9:39:16","1","3","Test_3","70","f","1","1412.2999999821186","1920 x 1080","1920 x 1080","true","1","10","","","","",""
"null","<p style=""font-size: 80px;"">+ 10 points</p>","null","html-keyboard-response","83","561043","0.0-11.0-2.82","5c90d58b1bfaba0016dc35f0","qkp60h","JW","62","M","{""name"":""Chrome"",""chrome"":true,""version"":""106.0"",""blink"":true,""windows"":true,""osname"":""Windows"",""osversion"":""7"",""a"":true}","9:39:16","1","3","Test_1","70","f","1","2227.800000011921","1920 x 1080","1920 x 1080","true","1","10","","","","",""
"null","<p style=""font-size: 80px;"">+ 10 points</p>","null","html-keyboard-response","84","564619","0.0-11.0-2.83","5c90d58b1bfaba0016dc35f0","qkp60h","JW","62","M","{""name"":""Chrome"",""chrome"":true,""version"":""106.0"",""blink"":true,""windows"":true,""osname"":""Windows"",""osversion"":""7"",""a"":true}","9:39:16","1","3","Test_1","70","f","1","1572.8999999761581","1920 x 1080","1920 x 1080","true","1","10","","","","",""
"null","<p style=""font-size: 80px;"">+ 10 points</p>","null","html-keyboard-response","85","568011","0.0-11.0-2.84","5c90d58b1bfaba0016dc35f0","qkp60h","JW","62","M","{""name"":""Chrome"",""chrome"":true,""version"":""106.0"",""blink"":true,""windows"":true,""osname"":""Windows"",""osversion"":""7"",""a"":true}","9:39:16","1","3","Test_4","74","j","1","1388.5999999940395","1920 x 1080","1920 x 1080","true","1","10","","","","",""
"null","<p style=""font-size: 80px;"">+ 10 points</p>","null","html-keyboard-response","86","570715","0.0-11.0-2.85","5c90d58b1bfaba0016dc35f0","qkp60h","JW","62","M","{""name"":""Chrome"",""chrome"":true,""version"":""106.0"",""blink"":true,""windows"":true,""osname"":""Windows"",""osversion"":""7"",""a"":true}","9:39:16","1","3","Test_3","70","f","1","700.0999999940395","1920 x 1080","1920 x 1080","true","1","10","","","","",""
"null","<p style=""font-size: 80px;"">+ 0 points</p>","null","html-keyboard-response","87","574530","0.0-11.0-2.86","5c90d58b1bfaba0016dc35f0","qkp60h","JW","62","M","{""name"":""Chrome"",""chrome"":true,""version"":""106.0"",""blink"":true,""windows"":true,""osname"":""Windows"",""osversion"":""7"",""a"":true}","9:39:16","1","3","Test_2","70","j","0","1811.9000000059605","1920 x 1080","1920 x 1080","true","1","0","","","","",""
"null","<p style=""font-size: 80px;"">+ 10 points</p>","null","html-keyboard-response","88","577442","0.0-11.0-2.87","5c90d58b1bfaba0016dc35f0","qkp60h","JW","62","M","{""name"":""Chrome"",""chrome"":true,""version"":""106.0"",""blink"":true,""windows"":true,""osname"":""Windows"",""osversion"":""7"",""a"":true}","9:39:16","1","3","Test_4","74","j","1","907.5999999940395","1920 x 1080","1920 x 1080","true","1","10","","","","",""
"null","<p style=""font-size: 80px;"">+ 10 points</p>","null","html-keyboard-response","89","580523","0.0-11.0-2.88","5c90d58b1bfaba0016dc35f0","qkp60h","JW","62","M","{""name"":""Chrome"",""chrome"":true,""version"":""106.0"",""blink"":true,""windows"":true,""osname"":""Windows"",""osversion"":""7"",""a"":true}","9:39:16","1","3","Test_4","74","j","1","1076.7999999821186","1920 x 1080","1920 x 1080","true","1","10","","","","",""
"null","<p style=""font-size: 80px;"">+ 10 points</p>","null","html-keyboard-response","90","583475","0.0-11.0-2.89","5c90d58b1bfaba0016dc35f0","qkp60h","JW","62","M","{""name"":""Chrome"",""chrome"":true,""version"":""106.0"",""blink"":true,""windows"":true,""osname"":""Windows"",""osversion"":""7"",""a"":true}","9:39:16","1","3","Test_4","74","j","1","948.3000000119209","1920 x 1080","1920 x 1080","true","1","10","","","","",""
"null","<p style=""font-size: 80px;"">+ 10 points</p>","null","html-keyboard-response","91","586563","0.0-11.0-2.90","5c90d58b1bfaba0016dc35f0","qkp60h","JW","62","M","{""name"":""Chrome"",""chrome"":true,""version"":""106.0"",""blink"":true,""windows"":true,""osname"":""Windows"",""osversion"":""7"",""a"":true}","9:39:16","1","3","Test_3","70","f","1","1084.2000000178814","1920 x 1080","1920 x 1080","true","1","10","","","","",""
"null","<p style=""font-size: 80px;"">+ 10 points</p>","null","html-keyboard-response","92","589635","0.0-11.0-2.91","5c90d58b1bfaba0016dc35f0","qkp60h","JW","62","M","{""name"":""Chrome"",""chrome"":true,""version"":""106.0"",""blink"":true,""windows"":true,""osname"":""Windows"",""osversion"":""7"",""a"":true}","9:39:16","1","3","Test_2","74","j","1","1068","1920 x 1080","1920 x 1080","true","1","10","","","","",""
"null","<p style=""font-size: 80px;"">+ 0 points</p>","null","html-keyboard-response","93","592970","0.0-11.0-2.92","5c90d58b1bfaba0016dc35f0","qkp60h","JW","62","M","{""name"":""Chrome"",""chrome"":true,""version"":""106.0"",""blink"":true,""windows"":true,""osname"":""Windows"",""osversion"":""7"",""a"":true}","9:39:16","1","3","Test_2","70","j","0","1331.800000011921","1920 x 1080","1920 x 1080","true","1","0","","","","",""
"null","<p style=""font-size: 80px;"">+ 0 points</p>","null","html-keyboard-response","94","595794","0.0-11.0-2.93","5c90d58b1bfaba0016dc35f0","qkp60h","JW","62","M","{""name"":""Chrome"",""chrome"":true,""version"":""106.0"",""blink"":true,""windows"":true,""osname"":""Windows"",""osversion"":""7"",""a"":true}","9:39:16","1","4","Test_4","74","f","0","820.5","1920 x 1080","1920 x 1080","true","1","0","","","","",""
"null","<p style=""font-size: 80px;"">+ 0 points</p>","null","html-keyboard-response","95","599563","0.0-11.0-2.94","5c90d58b1bfaba0016dc35f0","qkp60h","JW","62","M","{""name"":""Chrome"",""chrome"":true,""version"":""106.0"",""blink"":true,""windows"":true,""osname"":""Windows"",""osversion"":""7"",""a"":true}","9:39:16","1","4","Test_1","70","j","0","1764.199999988079","1920 x 1080","1920 x 1080","true","1","0","","","","",""
"null","<p style=""font-size: 80px;"">+ 0 points</p>","null","html-keyboard-response","96","602331","0.0-11.0-2.95","5c90d58b1bfaba0016dc35f0","qkp60h","JW","62","M","{""name"":""Chrome"",""chrome"":true,""version"":""106.0"",""blink"":true,""windows"":true,""osname"":""Windows"",""osversion"":""7"",""a"":true}","9:39:16","1","4","Test_3","70","j","0","764","1920 x 1080","1920 x 1080","true","1","0","","","","",""
"null","<p style=""font-size: 80px;"">+ 10 points</p>","null","html-keyboard-response","97","605738","0.0-11.0-2.96","5c90d58b1bfaba0016dc35f0","qkp60h","JW","62","M","{""name"":""Chrome"",""chrome"":true,""version"":""106.0"",""blink"":true,""windows"":true,""osname"":""Windows"",""osversion"":""7"",""a"":true}","9:39:16","1","4","Test_4","70","f","1","1404","1920 x 1080","1920 x 1080","true","1","10","","","","",""
"null","<p style=""font-size: 80px;"">+ 10 points</p>","null","html-keyboard-response","98","608778","0.0-11.0-2.97","5c90d58b1bfaba0016dc35f0","qkp60h","JW","62","M","{""name"":""Chrome"",""chrome"":true,""version"":""106.0"",""blink"":true,""windows"":true,""osname"":""Windows"",""osversion"":""7"",""a"":true}","9:39:16","1","4","Test_2","70","f","1","1036.5","1920 x 1080","1920 x 1080","true","1","10","","","","",""
"null","<p style=""font-size: 80px;"">+ 10 points</p>","null","html-keyboard-response","99","611931","0.0-11.0-2.98","5c90d58b1bfaba0016dc35f0","qkp60h","JW","62","M","{""name"":""Chrome"",""chrome"":true,""version"":""106.0"",""blink"":true,""windows"":true,""osname"":""Windows"",""osversion"":""7"",""a"":true}","9:39:16","1","4","Test_1","74","j","1","1148.4000000059605","1920 x 1080","1920 x 1080","true","1","10","","","","",""
"null","<p style=""font-size: 80px;"">+ 10 points</p>","null","html-keyboard-response","100","614971","0.0-11.0-2.99","5c90d58b1bfaba0016dc35f0","qkp60h","JW","62","M","{""name"":""Chrome"",""chrome"":true,""version"":""106.0"",""blink"":true,""windows"":true,""osname"":""Windows"",""osversion"":""7"",""a"":true}","9:39:16","1","4","Test_1","74","j","1","1036.2000000178814","1920 x 1080","1920 x 1080","true","1","10","","","","",""
"null","<p style=""font-size: 80px;"">+ 10 points</p>","null","html-keyboard-response","101","618884","0.0-11.0-2.100","5c90d58b1bfaba0016dc35f0","qkp60h","JW","62","M","{""name"":""Chrome"",""chrome"":true,""version"":""106.0"",""blink"":true,""windows"":true,""osname"":""Windows"",""osversion"":""7"",""a"":true}","9:39:16","1","4","Test_4","70","f","1","1908.199999988079","1920 x 1080","1920 x 1080","true","1","10","","","","",""
"null","<p style=""font-size: 80px;"">+ 10 points</p>","null","html-keyboard-response","102","622195","0.0-11.0-2.101","5c90d58b1bfaba0016dc35f0","qkp60h","JW","62","M","{""name"":""Chrome"",""chrome"":true,""version"":""106.0"",""blink"":true,""windows"":true,""osname"":""Windows"",""osversion"":""7"",""a"":true}","9:39:16","1","4","Test_1","74","j","1","1307.699999988079","1920 x 1080","1920 x 1080","true","1","10","","","","",""
"null","<p style=""font-size: 80px;"">+ 10 points</p>","null","html-keyboard-response","103","625819","0.0-11.0-2.102","5c90d58b1bfaba0016dc35f0","qkp60h","JW","62","M","{""name"":""Chrome"",""chrome"":true,""version"":""106.0"",""blink"":true,""windows"":true,""osname"":""Windows"",""osversion"":""7"",""a"":true}","9:39:16","1","4","Test_3","74","j","1","1620.5","1920 x 1080","1920 x 1080","true","1","10","","","","",""
"null","<p style=""font-size: 80px;"">+ 10 points</p>","null","html-keyboard-response","104","629339","0.0-11.0-2.103","5c90d58b1bfaba0016dc35f0","qkp60h","JW","62","M","{""name"":""Chrome"",""chrome"":true,""version"":""106.0"",""blink"":true,""windows"":true,""osname"":""Windows"",""osversion"":""7"",""a"":true}","9:39:16","1","4","Test_2","70","f","1","1516.4000000059605","1920 x 1080","1920 x 1080","true","1","10","","","","",""
"null","<p style=""font-size: 80px;"">+ 10 points</p>","null","html-keyboard-response","105","632555","0.0-11.0-2.104","5c90d58b1bfaba0016dc35f0","qkp60h","JW","62","M","{""name"":""Chrome"",""chrome"":true,""version"":""106.0"",""blink"":true,""windows"":true,""osname"":""Windows"",""osversion"":""7"",""a"":true}","9:39:16","1","4","Test_4","70","f","1","1212.199999988079","1920 x 1080","1920 x 1080","true","1","10","","","","",""
"null","<p style=""font-size: 80px;"">+ 10 points</p>","null","html-keyboard-response","106","635930","0.0-11.0-2.105","5c90d58b1bfaba0016dc35f0","qkp60h","JW","62","M","{""name"":""Chrome"",""chrome"":true,""version"":""106.0"",""blink"":true,""windows"":true,""osname"":""Windows"",""osversion"":""7"",""a"":true}","9:39:16","1","4","Test_3","74","j","1","1371.9000000059605","1920 x 1080","1920 x 1080","true","1","10","","","","",""
"null","<p style=""font-size: 80px;"">+ 10 points</p>","null","html-keyboard-response","107","639266","0.0-11.0-2.106","5c90d58b1bfaba0016dc35f0","qkp60h","JW","62","M","{""name"":""Chrome"",""chrome"":true,""version"":""106.0"",""blink"":true,""windows"":true,""osname"":""Windows"",""osversion"":""7"",""a"":true}","9:39:16","1","4","Test_3","74","j","1","1330.5999999940395","1920 x 1080","1920 x 1080","true","1","10","","","","",""
"null","<p style=""font-size: 80px;"">+ 10 points</p>","null","html-keyboard-response","108","642507","0.0-11.0-2.107","5c90d58b1bfaba0016dc35f0","qkp60h","JW","62","M","{""name"":""Chrome"",""chrome"":true,""version"":""106.0"",""blink"":true,""windows"":true,""osname"":""Windows"",""osversion"":""7"",""a"":true}","9:39:16","1","4","Test_3","74","j","1","1236.699999988079","1920 x 1080","1920 x 1080","true","1","10","","","","",""
"null","<p style=""font-size: 80px;"">+ 10 points</p>","null","html-keyboard-response","109","645643","0.0-11.0-2.108","5c90d58b1bfaba0016dc35f0","qkp60h","JW","62","M","{""name"":""Chrome"",""chrome"":true,""version"":""106.0"",""blink"":true,""windows"":true,""osname"":""Windows"",""osversion"":""7"",""a"":true}","9:39:16","1","4","Test_2","70","f","1","1132.2000000178814","1920 x 1080","1920 x 1080","true","1","10","","","","",""
"null","<p style=""font-size: 80px;"">+ 10 points</p>","null","html-keyboard-response","110","702426","0.0-11.0-2.109","5c90d58b1bfaba0016dc35f0","qkp60h","JW","62","M","{""name"":""Chrome"",""chrome"":true,""version"":""106.0"",""blink"":true,""windows"":true,""osname"":""Windows"",""osversion"":""7"",""a"":true}","9:39:16","1","4","Test_2","70","f","1","2346.4000000059605","1920 x 1080","1920 x 1080","true","1","10","","","","",""
"null","<p style=""font-size: 80px;"">+ 10 points</p>","null","html-keyboard-response","111","705162","0.0-11.0-2.110","5c90d58b1bfaba0016dc35f0","qkp60h","JW","62","M","{""name"":""Chrome"",""chrome"":true,""version"":""106.0"",""blink"":true,""windows"":true,""osname"":""Windows"",""osversion"":""7"",""a"":true}","9:39:16","1","4","Test_2","70","f","1","732.4000000059605","1920 x 1080","1920 x 1080","true","1","10","","","","",""
"null","<p style=""font-size: 80px;"">+ 10 points</p>","null","html-keyboard-response","112","708810","0.0-11.0-2.111","5c90d58b1bfaba0016dc35f0","qkp60h","JW","62","M","{""name"":""Chrome"",""chrome"":true,""version"":""106.0"",""blink"":true,""windows"":true,""osname"":""Windows"",""osversion"":""7"",""a"":true}","9:39:16","1","4","Test_4","70","f","1","1643.0999999940395","1920 x 1080","1920 x 1080","true","1","10","","","","",""
"null","<p style=""font-size: 80px;"">+ 10 points</p>","null","html-keyboard-response","113","711474","0.0-11.0-2.112","5c90d58b1bfaba0016dc35f0","qkp60h","JW","62","M","{""name"":""Chrome"",""chrome"":true,""version"":""106.0"",""blink"":true,""windows"":true,""osname"":""Windows"",""osversion"":""7"",""a"":true}","9:39:16","1","4","Test_2","70","f","1","660.2000000178814","1920 x 1080","1920 x 1080","true","1","10","","","","",""
"null","<p style=""font-size: 80px;"">+ 10 points</p>","null","html-keyboard-response","114","714673","0.0-11.0-2.113","5c90d58b1bfaba0016dc35f0","qkp60h","JW","62","M","{""name"":""Chrome"",""chrome"":true,""version"":""106.0"",""blink"":true,""windows"":true,""osname"":""Windows"",""osversion"":""7"",""a"":true}","9:39:16","1","4","Test_1","74","j","1","1195.7999999821186","1920 x 1080","1920 x 1080","true","1","10","","","","",""
"null","<p style=""font-size: 80px;"">+ 0 points</p>","null","html-keyboard-response","115","717554","0.0-11.0-2.114","5c90d58b1bfaba0016dc35f0","qkp60h","JW","62","M","{""name"":""Chrome"",""chrome"":true,""version"":""106.0"",""blink"":true,""windows"":true,""osname"":""Windows"",""osversion"":""7"",""a"":true}","9:39:16","1","3","Test_1","74","f","0","876.5","1920 x 1080","1920 x 1080","true","1","0","","","","",""
"null","<p style=""font-size: 80px;"">+ 0 points</p>","null","html-keyboard-response","116","720642","0.0-11.0-2.115","5c90d58b1bfaba0016dc35f0","qkp60h","JW","62","M","{""name"":""Chrome"",""chrome"":true,""version"":""106.0"",""blink"":true,""windows"":true,""osname"":""Windows"",""osversion"":""7"",""a"":true}","9:39:16","1","3","Test_3","74","f","0","1081.699999988079","1920 x 1080","1920 x 1080","true","1","0","","","","",""
"null","<p style=""font-size: 80px;"">+ 0 points</p>","null","html-keyboard-response","117","724858","0.0-11.0-2.116","5c90d58b1bfaba0016dc35f0","qkp60h","JW","62","M","{""name"":""Chrome"",""chrome"":true,""version"":""106.0"",""blink"":true,""windows"":true,""osname"":""Windows"",""osversion"":""7"",""a"":true}","9:39:16","1","3","Test_1","74","f","0","2212.4000000059605","1920 x 1080","1920 x 1080","true","1","0","","","","",""
"null","<p style=""font-size: 80px;"">+ 10 points</p>","null","html-keyboard-response","118","728010","0.0-11.0-2.117","5c90d58b1bfaba0016dc35f0","qkp60h","JW","62","M","{""name"":""Chrome"",""chrome"":true,""version"":""106.0"",""blink"":true,""windows"":true,""osname"":""Windows"",""osversion"":""7"",""a"":true}","9:39:16","1","3","Test_2","74","j","1","1147.9000000059605","1920 x 1080","1920 x 1080","true","1","10","","","","",""
"null","<p style=""font-size: 80px;"">+ 10 points</p>","null","html-keyboard-response","119","731185","0.0-11.0-2.118","5c90d58b1bfaba0016dc35f0","qkp60h","JW","62","M","{""name"":""Chrome"",""chrome"":true,""version"":""106.0"",""blink"":true,""windows"":true,""osname"":""Windows"",""osversion"":""7"",""a"":true}","9:39:16","1","3","Test_2","74","j","1","1170.6000000238419","1920 x 1080","1920 x 1080","true","1","10","","","","",""
"null","<p style=""font-size: 80px;"">+ 0 points</p>","null","html-keyboard-response","120","735241","0.0-11.0-2.119","5c90d58b1bfaba0016dc35f0","qkp60h","JW","62","M","{""name"":""Chrome"",""chrome"":true,""version"":""106.0"",""blink"":true,""windows"":true,""osname"":""Windows"",""osversion"":""7"",""a"":true}","9:39:16","1","3","Test_4","70","j","0","2052.7000000178814","1920 x 1080","1920 x 1080","true","1","0","","","","",""
"null","<p style=""font-size: 80px;"">+ 0 points</p>","null","html-keyboard-response","121","738314","0.0-11.0-2.120","5c90d58b1bfaba0016dc35f0","qkp60h","JW","62","M","{""name"":""Chrome"",""chrome"":true,""version"":""106.0"",""blink"":true,""windows"":true,""osname"":""Windows"",""osversion"":""7"",""a"":true}","9:39:16","1","3","Test_1","74","f","0","1068.199999988079","1920 x 1080","1920 x 1080","true","1","0","","","","",""
"null","<p style=""font-size: 80px;"">+ 0 points</p>","null","html-keyboard-response","122","741562","0.0-11.0-2.121","5c90d58b1bfaba0016dc35f0","qkp60h","JW","62","M","{""name"":""Chrome"",""chrome"":true,""version"":""106.0"",""blink"":true,""windows"":true,""osname"":""Windows"",""osversion"":""7"",""a"":true}","9:39:16","1","3","Test_3","74","f","0","1242.9000000059605","1920 x 1080","1920 x 1080","true","1","0","","","","",""
"null","<p style=""font-size: 80px;"">+ 0 points</p>","null","html-keyboard-response","123","745314","0.0-11.0-2.122","5c90d58b1bfaba0016dc35f0","qkp60h","JW","62","M","{""name"":""Chrome"",""chrome"":true,""version"":""106.0"",""blink"":true,""windows"":true,""osname"":""Windows"",""osversion"":""7"",""a"":true}","9:39:16","1","3","Test_1","74","f","0","1747.1000000238419","1920 x 1080","1920 x 1080","true","1","0","","","","",""
"null","<p style=""font-size: 80px;"">+ 10 points</p>","null","html-keyboard-response","124","750545","0.0-11.0-2.123","5c90d58b1bfaba0016dc35f0","qkp60h","JW","62","M","{""name"":""Chrome"",""chrome"":true,""version"":""106.0"",""blink"":true,""windows"":true,""osname"":""Windows"",""osversion"":""7"",""a"":true}","9:39:16","1","3","Test_2","74","j","1","3226.699999988079","1920 x 1080","1920 x 1080","true","1","10","","","","",""
"null","<p style=""font-size: 80px;"">+ 10 points</p>","null","html-keyboard-response","125","753593","0.0-11.0-2.124","5c90d58b1bfaba0016dc35f0","qkp60h","JW","62","M","{""name"":""Chrome"",""chrome"":true,""version"":""106.0"",""blink"":true,""windows"":true,""osname"":""Windows"",""osversion"":""7"",""a"":true}","9:39:16","1","3","Test_2","74","j","1","1043.2000000178814","1920 x 1080","1920 x 1080","true","1","10","","","","",""
"null","<p style=""font-size: 80px;"">+ 10 points</p>","null","html-keyboard-response","126","756889","0.0-11.0-2.125","5c90d58b1bfaba0016dc35f0","qkp60h","JW","62","M","{""name"":""Chrome"",""chrome"":true,""version"":""106.0"",""blink"":true,""windows"":true,""osname"":""Windows"",""osversion"":""7"",""a"":true}","9:39:16","1","3","Test_1","70","f","1","1291.699999988079","1920 x 1080","1920 x 1080","true","1","10","","","","",""
"null","<p style=""font-size: 80px;"">+ 10 points</p>","null","html-keyboard-response","127","760323","0.0-11.0-2.126","5c90d58b1bfaba0016dc35f0","qkp60h","JW","62","M","{""name"":""Chrome"",""chrome"":true,""version"":""106.0"",""blink"":true,""windows"":true,""osname"":""Windows"",""osversion"":""7"",""a"":true}","9:39:16","1","3","Test_4","74","j","1","1426.300000011921","1920 x 1080","1920 x 1080","true","1","10","","","","",""
"null","<p style=""font-size: 80px;"">+ 0 points</p>","null","html-keyboard-response","128","763522","0.0-11.0-2.127","5c90d58b1bfaba0016dc35f0","qkp60h","JW","62","M","{""name"":""Chrome"",""chrome"":true,""version"":""106.0"",""blink"":true,""windows"":true,""osname"":""Windows"",""osversion"":""7"",""a"":true}","9:39:16","1","3","Test_3","74","f","0","1194.4000000059605","1920 x 1080","1920 x 1080","true","1","0","","","","",""
"null","<p style=""font-size: 80px;"">+ 10 points</p>","null","html-keyboard-response","129","767394","0.0-11.0-2.128","5c90d58b1bfaba0016dc35f0","qkp60h","JW","62","M","{""name"":""Chrome"",""chrome"":true,""version"":""106.0"",""blink"":true,""windows"":true,""osname"":""Windows"",""osversion"":""7"",""a"":true}","9:39:16","1","3","Test_4","74","j","1","1868.800000011921","1920 x 1080","1920 x 1080","true","1","10","","","","",""
"null","<p style=""font-size: 80px;"">+ 10 points</p>","null","html-keyboard-response","130","770474","0.0-11.0-2.129","5c90d58b1bfaba0016dc35f0","qkp60h","JW","62","M","{""name"":""Chrome"",""chrome"":true,""version"":""106.0"",""blink"":true,""windows"":true,""osname"":""Windows"",""osversion"":""7"",""a"":true}","9:39:16","1","3","Test_4","74","j","1","1075","1920 x 1080","1920 x 1080","true","1","10","","","","",""
"null","<p style=""font-size: 80px;"">+ 10 points</p>","null","html-keyboard-response","131","773466","0.0-11.0-2.130","5c90d58b1bfaba0016dc35f0","qkp60h","JW","62","M","{""name"":""Chrome"",""chrome"":true,""version"":""106.0"",""blink"":true,""windows"":true,""osname"":""Windows"",""osversion"":""7"",""a"":true}","9:39:16","1","3","Test_3","70","f","1","987","1920 x 1080","1920 x 1080","true","1","10","","","","",""
"null","<p style=""font-size: 80px;"">+ 10 points</p>","null","html-keyboard-response","132","777130","0.0-11.0-2.131","5c90d58b1bfaba0016dc35f0","qkp60h","JW","62","M","{""name"":""Chrome"",""chrome"":true,""version"":""106.0"",""blink"":true,""windows"":true,""osname"":""Windows"",""osversion"":""7"",""a"":true}","9:39:16","1","3","Test_4","74","j","1","1659.699999988079","1920 x 1080","1920 x 1080","true","1","10","","","","",""
"null","<p style=""font-size: 80px;"">+ 10 points</p>","null","html-keyboard-response","133","780059","0.0-11.0-2.132","5c90d58b1bfaba0016dc35f0","qkp60h","JW","62","M","{""name"":""Chrome"",""chrome"":true,""version"":""106.0"",""blink"":true,""windows"":true,""osname"":""Windows"",""osversion"":""7"",""a"":true}","9:39:16","1","3","Test_2","74","j","1","923.7999999821186","1920 x 1080","1920 x 1080","true","1","10","","","","",""
"null","<p style=""font-size: 80px;"">+ 10 points</p>","null","html-keyboard-response","134","783882","0.0-11.0-2.133","5c90d58b1bfaba0016dc35f0","qkp60h","JW","62","M","{""name"":""Chrome"",""chrome"":true,""version"":""106.0"",""blink"":true,""windows"":true,""osname"":""Windows"",""osversion"":""7"",""a"":true}","9:39:16","1","3","Test_3","70","f","1","1818.4000000059605","1920 x 1080","1920 x 1080","true","1","10","","","","",""
"null","<p style=""font-size: 80px;"">+ 0 points</p>","null","html-keyboard-response","135","787106","0.0-11.0-2.134","5c90d58b1bfaba0016dc35f0","qkp60h","JW","62","M","{""name"":""Chrome"",""chrome"":true,""version"":""106.0"",""blink"":true,""windows"":true,""osname"":""Windows"",""osversion"":""7"",""a"":true}","9:39:16","1","4","Test_3","70","j","0","1219.1000000238419","1920 x 1080","1920 x 1080","true","1","0","","","","",""
"null","<p style=""font-size: 80px;"">+ 0 points</p>","null","html-keyboard-response","136","792194","0.0-11.0-2.135","5c90d58b1bfaba0016dc35f0","qkp60h","JW","62","M","{""name"":""Chrome"",""chrome"":true,""version"":""106.0"",""blink"":true,""windows"":true,""osname"":""Windows"",""osversion"":""7"",""a"":true}","9:39:16","1","4","Test_2","74","f","0","3083","1920 x 1080","1920 x 1080","true","1","0","","","","",""
"null","<p style=""font-size: 80px;"">+ 10 points</p>","null","html-keyboard-response","137","796273","0.0-11.0-2.136","5c90d58b1bfaba0016dc35f0","qkp60h","JW","62","M","{""name"":""Chrome"",""chrome"":true,""version"":""106.0"",""blink"":true,""windows"":true,""osname"":""Windows"",""osversion"":""7"",""a"":true}","9:39:16","1","4","Test_3","74","j","1","2075.2999999821186","1920 x 1080","1920 x 1080","true","1","10","","","","",""
"null","<p style=""font-size: 80px;"">+ 10 points</p>","null","html-keyboard-response","138","800025","0.0-11.0-2.137","5c90d58b1bfaba0016dc35f0","qkp60h","JW","62","M","{""name"":""Chrome"",""chrome"":true,""version"":""106.0"",""blink"":true,""windows"":true,""osname"":""Windows"",""osversion"":""7"",""a"":true}","9:39:16","1","4","Test_4","70","f","1","1748.3999999761581","1920 x 1080","1920 x 1080","true","1","10","","","","",""
"null","<p style=""font-size: 80px;"">+ 10 points</p>","null","html-keyboard-response","139","803642","0.0-11.0-2.138","5c90d58b1bfaba0016dc35f0","qkp60h","JW","62","M","{""name"":""Chrome"",""chrome"":true,""version"":""106.0"",""blink"":true,""windows"":true,""osname"":""Windows"",""osversion"":""7"",""a"":true}","9:39:16","1","4","Test_2","70","f","1","1609.7000000178814","1920 x 1080","1920 x 1080","true","1","10","","","","",""
"null","<p style=""font-size: 80px;"">+ 10 points</p>","null","html-keyboard-response","140","807345","0.0-11.0-2.139","5c90d58b1bfaba0016dc35f0","qkp60h","JW","62","M","{""name"":""Chrome"",""chrome"":true,""version"":""106.0"",""blink"":true,""windows"":true,""osname"":""Windows"",""osversion"":""7"",""a"":true}","9:39:16","1","4","Test_1","74","j","1","1698.9000000059605","1920 x 1080","1920 x 1080","true","1","10","","","","",""
"null","<p style=""font-size: 80px;"">+ 10 points</p>","null","html-keyboard-response","141","811657","0.0-11.0-2.140","5c90d58b1bfaba0016dc35f0","qkp60h","JW","62","M","{""name"":""Chrome"",""chrome"":true,""version"":""106.0"",""blink"":true,""windows"":true,""osname"":""Windows"",""osversion"":""7"",""a"":true}","9:39:16","1","4","Test_4","70","f","1","2307.5999999940395","1920 x 1080","1920 x 1080","true","1","10","","","","",""
"null","<p style=""font-size: 80px;"">+ 10 points</p>","null","html-keyboard-response","142","814729","0.0-11.0-2.141","5c90d58b1bfaba0016dc35f0","qkp60h","JW","62","M","{""name"":""Chrome"",""chrome"":true,""version"":""106.0"",""blink"":true,""windows"":true,""osname"":""Windows"",""osversion"":""7"",""a"":true}","9:39:16","1","4","Test_1","74","j","1","1067.7999999821186","1920 x 1080","1920 x 1080","true","1","10","","","","",""
"null","<p style=""font-size: 80px;"">+ 10 points</p>","null","html-keyboard-response","143","818585","0.0-11.0-2.142","5c90d58b1bfaba0016dc35f0","qkp60h","JW","62","M","{""name"":""Chrome"",""chrome"":true,""version"":""106.0"",""blink"":true,""windows"":true,""osname"":""Windows"",""osversion"":""7"",""a"":true}","9:39:16","1","4","Test_1","74","j","1","1851","1920 x 1080","1920 x 1080","true","1","10","","","","",""
"null","<p style=""font-size: 80px;"">+ 10 points</p>","null","html-keyboard-response","144","821442","0.0-11.0-2.143","5c90d58b1bfaba0016dc35f0","qkp60h","JW","62","M","{""name"":""Chrome"",""chrome"":true,""version"":""106.0"",""blink"":true,""windows"":true,""osname"":""Windows"",""osversion"":""7"",""a"":true}","9:39:16","1","4","Test_2","70","f","1","851","1920 x 1080","1920 x 1080","true","1","10","","","","",""
"null","<p style=""font-size: 80px;"">+ 10 points</p>","null","html-keyboard-response","145","824770","0.0-11.0-2.144","5c90d58b1bfaba0016dc35f0","qkp60h","JW","62","M","{""name"":""Chrome"",""chrome"":true,""version"":""106.0"",""blink"":true,""windows"":true,""osname"":""Windows"",""osversion"":""7"",""a"":true}","9:39:16","1","4","Test_4","70","f","1","1322.800000011921","1920 x 1080","1920 x 1080","true","1","10","","","","",""
"null","<p style=""font-size: 80px;"">+ 10 points</p>","null","html-keyboard-response","146","828545","0.0-11.0-2.145","5c90d58b1bfaba0016dc35f0","qkp60h","JW","62","M","{""name"":""Chrome"",""chrome"":true,""version"":""106.0"",""blink"":true,""windows"":true,""osname"":""Windows"",""osversion"":""7"",""a"":true}","9:39:16","1","4","Test_2","70","f","1","1770.4000000059605","1920 x 1080","1920 x 1080","true","1","10","","","","",""
"null","<p style=""font-size: 80px;"">+ 10 points</p>","null","html-keyboard-response","147","832490","0.0-11.0-2.146","5c90d58b1bfaba0016dc35f0","qkp60h","JW","62","M","{""name"":""Chrome"",""chrome"":true,""version"":""106.0"",""blink"":true,""windows"":true,""osname"":""Windows"",""osversion"":""7"",""a"":true}","9:39:16","1","4","Test_3","74","j","1","1939.199999988079","1920 x 1080","1920 x 1080","true","1","10","","","","",""
"null","<p style=""font-size: 80px;"">+ 10 points</p>","null","html-keyboard-response","148","835674","0.0-11.0-2.147","5c90d58b1bfaba0016dc35f0","qkp60h","JW","62","M","{""name"":""Chrome"",""chrome"":true,""version"":""106.0"",""blink"":true,""windows"":true,""osname"":""Windows"",""osversion"":""7"",""a"":true}","9:39:16","1","4","Test_1","74","j","1","1178.9000000059605","1920 x 1080","1920 x 1080","true","1","10","","","","",""
"null","<p style=""font-size: 80px;"">+ 10 points</p>","null","html-keyboard-response","149","838788","0.0-11.0-2.148","5c90d58b1bfaba0016dc35f0","qkp60h","JW","62","M","{""name"":""Chrome"",""chrome"":true,""version"":""106.0"",""blink"":true,""windows"":true,""osname"":""Windows"",""osversion"":""7"",""a"":true}","9:39:16","1","4","Test_2","70","f","1","1106.800000011921","1920 x 1080","1920 x 1080","true","1","10","","","","",""
"null","<p style=""font-size: 80px;"">+ 10 points</p>","null","html-keyboard-response","150","842563","0.0-11.0-2.149","5c90d58b1bfaba0016dc35f0","qkp60h","JW","62","M","{""name"":""Chrome"",""chrome"":true,""version"":""106.0"",""blink"":true,""windows"":true,""osname"":""Windows"",""osversion"":""7"",""a"":true}","9:39:16","1","4","Test_1","74","j","1","1768.7999999821186","1920 x 1080","1920 x 1080","true","1","10","","","","",""
"null","<p style=""font-size: 80px;"">+ 10 points</p>","null","html-keyboard-response","151","845473","0.0-11.0-2.150","5c90d58b1bfaba0016dc35f0","qkp60h","JW","62","M","{""name"":""Chrome"",""chrome"":true,""version"":""106.0"",""blink"":true,""windows"":true,""osname"":""Windows"",""osversion"":""7"",""a"":true}","9:39:16","1","4","Test_2","70","f","1","905.5","1920 x 1080","1920 x 1080","true","1","10","","","","",""
"null","<p style=""font-size: 80px;"">+ 10 points</p>","null","html-keyboard-response","152","848857","0.0-11.0-2.151","5c90d58b1bfaba0016dc35f0","qkp60h","JW","62","M","{""name"":""Chrome"",""chrome"":true,""version"":""106.0"",""blink"":true,""windows"":true,""osname"":""Windows"",""osversion"":""7"",""a"":true}","9:39:16","1","4","Test_1","74","j","1","1379.4000000059605","1920 x 1080","1920 x 1080","true","1","10","","","","",""
"null","<p style=""font-size: 80px;"">+ 10 points</p>","null","html-keyboard-response","153","852794","0.0-11.0-2.152","5c90d58b1bfaba0016dc35f0","qkp60h","JW","62","M","{""name"":""Chrome"",""chrome"":true,""version"":""106.0"",""blink"":true,""windows"":true,""osname"":""Windows"",""osversion"":""7"",""a"":true}","9:39:16","1","4","Test_3","74","j","1","1930.7999999821186","1920 x 1080","1920 x 1080","true","1","10","","","","",""
"null","<p style=""font-size: 80px;"">+ 10 points</p>","null","html-keyboard-response","154","856050","0.0-11.0-2.153","5c90d58b1bfaba0016dc35f0","qkp60h","JW","62","M","{""name"":""Chrome"",""chrome"":true,""version"":""106.0"",""blink"":true,""windows"":true,""osname"":""Windows"",""osversion"":""7"",""a"":true}","9:39:16","1","4","Test_3","74","j","1","1250.699999988079","1920 x 1080","1920 x 1080","true","1","10","","","","",""
"null","<p style=""font-size: 80px;"">+ 10 points</p>","null","html-keyboard-response","155","859546","0.0-11.0-2.154","5c90d58b1bfaba0016dc35f0","qkp60h","JW","62","M","{""name"":""Chrome"",""chrome"":true,""version"":""106.0"",""blink"":true,""windows"":true,""osname"":""Windows"",""osversion"":""7"",""a"":true}","9:39:16","1","4","Test_3","74","j","1","1490.9000000059605","1920 x 1080","1920 x 1080","true","1","10","","","","",""
"null","<p style=""font-size: 80px;"">+ 10 points</p>","null","html-keyboard-response","156","863401","0.0-11.0-2.155","5c90d58b1bfaba0016dc35f0","qkp60h","JW","62","M","{""name"":""Chrome"",""chrome"":true,""version"":""106.0"",""blink"":true,""windows"":true,""osname"":""Windows"",""osversion"":""7"",""a"":true}","9:39:16","1","4","Test_4","70","f","1","1850.300000011921","1920 x 1080","1920 x 1080","true","1","10","","","","",""
"null","<p style=""font-size: 80px;"">+ 0 points</p>","null","html-keyboard-response","157","866393","0.0-11.0-2.156","5c90d58b1bfaba0016dc35f0","qkp60h","JW","62","M","{""name"":""Chrome"",""chrome"":true,""version"":""106.0"",""blink"":true,""windows"":true,""osname"":""Windows"",""osversion"":""7"",""a"":true}","9:39:16","1","3","Test_2","70","j","0","986.9000000059605","1920 x 1080","1920 x 1080","true","1","0","","","","",""
"null","<p style=""font-size: 80px;"">+ 10 points</p>","null","html-keyboard-response","158","869969","0.0-11.0-2.157","5c90d58b1bfaba0016dc35f0","qkp60h","JW","62","M","{""name"":""Chrome"",""chrome"":true,""version"":""106.0"",""blink"":true,""windows"":true,""osname"":""Windows"",""osversion"":""7"",""a"":true}","9:39:16","1","3","Test_1","70","f","1","1570.800000011921","1920 x 1080","1920 x 1080","true","1","10","","","","",""
"null","<p style=""font-size: 80px;"">+ 10 points</p>","null","html-keyboard-response","159","872945","0.0-11.0-2.158","5c90d58b1bfaba0016dc35f0","qkp60h","JW","62","M","{""name"":""Chrome"",""chrome"":true,""version"":""106.0"",""blink"":true,""windows"":true,""osname"":""Windows"",""osversion"":""7"",""a"":true}","9:39:16","1","3","Test_2","74","j","1","970.5","1920 x 1080","1920 x 1080","true","1","10","","","","",""
"null","<p style=""font-size: 80px;"">+ 10 points</p>","null","html-keyboard-response","160","876025","0.0-11.0-2.159","5c90d58b1bfaba0016dc35f0","qkp60h","JW","62","M","{""name"":""Chrome"",""chrome"":true,""version"":""106.0"",""blink"":true,""windows"":true,""osname"":""Windows"",""osversion"":""7"",""a"":true}","9:39:16","1","3","Test_1","70","f","1","1074.2999999821186","1920 x 1080","1920 x 1080","true","1","10","","","","",""
"null","<p style=""font-size: 80px;"">+ 10 points</p>","null","html-keyboard-response","161","878849","0.0-11.0-2.160","5c90d58b1bfaba0016dc35f0","qkp60h","JW","62","M","{""name"":""Chrome"",""chrome"":true,""version"":""106.0"",""blink"":true,""windows"":true,""osname"":""Windows"",""osversion"":""7"",""a"":true}","9:39:16","1","3","Test_2","74","j","1","819.1999999880791","1920 x 1080","1920 x 1080","true","1","10","","","","",""
"null","<p style=""font-size: 80px;"">+ 10 points</p>","null","html-keyboard-response","162","882249","0.0-11.0-2.161","5c90d58b1bfaba0016dc35f0","qkp60h","JW","62","M","{""name"":""Chrome"",""chrome"":true,""version"":""106.0"",""blink"":true,""windows"":true,""osname"":""Windows"",""osversion"":""7"",""a"":true}","9:39:16","1","3","Test_4","74","j","1","1395.1000000238419","1920 x 1080","1920 x 1080","true","1","10","","","","",""
"null","<p style=""font-size: 80px;"">+ 10 points</p>","null","html-keyboard-response","163","885490","0.0-11.0-2.162","5c90d58b1bfaba0016dc35f0","qkp60h","JW","62","M","{""name"":""Chrome"",""chrome"":true,""version"":""106.0"",""blink"":true,""windows"":true,""osname"":""Windows"",""osversion"":""7"",""a"":true}","9:39:16","1","3","Test_3","70","f","1","1234.7999999821186","1920 x 1080","1920 x 1080","true","1","10","","","","",""
"null","<p style=""font-size: 80px;"">+ 10 points</p>","null","html-keyboard-response","164","888466","0.0-11.0-2.163","5c90d58b1bfaba0016dc35f0","qkp60h","JW","62","M","{""name"":""Chrome"",""chrome"":true,""version"":""106.0"",""blink"":true,""windows"":true,""osname"":""Windows"",""osversion"":""7"",""a"":true}","9:39:16","1","3","Test_2","74","j","1","971.6999999880791","1920 x 1080","1920 x 1080","true","1","10","","","","",""
"null","<p style=""font-size: 80px;"">+ 0 points</p>","null","html-keyboard-response","165","892025","0.0-11.0-2.164","5c90d58b1bfaba0016dc35f0","qkp60h","JW","62","M","{""name"":""Chrome"",""chrome"":true,""version"":""106.0"",""blink"":true,""windows"":true,""osname"":""Windows"",""osversion"":""7"",""a"":true}","9:39:16","1","3","Test_1","74","f","0","1554.2000000178814","1920 x 1080","1920 x 1080","true","1","0","","","","",""
"null","<p style=""font-size: 80px;"">+ 10 points</p>","null","html-keyboard-response","166","895002","0.0-11.0-2.165","5c90d58b1bfaba0016dc35f0","qkp60h","JW","62","M","{""name"":""Chrome"",""chrome"":true,""version"":""106.0"",""blink"":true,""windows"":true,""osname"":""Windows"",""osversion"":""7"",""a"":true}","9:39:16","1","3","Test_3","70","f","1","971.3999999761581","1920 x 1080","1920 x 1080","true","1","10","","","","",""
"null","<p style=""font-size: 80px;"">+ 10 points</p>","null","html-keyboard-response","167","898673","0.0-11.0-2.166","5c90d58b1bfaba0016dc35f0","qkp60h","JW","62","M","{""name"":""Chrome"",""chrome"":true,""version"":""106.0"",""blink"":true,""windows"":true,""osname"":""Windows"",""osversion"":""7"",""a"":true}","9:39:16","1","3","Test_4","74","j","1","1666","1920 x 1080","1920 x 1080","true","1","10","","","","",""
"null","<p style=""font-size: 80px;"">+ 10 points</p>","null","html-keyboard-response","168","901593","0.0-11.0-2.167","5c90d58b1bfaba0016dc35f0","qkp60h","JW","62","M","{""name"":""Chrome"",""chrome"":true,""version"":""106.0"",""blink"":true,""windows"":true,""osname"":""Windows"",""osversion"":""7"",""a"":true}","9:39:16","1","3","Test_3","70","f","1","914.7000000178814","1920 x 1080","1920 x 1080","true","1","10","","","","",""
"null","<p style=""font-size: 80px;"">+ 0 points</p>","null","html-keyboard-response","169","906810","0.0-11.0-2.168","5c90d58b1bfaba0016dc35f0","qkp60h","JW","62","M","{""name"":""Chrome"",""chrome"":true,""version"":""106.0"",""blink"":true,""windows"":true,""osname"":""Windows"",""osversion"":""7"",""a"":true}","9:39:16","1","3","Test_4","70","j","0","3210.9000000059605","1920 x 1080","1920 x 1080","true","1","0","","","","",""
"null","<p style=""font-size: 80px;"">+ 10 points</p>","null","html-keyboard-response","170","911009","0.0-11.0-2.169","5c90d58b1bfaba0016dc35f0","qkp60h","JW","62","M","{""name"":""Chrome"",""chrome"":true,""version"":""106.0"",""blink"":true,""windows"":true,""osname"":""Windows"",""osversion"":""7"",""a"":true}","9:39:16","1","3","Test_1","70","f","1","2194.0999999940395","1920 x 1080","1920 x 1080","true","1","10","","","","",""
"null","<p style=""font-size: 80px;"">+ 10 points</p>","null","html-keyboard-response","171","914553","0.0-11.0-2.170","5c90d58b1bfaba0016dc35f0","qkp60h","JW","62","M","{""name"":""Chrome"",""chrome"":true,""version"":""106.0"",""blink"":true,""windows"":true,""osname"":""Windows"",""osversion"":""7"",""a"":true}","9:39:16","1","3","Test_4","74","j","1","1538.9000000059605","1920 x 1080","1920 x 1080","true","1","10","","","","",""
"null","<p style=""font-size: 80px;"">+ 10 points</p>","null","html-keyboard-response","172","917433","0.0-11.0-2.171","5c90d58b1bfaba0016dc35f0","qkp60h","JW","62","M","{""name"":""Chrome"",""chrome"":true,""version"":""106.0"",""blink"":true,""windows"":true,""osname"":""Windows"",""osversion"":""7"",""a"":true}","9:39:16","1","3","Test_3","70","f","1","874.9000000059605","1920 x 1080","1920 x 1080","true","1","10","","","","",""
"null","<p style=""font-size: 80px;"">+ 0 points</p>","null","html-keyboard-response","173","920481","0.0-11.0-2.172","5c90d58b1bfaba0016dc35f0","qkp60h","JW","62","M","{""name"":""Chrome"",""chrome"":true,""version"":""106.0"",""blink"":true,""windows"":true,""osname"":""Windows"",""osversion"":""7"",""a"":true}","9:39:16","1","4","Test_4","74","f","0","1042.5","1920 x 1080","1920 x 1080","true","1","0","","","","",""
"null","<p style=""font-size: 80px;"">+ 10 points</p>","null","html-keyboard-response","174","923585","0.0-11.0-2.173","5c90d58b1bfaba0016dc35f0","qkp60h","JW","62","M","{""name"":""Chrome"",""chrome"":true,""version"":""106.0"",""blink"":true,""windows"":true,""osname"":""Windows"",""osversion"":""7"",""a"":true}","9:39:16","1","4","Test_1","74","j","1","1098.300000011921","1920 x 1080","1920 x 1080","true","1","10","","","","",""
"null","<p style=""font-size: 80px;"">+ 10 points</p>","null","html-keyboard-response","175","927081","0.0-11.0-2.174","5c90d58b1bfaba0016dc35f0","qkp60h","JW","62","M","{""name"":""Chrome"",""chrome"":true,""version"":""106.0"",""blink"":true,""windows"":true,""osname"":""Windows"",""osversion"":""7"",""a"":true}","9:39:16","1","4","Test_1","74","j","1","1491","1920 x 1080","1920 x 1080","true","1","10","","","","",""
"null","<p style=""font-size: 80px;"">+ 10 points</p>","null","html-keyboard-response","176","930537","0.0-11.0-2.175","5c90d58b1bfaba0016dc35f0","qkp60h","JW","62","M","{""name"":""Chrome"",""chrome"":true,""version"":""106.0"",""blink"":true,""windows"":true,""osname"":""Windows"",""osversion"":""7"",""a"":true}","9:39:16","1","4","Test_4","70","f","1","1451","1920 x 1080","1920 x 1080","true","1","10","","","","",""
"null","<p style=""font-size: 80px;"">+ 10 points</p>","null","html-keyboard-response","177","933712","0.0-11.0-2.176","5c90d58b1bfaba0016dc35f0","qkp60h","JW","62","M","{""name"":""Chrome"",""chrome"":true,""version"":""106.0"",""blink"":true,""windows"":true,""osname"":""Windows"",""osversion"":""7"",""a"":true}","9:39:16","1","4","Test_3","74","j","1","1170.4000000059605","1920 x 1080","1920 x 1080","true","1","10","","","","",""
"null","<p style=""font-size: 80px;"">+ 10 points</p>","null","html-keyboard-response","178","937224","0.0-11.0-2.177","5c90d58b1bfaba0016dc35f0","qkp60h","JW","62","M","{""name"":""Chrome"",""chrome"":true,""version"":""106.0"",""blink"":true,""windows"":true,""osname"":""Windows"",""osversion"":""7"",""a"":true}","9:39:16","1","4","Test_4","70","f","1","1507.2999999821186","1920 x 1080","1920 x 1080","true","1","10","","","","",""
"null","<p style=""font-size: 80px;"">+ 10 points</p>","null","html-keyboard-response","179","940993","0.0-11.0-2.178","5c90d58b1bfaba0016dc35f0","qkp60h","JW","62","M","{""name"":""Chrome"",""chrome"":true,""version"":""106.0"",""blink"":true,""windows"":true,""osname"":""Windows"",""osversion"":""7"",""a"":true}","9:39:16","1","4","Test_2","70","f","1","1763.5","1920 x 1080","1920 x 1080","true","1","10","","","","",""
"null","<p style=""font-size: 80px;"">+ 10 points</p>","null","html-keyboard-response","180","944465","0.0-11.0-2.179","5c90d58b1bfaba0016dc35f0","qkp60h","JW","62","M","{""name"":""Chrome"",""chrome"":true,""version"":""106.0"",""blink"":true,""windows"":true,""osname"":""Windows"",""osversion"":""7"",""a"":true}","9:39:16","1","4","Test_4","70","f","1","1467.7999999821186","1920 x 1080","1920 x 1080","true","1","10","","","","",""
"null","<p style=""font-size: 80px;"">+ 10 points</p>","null","html-keyboard-response","181","947825","0.0-11.0-2.180","5c90d58b1bfaba0016dc35f0","qkp60h","JW","62","M","{""name"":""Chrome"",""chrome"":true,""version"":""106.0"",""blink"":true,""windows"":true,""osname"":""Windows"",""osversion"":""7"",""a"":true}","9:39:16","1","4","Test_4","70","f","1","1354.699999988079","1920 x 1080","1920 x 1080","true","1","10","","","","",""
"null","<p style=""font-size: 80px;"">+ 10 points</p>","null","html-keyboard-response","182","951474","0.0-11.0-2.181","5c90d58b1bfaba0016dc35f0","qkp60h","JW","62","M","{""name"":""Chrome"",""chrome"":true,""version"":""106.0"",""blink"":true,""windows"":true,""osname"":""Windows"",""osversion"":""7"",""a"":true}","9:39:16","1","4","Test_3","74","j","1","1642.5999999940395","1920 x 1080","1920 x 1080","true","1","10","","","","",""
"null","<p style=""font-size: 80px;"">+ 10 points</p>","null","html-keyboard-response","183","954665","0.0-11.0-2.182","5c90d58b1bfaba0016dc35f0","qkp60h","JW","62","M","{""name"":""Chrome"",""chrome"":true,""version"":""106.0"",""blink"":true,""windows"":true,""osname"":""Windows"",""osversion"":""7"",""a"":true}","9:39:16","1","4","Test_3","74","j","1","1185.0999999940395","1920 x 1080","1920 x 1080","true","1","10","","","","",""
"null","<p style=""font-size: 80px;"">+ 10 points</p>","null","html-keyboard-response","184","957985","0.0-11.0-2.183","5c90d58b1bfaba0016dc35f0","qkp60h","JW","62","M","{""name"":""Chrome"",""chrome"":true,""version"":""106.0"",""blink"":true,""windows"":true,""osname"":""Windows"",""osversion"":""7"",""a"":true}","9:39:16","1","4","Test_2","70","f","1","1315","1920 x 1080","1920 x 1080","true","1","10","","","","",""
"null","<p style=""font-size: 80px;"">+ 10 points</p>","null","html-keyboard-response","185","961353","0.0-11.0-2.184","5c90d58b1bfaba0016dc35f0","qkp60h","JW","62","M","{""name"":""Chrome"",""chrome"":true,""version"":""106.0"",""blink"":true,""windows"":true,""osname"":""Windows"",""osversion"":""7"",""a"":true}","9:39:16","1","4","Test_3","74","j","1","1362.7999999821186","1920 x 1080","1920 x 1080","true","1","10","","","","",""
"null","<p style=""font-size: 80px;"">+ 10 points</p>","null","html-keyboard-response","186","964569","0.0-11.0-2.185","5c90d58b1bfaba0016dc35f0","qkp60h","JW","62","M","{""name"":""Chrome"",""chrome"":true,""version"":""106.0"",""blink"":true,""windows"":true,""osname"":""Windows"",""osversion"":""7"",""a"":true}","9:39:16","1","4","Test_4","70","f","1","1210.9000000059605","1920 x 1080","1920 x 1080","true","1","10","","","","",""
"null","<p style=""font-size: 80px;"">+ 10 points</p>","null","html-keyboard-response","187","967600","0.0-11.0-2.186","5c90d58b1bfaba0016dc35f0","qkp60h","JW","62","M","{""name"":""Chrome"",""chrome"":true,""version"":""106.0"",""blink"":true,""windows"":true,""osname"":""Windows"",""osversion"":""7"",""a"":true}","9:39:16","1","4","Test_2","70","f","1","1026.4000000059605","1920 x 1080","1920 x 1080","true","1","10","","","","",""
"null","<p style=""font-size: 80px;"">+ 10 points</p>","null","html-keyboard-response","188","970888","0.0-11.0-2.187","5c90d58b1bfaba0016dc35f0","qkp60h","JW","62","M","{""name"":""Chrome"",""chrome"":true,""version"":""106.0"",""blink"":true,""windows"":true,""osname"":""Windows"",""osversion"":""7"",""a"":true}","9:39:16","1","4","Test_1","74","j","1","1282.699999988079","1920 x 1080","1920 x 1080","true","1","10","","","","",""
